Gx,Gy,Gz,Ax,Ay,Az
11.399051000000004,4.217303000000012,3.6327919999999994,10.022,513.414,28.441999999999986
4.999803001945712,14.443879708708234,4.624005099189554,2.213468847179716,1.2419947877987176,3.169115396158554
2.919200550329563,8.206433469775147,2.388769692421796,2.0546600519555134,1.9439992877455923,3.0469903919523604
9.87409030202179,23.379894647695476,5.322239378936006,1.6322627038418134,2.006473911450521,4.317216909107805
12.056745199573951,34.72302686084378,17.86992747967052,1.6410415551589774,2.4482553946676213,4.41872197526205
11.02188196945414,126.22342390810365,30.79478959632869,9.597561633811758,2.1680601947072464,4.233296392133169
1.3669480925072708,72.93023894470669,16.109600901111655,4.223180647315597,4.754848842298603,5.208128664343461
6.884386708864001,20.241031172764302,6.823649116713598,0.10926443430685688,8.082251060100186,6.928405014429268
15.683435713507452,9.704902237208733,8.24431508926915,2.4864200148427553,7.544959911060406,6.917880609033449
4.1883871800893715,27.284301020977004,2.739296608444106,4.084605483743325,17.023918959392482,9.547879044662864
28.147875809612408,7.973533789816084,1.8762540819129039,3.362381400414533,49.24537546586156,23.66587087296139
38.05455003449848,13.492245536511284,8.565615491651098,1.7653796572685754,58.699147470825785,32.25437526486634
12.595684149838462,20.770305966255414,6.009156636336794,3.0455891068317524,18.600075905065378,9.86338804997278
10.221357706939001,9.875297195924746,2.43413666758529,1.4384567795395404,11.115848552502419,4.64790837635907
2.8869943790273167,15.275865220904445,4.063882742610801,3.5485282143622103,6.587813165143773,2.095515274160577
0.28717014232951554,10.64351565069722,17.33093914196526,5.5360279323835515,2.699608610643776,2.4829822460642883
11.312706307610188,102.39225650597159,55.81175440369917,27.675804168190464,7.356790281692829,5.6222401180280945
0.8844376152005888,6.09956097926065,4.952516496092777,3.320773266049743,7.767148870560922,2.107257226656101
7.858585105811185,5.820576123314436,1.8609584084862814,4.516204091256114,6.178746989106918,3.3156868686051704
4.7051944901955425,9.090070547667182,8.526125968932599,2.8749534592724424,2.7548059103989075,3.8688583263464027
7.05462984369654,23.73742893839275,9.05519362814794,8.301624296017991,5.175402157765492,6.668937491720779
40.142473940180736,16.614571661331706,20.578998607176505,6.160179078384319,15.327640593406013,30.72417865731257
4.22548076257249,2.928896111954229,4.961234285689378,2.0566712626528005,5.675719369461469,6.303191037518851
6.954069534368479,3.0793728927199195,9.466652770265101,3.222946025824672,6.598355789882791,7.034409593003453
7.815198709557878,15.976426549624488,8.574410094133324,3.680921275385878,1.4789241024566573,3.7763785777068475
3.858782821893857,15.629135874444213,7.807774950564752,4.042105246024646,1.6345478584775652,0.8569988515058607
11.964981803522281,5.886042060458423,23.71300839171185,14.093539465936471,1.2486313271379221,1.3058383852354432
4.36930517233286,11.03390582158753,14.242179753993682,4.729675918909774,4.0385897975805705,0.6342073951525963
0.7384230313337514,1.3396784975735456,9.16115873500345,7.455634532378932,0.48644233578154644,3.9930538441999834
10.574495821316619,14.205335923134061,10.496256739401455,11.00023037494941,1.8296470101299969,2.9024507166260918
8.596665196990207,4.185454754239421,4.732473568100417,2.5247597640675874,3.207110140879961,4.153463903399709
6.839303993444531,9.945661788425939,1.7400567895283765,3.8488942342454884,8.021025657250712,8.162903793082858
11.343450579370824,2.744947366224139,3.2652001199509377,6.136345654701363,17.22837612947238,16.37579254128308
4.26131924185495,7.37460205135893,5.618606786841505,4.5376832495151564,6.554192390925063,2.627613159298105
7.788777749066586,10.410901811953254,1.5914734892844336,1.7401699817929968,8.293725944693115,3.827073748115501
8.28742155514494,11.4910780849057,8.341015700252669,3.0111711248643034,2.0085276518170385,2.940263855046982
6.227951390977199,3.9415125296215354,7.4062410352109085,2.8752138524798485,3.686083278874243,0.5526327497329746
0.23867041613729081,34.70533440373635,15.123414320402974,20.801683849073655,5.204136285914989,4.189471399284288
6.998178500317896,13.114005106905044,3.977449244785292,8.080374504016817,2.7974059840108407,3.629534620959979
11.245987304072932,15.02921424653636,1.1211708170719332,6.116451287956279,6.180009042007601,0.4928561990797889
6.084555362837162,6.8761933626293565,5.081589122061874,1.6401298445121957,7.271883630086566,1.9015399969928126
6.985328976240036,6.531027459749112,5.010893208244504,3.549187208742299,3.5184205021095045,2.331620391617578
26.114305682430818,9.186429077573663,2.4005999620759364,1.27249131341278,14.176010113447953,11.165165867898205
9.414200766221173,6.587889009739054,6.092146227203846,3.693599972139758,5.34588696077827,4.901923443712067
9.099571939249222,2.9137103935785693,4.3863206257664205,4.604493577221561,0.52356562003151,3.085195445771843
11.958059656755571,8.740126922160147,5.877169504508014,8.08265591036856,4.285539710851584,2.560784525891587
6.149377955646509,4.16577593563517,0.7315256059913988,1.4936334977676864,4.281584556562014,2.102457443858298
3.371191197251106,10.890916008605755,13.342870166009765,12.410670659761484,0.9936462702434324,1.0072911395011523
2.7246788009113567,9.196082385881496,10.30043878533226,10.379914847640412,6.012232361382505,1.3202881938032065
0.9193975282395671,3.500270810502883,3.6146483032031775,2.161902925835941,7.286104979237013,2.518524753477629
3.366065208159306,1.4509221387263758,2.577401702202189,1.0806345784727887,1.9793014062352279,1.1131725094460758
5.982878784169143,1.4767610926271248,2.6389537351423313,3.6706321158722828,2.97204232181697,1.3180807627040494
8.940768366070523,5.400039937447991,3.6376995460095913,1.37448684731347,7.8121337894706455,3.119818385596963
13.914023844690698,9.866853125691744,2.3074252885355278,3.023952118303427,14.524032330295757,9.876568986506044
4.1008170459558,1.5606855066364347,2.1220301412124836,0.5778951500042159,2.819080563340945,0.7785887027499434
5.551322233214552,5.949698757368974,3.2188793122563255,4.168776273219292,2.0165408978763573,2.770115153817921
5.789820283979295,1.745767538548104,2.3326414892357685,2.789801778103654,3.750488352289684,1.56697148919963
1.3224081324695063,2.7545560657142474,3.1945661107135916,1.423234415041843,2.2995880525244345,0.4838313647554011
6.446711515918546,6.757007148780915,5.648036217454083,7.509181294234714,6.961773552198783,1.112512476260425
6.565955296544411,1.1906441935978387,5.4121394022602,2.002631786540114,3.073031243466431,1.5070409084064915
0.6673636568280245,2.0885505721333417,3.68755784792324,2.3130656852312597,4.674516602779684,1.4493023774129676
2.64507040425102,2.3812532930849875,4.266062386314874,2.794054613948307,2.8750112088960225,1.0917754582586092
2.5794584466694475,2.837547922635613,1.3441506189015289,1.4671412014781295,1.9250592945568152,0.7146258456061776
0.9318909788804511,3.842613069738906,1.183326127839374,2.4232471636842767,9.34442060607092,3.4338344194553283
3.1028492603697426,1.6797474224642173,0.657315186978042,1.632467408025079,3.559628466380098,0.3287087563683302
1.3490451430110464,3.008801978154764,2.646733621306991,1.2412050529591796,0.8391628507996133,0.9706786358154671
9.223901165243346,3.610787925500938,1.858364580849177,3.3427625353871515,1.662300299034707,1.7675907072849426
0.9485516854365004,2.0984787023386353,1.6298211174913901,1.7922294609263676,1.4261073882665884,0.6027917263254917
2.125863713837584,3.491092673306889,1.5976513907365095,4.024102464968283,4.882836832892016,1.6149758009953168
4.6429606107069,4.281530432251456,5.447057535907786,1.1670139333754035,3.892984624968828,2.4647319186784276
2.348098724600401,3.296219530564681,1.9873555293609995,0.8254964479832756,4.018638949876688,0.8863194017643922
2.8572778146847067,1.1651185421855113,0.691795798650803,0.7335186276381185,2.389029394268181,1.0736013134916351
3.5784716673967356,2.1041271151640664,0.48856661686211883,1.8011494855736057,1.6204206805488308,1.2346428727432581
0.6317661022873752,2.4789535143228343,1.498107318211973,1.0350762885763602,0.9185008665092996,1.3258230572633702
7.730845791484618,3.7808706386864195,3.6636567535728886,3.0827514212570164,1.9405676677235184,2.471724098199925
0.7884091221621579,1.3472664208633598,0.26740335803482934,1.4217848481631195,2.3962220460634818,0.09751657371919704
2.413055126939266,2.916675873117664,1.6787695845028165,1.6457730666763803,1.3107752828158425,1.2816330604145278
6.040943132262985,1.3635912960754706,0.7944721571234917,0.768737793483182,1.9094339508430453,1.874986439314617
2.1169585863330056,2.941480260404941,1.7086002009052572,1.3948112316385304,1.0450331812380578,1.3892145486877157
2.8990827683994618,2.9927762188880305,2.0094946492417516,1.6560969899839708,2.9712215172076526,0.8289074752473737
2.325079318580675,1.4701366810976026,1.133041960857135,0.7881464400801117,2.5389809523961127,1.4267095249146384
2.479286867175916,2.2111992399124256,1.2708998614897584,1.691952245624927,0.4185662514890464,0.3464795737196926
3.7976786163683345,1.7825353581566865,1.0639765260331735,0.9718817493557422,1.6061249891462601,0.83083221052963
1.3397600069446916,1.497183564560612,0.7196454753694728,1.2541649618789157,2.3985235627955226,1.2660720940366559
4.245133388269964,2.347011963007144,2.305747611055178,0.6952880288959858,1.211186596834582,1.1122508195848557
6.145537003011545,4.156413089953621,1.7719912744412272,1.1215958648262343,1.2110785258718046,2.710099873965583
2.831440701375809,2.863908068053242,0.9465239708713631,1.3795485760738961,0.331154126066171,1.2169315759298818
3.9757402229025414,0.7141393760684646,0.6181203702975212,1.2025226904359965,0.40241912871830665,1.3372986974540797
0.5680870677548617,1.6167696111202854,0.35410454809054903,1.3084725654630371,1.3333115620889338,1.2214804747326138
0.9569623381728594,2.9993744392076214,0.9207863684074425,0.9315979763206165,1.5701567647029502,0.39626627179563856
4.009792857534005,2.04647013519912,0.9572136236514296,0.9820418140354896,3.2352812160815136,0.29646645556204565
2.3691597619527713,1.2555448004062189,1.2290492555759707,0.907221438641889,0.33884791501678907,1.0586078504899818
2.3654721389952136,3.5050537650009597,0.9340042541654398,1.6896654719066877,2.3288271438761257,0.26533300946651156
3.8970242359181304,0.6719443468567957,0.39186061226466934,0.6373248901719591,0.9670200095431771,0.5937358737356848
0.841513750229725,2.0857588159692195,1.399897811030688,0.610706527726916,0.6588411039929459,0.719275420100209
4.54267800458453,0.668701899401918,1.3969986672180565,0.563536757781584,1.4174902158043932,2.767344021609959
1.6005655639424263,1.9517349892015365,0.3273171635882098,1.3298695518960215,1.581294355134564,1.0988262289885864
1.6879026056453943,2.731618017453362,0.23017913987476635,1.3257003743449578,0.5383381416567973,0.6620694446353947
2.7035714574465075,1.4077714384034643,0.7764772721877404,0.4767419785694685,1.1041596255363972,1.0540953928438876
1.0937056303907415,1.2929631600352438,0.23720707709090233,0.5614670519248804,0.3892158379986867,0.6578757820087731
2.1369817557497988,2.103893709514693,0.5719119972745893,0.8796478279836017,0.5194123148394255,0.6025862870790624
0.9548272039403876,2.2642709970391515,1.1019735055897346,1.6976851599624343,0.865571997664522,1.2867380058086386
2.0216795070446953,1.2862624885883651,0.9004324020734967,1.0457136597299832,0.8022095324256306,1.0816457101483852
3.551083125953381,0.6578120754926686,0.9478808947577962,0.9955285282501082,0.4309350673226804,0.9034762894724626
1.286344465617406,0.9370731479493265,0.3043002534570112,0.27999800124607016,1.0898243250780015,0.6447725439332959
1.2595745203750248,0.5823050318650047,0.4432549516654026,0.6820426023627669,0.48100281095681496,1.2239301112035903
4.483228741912398,2.7677187604599562,1.9446229837061697,0.7164791791724485,1.129881198173216,2.4774697179213145
1.214722434674727,0.9470867539304002,0.7969268582730545,0.5830689066802508,0.2780140869394727,0.262033155890895
1.8532816300539992,2.3310477943435126,0.11442221026179401,0.4803377731123676,1.513944553044206,0.6126854904093343
1.4404995076954987,0.8564197238541497,0.40552132109701694,0.33318235285853387,1.8091810455353596,1.6053039216300642
0.4793660999184859,0.4107253288561988,0.3781752373459794,0.29982361661208073,0.4364077460973687,0.013301641782787022
3.9625582391080596,1.6904751461443832,0.5688807629869319,0.26965827014056104,1.0906273758288723,1.346047473978238
2.212731663504401,0.3951313954021785,1.0774371399470417,0.7271787783810919,0.7272385419918754,0.45613354776341153
1.4583824402908543,0.8529115344019833,1.4132360690385108,1.1599654053183686,1.1585232259253047,1.3760236158772232
3.1679661551212503,0.5996532487728901,1.1432278258241702,0.9360630928895827,0.5578445223726483,0.6518684642971341
0.5711946032387039,0.9850462159736834,0.22670967488087973,0.5922318320021869,0.4245773237686246,0.7383142010424654
3.741920144769311,0.9850320295298359,0.11830903040186343,1.030276956853606,1.2606949448338918,2.585627363394597
1.535566511326498,1.6635294194583066,1.2947451253110527,0.6680468855577356,0.5824697377756618,1.5448925858901437
0.5514474194613508,1.0010473881183377,0.5756356895590043,0.38594387757249493,1.0878159584822942,0.17057824294475024
1.401501535690204,1.0805996763672572,0.9397265977275084,0.2855853899722234,0.6237363949837297,0.743146535679401
