Gx,Gy,Gz,Ax,Ay,Az
1.5569889999999995,3.7140819999999994,7.560764000000001,55.556,613.0939999999999,19.85
0.524138991470915,6.123132160331587,5.895578398875623,1.7761381792615005,2.359250967953743,1.532935185274769
9.503099476708357,15.434725278488395,10.070510889232992,1.897834239399249,1.752300787848584,3.543252830658347
13.551425496253104,27.836122904513502,6.745594425945416,2.0323432997549244,2.085914180352236,5.405249044534383
21.31215819642821,10.380153730319204,8.55758420140539,3.58669472946771,2.6530197229020485,2.0207798151335474
13.388889918278691,26.18381143372122,7.763308361979471,3.8807178814275742,2.8678306120046106,1.9653307045122956
33.0259281566233,126.40465138177058,25.8680060631773,16.749115310897295,6.0272220722319245,7.703008377860736
9.150731687468358,15.156145268391876,7.929397791496668,4.265665049147058,4.718653656117745,4.7271850898167855
7.071874633186562,30.778618687165643,9.116701196362007,3.9391948275708186,6.135899676555099,7.592795469621982
27.48071528702672,25.715746412380728,6.936481311012802,5.968161293362932,13.939123772844162,11.275242864332416
21.322516225403444,11.115499022092662,20.694037957809986,5.462505037236067,22.828003608585814,12.715862316552558
44.48621686426594,36.481272461705075,30.297513369789275,14.173305437952266,53.37934509988982,31.811266314658866
76.0689312742901,19.71387379987022,18.84273715231107,16.11028329831669,79.05188622577637,44.36489848288259
20.968322455527098,17.55071286067628,15.637648964855838,1.7787035457279565,13.899677180028975,8.14651502037931
4.059295480085347,23.405047073206507,1.3056834020753179,1.1238403094316018,7.418999117574445,4.657068457089442
11.777868329546859,26.67138468071566,12.533779230216263,2.879356933888111,10.171348853337676,3.225521449173643
7.314780787251739,11.120399204003702,16.423422348602955,1.7226135412353811,3.2154910260452803,4.298089667437219
6.7194242764452525,54.55086908283384,39.58426064387678,8.136833878493192,11.258564597713848,2.1376366547390324
17.69188081807067,46.85507614660125,52.43227629329227,10.38865184989338,7.0248472050144475,6.748065619082792
5.2103501323956465,22.83618934549709,3.8230199303332624,4.1767651053996255,4.92209153136854,4.111774094270708
12.28525637763212,23.667603979216576,5.671736983092822,2.9254079572797087,9.092842473179916,4.34160658681054
17.67167700250882,11.505190843893084,2.5697405034105327,1.381499340773344,8.080217091848342,3.489785047998966
5.317455217002113,22.76493644384605,11.97486427906634,7.007988223841765,8.679697964770567,3.742519367540953
28.490726774508214,12.616508527103576,23.365006190750982,7.804105061811099,33.22176437144688,30.86167590987528
31.562751400354617,24.702883105062934,17.58301081302633,11.247490975301933,11.742880529016114,18.113559508321764
16.161128210917393,17.951626928943654,5.090918999040955,4.895878316692746,5.944426854481767,5.645974481249779
7.327603437262663,12.20117516899717,11.0048274616996,2.599508738984575,5.2494415695959855,3.5503004183573146
7.648308797139484,33.367152963844156,6.884726246969076,8.772099927571459,4.201638097822033,3.086283814989645
6.357485212657214,16.32414947465583,10.251199641405794,2.7608882270178294,6.436105696704818,2.603942695079294
15.921078121430716,16.40502939287176,18.529437519475035,23.214641993772098,9.512835529413518,6.166490673831401
24.883012276925857,5.3341778557926585,16.741009312364177,10.19312140117834,5.964739644504322,10.417778321474161
10.296893991586382,26.89598588501136,6.9869300031042405,10.162445212990454,3.3758265715614177,9.835859268937307
10.134008029015295,5.606829570170875,8.984988267341661,4.698395590210604,7.8036468541748185,7.137062738784193
0.6235283363184182,6.717729624348894,4.116079960084847,8.551598670941416,5.596309502469331,4.144427442320085
13.096882723580064,9.782265491718263,4.059171498217326,4.74375256983686,3.8046672075493833,8.804945589643108
16.101431592375466,28.30059532778172,19.315882321546205,15.806279496072118,16.479164867991695,26.438516141550675
4.050489697010469,6.489002564376722,4.006057687057494,3.6862491391949215,3.426666525479602,6.369558312995009
16.05023727807343,10.712124452338227,5.711801907813719,1.088448876829173,2.818078247344992,9.410510091424484
9.130276666977437,7.674470444919944,8.5676958116528,3.3790135559689713,0.8213145111392487,5.9343564247934335
0.762874717725927,20.926644519412715,6.509224269269562,11.055683373730583,2.5428595744870934,0.959728412438924
7.537150794396736,15.066208516258342,5.240173376818894,5.188245936415896,5.683395190942964,3.5124441033747056
8.91835478589578,8.157301270516076,13.052498652175338,8.567599836575248,6.5322392373036795,5.782646339382304
12.390815081253805,4.224034925514278,2.802778292364784,6.787906265285716,5.304900291408633,4.396721201731379
8.786372460955977,17.80430507627619,10.137544969086404,11.81763254099425,7.9988617835337426,2.914934739099729
5.550283369958758,4.97150289990604,10.193082851672427,4.4098181725929475,8.885123502864339,5.171281389817798
16.595731745128774,15.2395256664636,3.7495979376402166,9.101156563554825,5.032760022056903,4.361313790120698
18.3640048643567,9.219684489267859,2.1986016505905623,6.112595758988909,9.661762690728072,14.238508981269687
34.11006960806035,20.75117725340627,22.290578905755083,17.74422123383709,32.74045602485419,23.5716090066891
2.949808061093219,9.205716333557882,9.231218058709924,7.094584238926189,3.4544932180079835,2.2611321443597485
8.175786878286576,12.637318614993251,14.344965853415044,9.63194732359006,2.5662730869148715,7.184207532627444
3.004368048542535,11.787478985912747,8.308820139444208,10.53353014558129,5.664565449319463,5.078334109506117
2.9231088587336247,12.96522722450415,5.93917753739802,8.865529347533641,4.0411673220427335,3.627014226422338
19.517746362700233,28.062642597170466,16.19756200247837,29.72476555014499,10.567739004713872,11.853333650382398
7.109522065458235,31.04272178408491,21.626154271613068,32.51193575459433,6.354828680795838,10.01409381917926
8.106788391534048,11.075001455590133,3.645198034086554,10.793576790581259,6.4628864597748255,3.471231867732266
5.46552639760821,9.6100252389098,3.2403033620615624,5.607071135810508,3.298797768278933,3.733335085381698
5.506386435226881,12.386946520594632,5.736932200877476,4.304109715087217,6.3904609861997255,2.6036875781097613
13.280419554683215,4.669586996374529,2.8137185298313954,5.273549843801936,6.893846268204117,3.2897861126530095
34.11640219371263,13.787310820057346,14.799323861409821,13.149829015102211,20.50514563021239,15.237649713614804
35.37253520312493,13.834113482542849,14.141647609348741,6.637441081643306,18.5015634876063,19.944078233955302
21.93932100641062,7.811598534043981,3.2862870905554873,8.775731958555888,9.87278267699784,5.67955214586307
4.750345279651626,13.935684028618088,7.163149196211938,9.607936503836447,0.9109934582023798,3.7469933577082406
3.153530464829074,4.866013606387135,5.277221782706025,4.713857407974337,3.026554003701359,3.2677820771858204
1.4250836720546667,4.055777080938901,3.1862003012876325,5.757856904414917,3.110111178753624,3.9123122964774
20.210553781062995,27.617271772235842,12.655883023892319,27.01141376073994,9.906966209186557,15.27187081271342
2.9942580783870976,16.879108605005403,8.493861780258834,17.208038031124175,4.013916174165282,6.995769053808139
5.589083995587483,8.07795381934873,4.637136496438604,7.214409465396777,6.000822670124778,1.863690464789957
13.221932389715509,4.352453605886405,4.668720826516731,1.6631975214974037,8.90849099092014,5.617579249100384
11.606420483005913,8.172706931193948,9.012333644497668,5.187105696873816,6.215542456425948,2.0689903302620354
2.925604172389001,1.6707097754332638,3.4250730839271983,5.341655387802405,3.7339495853537428,3.01989782379139
22.775422713742444,2.686062288621444,13.267648794771494,6.9515459303968745,16.984120508614343,8.785035309707094
11.980086743399076,4.283056922678971,6.524158479428999,2.1592638930848644,2.9536560886375343,7.99857955915329
15.913190568021538,4.102735562146462,7.9449247682162865,0.7157863737482751,7.583750279994111,5.916650407413303
8.522275903798636,9.229737373663431,4.83173341899204,8.314859036616106,2.1433161867200767,5.6707890103188365
4.795274001076949,3.8636214266377054,1.0491542656030444,3.354346434422782,5.143901417986392,0.5955540169291976
8.245330573316165,5.8915928041500765,1.9249229574204496,8.034075354487264,2.3772735106754803,6.3684891378147155
8.99256314951889,9.92814790975112,0.8009834461715261,13.219771651520327,2.8179721149841996,11.210745032211829
4.276750134055682,2.650529822262414,3.560634719469222,3.545423962132076,0.5764660929883627,3.46249399490065
1.250230466977745,6.972276089310262,0.44593282161013714,3.149434133680399,1.2266783428239418,2.74914687295618
5.053949203874804,4.335256878882016,2.5197632864287494,0.9720066302678265,5.833437647193556,2.198017531479447
5.703372386816105,3.0494781375382276,1.5965976295808315,2.354915710473809,3.0396367010772383,0.8336893453871675
7.717191334842348,2.0420716401534587,4.018646265690347,3.3364162253652947,5.531439527484501,2.497386814048667
10.965318847077949,4.4839636953463335,5.0925972335525165,1.9388468860456145,6.71789999586716,3.375298649033433
2.469977701334713,2.172884399407513,2.767686708826337,2.8006104110623373,3.3942383785383927,0.9633067248463087
3.486127143788863,3.726947327659231,3.6668568359311013,3.667078679743474,2.193172788502852,1.6717661832656805
2.3499271205709285,3.2445381662794603,1.8723965816659522,1.7938624987071072,0.4964893952003831,3.9650432101189854
3.808198291536841,0.7319454009876173,1.3738348249321504,2.8848994069161638,2.8064255983787945,0.8807951122639577
7.307726106021104,7.909731507384742,2.574548838253847,4.672227952994193,1.2106013158577458,4.73007372585644
3.4533413751515294,4.8597411919662985,1.6772342582343442,4.6905810344605205,4.51557537053165,6.114818026052101
3.6989644956184016,3.892645929951952,1.0056022490672836,1.3423195245524226,0.6181142435650616,1.7279900724959825
6.206422674675733,2.541386052203867,2.6639804008272123,2.6619488638612334,2.560540006193217,1.5980327621680352
1.3071382797469304,1.522367181435435,2.1725145034407225,0.3849185291529923,3.3909349872916037,1.0807664152551713
5.1959542920562205,2.5465589135692466,1.9094754061531856,1.04628050079902,3.010584743419136,2.0344946376172697
0.6983727408298934,2.7265397498619377,2.4702339173018024,2.210637382126487,4.3756718560736925,1.592247679643709
5.036082074261979,4.9135934127971055,2.5864007260132227,2.73671288760693,2.4225788132263184,1.8810512958857706
5.745410498716667,0.8024453821169674,2.360051647451029,1.9124909905055847,4.057459356416911,1.7761582527248574
2.9124521274299537,4.50732847469145,1.0894520286908886,2.6213288503239967,0.31926057872727936,4.132507918994743
7.849711599237876,2.5676977168488166,1.8917740274207933,1.2632710955262558,2.551588337639736,1.74238418199339
0.4842695497218334,3.9378197354512636,1.8860964899530637,2.1804073347849515,2.008287785890374,0.8205376969581928
