Gx,Gy,Gz,Ax,Ay,Az
1.4244990000000006,2.9200999999999997,2.7464850000000007,19.381999999999998,503.816,11.246
3.843914108428669,2.320012324513859,0.5730119567832064,3.6760205763722684,1.0896416763940602,1.5094913419912528
18.74894179641163,12.71902512735614,7.179921722454138,4.40110801211678,1.517227777118693,5.532707094120998
16.3070178961269,35.246737901943746,0.8404989645908606,1.524192495001881,0.789718038273848,3.685656505255145
8.355419487527186,11.009358219010624,14.13023434542127,1.5096348359818792,3.5561322383785567,3.868439978044235
19.03287500005603,205.03723792952135,42.94439442168544,16.896491817351233,2.2260331306308356,7.256642055573927
7.72246596157458,36.96564442340436,10.43410134362851,5.892112560982468,3.491477690421865,1.543940979096992
26.326983726225375,25.602417199880104,11.712154188899309,2.1836241669754606,5.390321788391474,0.7706086150605679
17.479448650369662,21.544963300988673,15.937076674757671,3.913212420821518,9.790975131391267,6.721930129574622
9.71086766149538,6.61431937516571,3.1562352831704703,2.6423742849277954,17.781428786369947,10.991590305064092
44.057793596570846,40.583709150514196,6.017666948511423,8.80658951172686,66.50914116242693,46.440136536558214
22.03484783970154,27.46871217012513,17.011741855152884,7.519864683698551,37.99348743946647,31.33361870412238
7.847235127815377,25.53400195933101,13.41434305187105,2.1921984104725167,11.74062473850796,9.870486176591994
2.521793283948496,20.278632141301152,23.23820436433628,3.137094857281002,12.134029075068987,11.784259008954606
10.811562453835947,12.519131180842821,30.064560598888608,3.689352961326934,8.365716275354032,5.852370896752359
11.510018720327487,15.060885628247009,47.84746373298406,3.4912832569851733,7.79238742778663,7.3918078390477175
7.853632419159895,13.10317593382867,65.46384093638945,3.0971802437060005,11.698571417525526,3.2140699955083627
11.041627523479432,6.772344683361384,10.694441404653174,3.200033103646412,5.150290056055771,3.316431772312207
5.902839818914072,8.049423467614018,13.72730375520214,3.0220812342775014,2.8431862700019384,3.0019495477493185
7.009549808090131,11.845412879276733,6.704523071559555,2.886504372793245,9.980358673685927,9.97566814996614
7.049833366305708,21.89513271081764,8.893602950236314,7.502616024518171,7.536801351560584,11.024619114960702
9.050133500555367,17.215602522413768,15.890516349460771,8.280816101249563,16.859939537876354,30.056295502885067
4.952552482036041,13.62304530120724,10.83203489862666,6.494809048770074,3.5120578545671517,2.453427142875759
7.4480539751783885,25.847096844737635,10.287681068008071,6.287527277906387,6.086402844259338,6.069552165559052
6.801771590566923,11.742899125330426,9.402294170276544,1.5893919804880208,5.273027189677256,4.3985997872421425
8.784530947606003,13.549067013270474,9.328201190504108,5.468669627910212,2.8983550700785328,2.607510498251619
4.287025287545813,35.21298586676726,16.487788121903346,19.189491003822777,5.286276034213307,3.4643526584035587
3.873549596990144,5.775890036846671,5.909913090868124,2.572392490238879,7.271165894574325,3.6407621446470615
16.707953612958356,7.7801575112367445,10.413463016897317,5.029694532456431,6.906099904704382,3.934667010825052
2.4030805724644955,19.890976859223578,8.703513032381068,9.236388188453523,5.070832333666474,1.4603042642873338
1.8280816535187947,12.86816414723718,11.315541980074352,5.81306833925876,4.877115147188529,3.210357627329725
8.772348697436458,22.8807877247644,11.959429886711387,11.199440253409744,21.915679787970358,15.560671070339598
4.468469644287986,8.496154439968878,7.048966736324729,9.331312692546492,1.4648418481253793,3.081354031655762
3.226564396853158,11.689315979500499,8.408989969840547,5.635030473374434,5.898554176883848,2.1968337216668776
2.744060984730738,22.156397350245584,5.354128054553525,8.977587084168082,6.8848579103622365,1.268007005835989
5.858307102935835,12.027761241723939,7.500183551889434,2.926807130890523,4.379483376798575,2.5513408220781333
6.912504802346036,30.555263408563466,5.151830163407578,13.582353135478051,7.405914668141893,2.3131069066609817
6.2867009855386895,6.675595935267848,1.7078623507371087,6.793125291209562,10.239127635213334,2.589089461899004
6.657991091082313,17.985202383595617,2.8150334473649554,8.092683888277726,4.287392052507901,4.606279789732086
5.416639017512687,3.0189860693409396,4.496921310099056,0.6089215532584721,13.058470917191118,6.671928577133062
7.129309398641647,5.519998124911973,5.417078733058187,1.7955436187392606,7.801287645931778,6.899385975042837
10.002561914067059,6.643481130942443,4.7054455026541735,10.741802690086155,14.216676336202855,14.824651098686513
15.982071167374746,23.398599887224503,5.081980356896637,8.004791008113509,21.029789520656433,8.99945299464788
1.3209749793259011,2.0844382676416187,5.360614223885269,5.568480659436097,4.442234442475162,2.23448909473536
1.5543491392029263,19.320527287854883,10.524866559181953,9.933728879048852,8.02765568207873,6.463763862778783
6.575321754546881,10.861127866523438,8.868920336978512,5.568365572914782,4.661328831766545,5.253001854937158
5.136308900458733,15.74802567331242,7.975721359811429,8.469523834654959,7.868674273352568,2.790239729964376
4.352779784661593,19.98401792185132,9.71297206336625,13.249695408904776,6.488370839148663,2.250711326782224
2.7490912061104265,3.244148177151106,7.548700341682007,7.922421779242356,7.934630314164736,5.170061530441395
10.643803958968014,6.632917874801927,6.7296030278287775,9.546254364671347,11.99805786243132,5.827686083885066
9.686160558008842,1.0286629492777564,6.884655212681796,1.1778337444853972,13.163308387183793,4.4547499714812675
2.185419842983657,3.3138350309640123,3.991323407430236,2.3728595344613157,2.346785814224999,2.8133866648023824
19.538212001270693,12.703168365098044,5.300609169036825,0.6971824747270959,23.431565596841953,16.2597580428311
2.5458634149664374,4.646732357034604,2.134002750673778,4.7587108346029305,5.919476082465684,1.3172470758006
9.551712488989256,5.007396002000505,3.4282957129606237,6.6897691320570996,11.85112436915656,6.855349133709673
3.3165399633766883,6.422811750567754,3.971512256020487,3.987299057940533,5.399176484954591,4.270243099928679
1.7402138910402383,4.55621464294464,2.4775477052281185,6.494448843366811,4.1845891785092935,1.0428308883456756
1.4836798182258781,14.745854279652232,18.35129114528642,12.244272032388354,6.1208892358235385,5.633688714247522
4.739296311002169,2.1956721176213905,6.816765822470912,3.9184781066146517,3.832423911751257,3.9571475043687516
5.118744255576967,7.2945901272387275,9.359148688944511,4.545730153728781,5.567431203351618,1.9599330913598074
8.395309994231292,1.2477197509246778,2.8699957313368305,1.118192221278303,11.664915122881679,3.8416235467676283
7.14504065605852,5.678104772467817,5.24707101782413,1.2135487069341087,10.534464253857106,2.9558366933363964
15.768168477576715,10.995797007011708,9.190740528165266,1.3305927199088243,19.708319580307872,11.939968572640902
8.389570612416385,3.9246561175770918,3.5071231802620093,4.236967550776847,12.586235554994934,4.377556702088924
2.3508923963472848,2.843305849721991,3.739687613987613,1.6312826360083998,6.94373706810582,3.53550457785747
2.9846928515414866,5.978608522238195,6.248164755295535,5.290439599646782,4.755484417717428,3.281032541123959
4.0453654772826715,5.7916726328254295,7.153548075945716,1.8354957785738995,0.5616795343251032,4.181922230082072
1.0846947914211162,1.9221865708768602,4.85287624746393,6.84898731667299,3.0352201656057796,3.186625223093228
2.0334904931544955,6.239629488241552,7.251751799865708,3.9322829957123706,5.469902552153382,2.151032629839738
0.3424585437640389,0.7641933408031358,4.301974263260723,2.6440431434360376,4.540908016475397,0.554878741426082
10.640726010694117,2.444879012747348,7.365484563777852,2.821980186801115,6.705889870571203,5.143553171113565
6.8761342741477804,5.781092610538903,3.310981973843459,3.018232817143199,4.918391245010879,5.195868758213164
5.845360842364093,2.9312112906198093,1.620360344124938,0.20295616888034015,4.258447355163973,4.956616834874903
11.570134717019274,7.596187246157477,4.636316036113867,0.4754536925313424,6.5655741803005006,8.788720769324174
2.785814921393099,1.1443128699985248,0.9052789425370703,1.0191106587421557,3.397734373747455,0.9409290744283437
3.5932630014366187,2.9147780189268877,1.6477071427870442,5.659078574142639,6.301710082553118,3.820138838948591
1.5089436428888268,3.140353763404649,5.394861210651211,4.715532962961736,3.0584659926421454,1.7767721365225722
1.0499449356674617,1.5273810503366536,4.248549051651638,0.6244367556229602,1.2301393596023558,0.08847480118295818
1.9866088579845855,4.617017367526751,4.92699486003867,6.83777136579421,3.6528337277529044,1.67668383778583
2.668438365387332,1.8020240708411515,5.064691939661256,0.42378290572144556,1.0054387734076204,1.3397282730654148
7.729326778383294,1.203301500208314,3.126112531687787,2.7511005068428664,6.448870098633171,5.351417246472592
5.9138196899044,2.6362561264816424,0.9051015340871978,0.37249966442937854,2.7318587079129837,3.0347217335367
2.4874599977279623,1.6514312285064126,1.6236593072038854,0.43091989187803065,2.117149645376499,0.8964950999503944
9.832720572457006,4.432531563424861,4.825080733877091,1.4544908519043744,5.894964886496346,6.584646041312588
3.296478139307758,1.418433319860067,1.7091538032748443,1.209845580429556,3.467424869333,3.4928372910453196
1.2671021413317791,3.553258373586942,3.5944612474868185,1.8454729370757883,3.772606339478887,2.404672639054026
1.9253016934655436,4.707043650081408,4.675858844472002,1.7470349392916762,1.156322449712593,0.6998413428754918
1.0804680579820367,0.9055809106919032,3.778518602475834,1.2348968946907368,1.4289464791097983,1.2875953813662524
2.629571220990277,3.781850809222221,3.8655091062298887,0.49863369147969644,1.532057635722333,0.6588685844210078
2.163483687178904,2.105810225871358,4.3196883850689005,1.9746942002314538,3.093805607746331,1.6299777308317331
6.825203744687814,2.639651369370293,3.3098735035587694,1.8896414330076263,2.020944206757446,3.214658745835044
5.425655383439842,1.4316971631624968,1.3509087235489736,1.6006815088135844,3.5362737296806697,3.513659950889024
2.82657177016811,1.6892655136690056,2.0540831774702153,0.8332275642937914,2.8477682132873827,3.7365705414550225
4.165883444336643,1.2822675938644805,3.458770840456649,1.131391930745309,3.542228294533556,3.5857480921042675
6.184900571716715,3.7306907477702795,3.0787598669967418,0.7282280977260412,3.391930841482416,3.650887201264054
1.6770999457858182,3.634900139065875,1.5081713866339972,2.285906128358164,1.0843697194832764,2.026817513187999
4.1652236585798645,1.0672513887204356,1.5437497530303765,0.9637788948807741,2.4938829287496915,0.7355881566978942
1.6121320770308194,2.5407224942519955,2.5598422923742756,1.4953254374050748,1.9459337626672368,0.5628199879561299
2.4983951672252793,1.0864071821304555,0.9246596025374335,1.6077181415712967,0.9221000642384727,0.5234219569027281
