Gx,Gy,Gz,Ax,Ay,Az
14.816652000000001,11.361864,4.109316000000001,4.814000000000001,446.96599999999995,37.512
10.085266416380993,5.52745927709866,1.2341288352073605,1.3424643369913722,1.1327908945905003,1.8045349229153862
10.554449173597046,14.402446792306248,3.085991442284224,1.531610766071952,1.2963374416620468,2.600039285054735
11.045214523988546,22.893873822093965,7.001512071227283,1.1878003033209679,1.5304669661735815,1.7419757727245646
9.544551766101605,59.560704444281924,24.307996590871007,2.079825452866717,1.419034743409489,2.8489120482717376
32.10030177688451,118.9177862497547,32.8818213767858,12.288901714501796,3.8365592354676354,8.15196438911832
15.370114588224912,39.924392711857294,4.850815093217,4.775050260319085,2.6859719478534214,3.0172710448705105
13.315366873085662,29.899448495326855,6.3051442510975475,3.1379681687363012,4.570252163621529,6.312848368536012
24.53176490010237,12.676053773535564,10.37189584324846,1.4889404834915942,14.329567461474326,10.702270167432513
64.61444000869959,10.575463999495902,6.690526205975603,4.571546007445688,84.50212897664574,57.75949479765607
20.40546224196116,26.837502078937995,21.752958422584676,4.659826015554056,26.91160629754936,17.6800916828557
3.628595235933533,14.4132579256629,19.07442969521952,4.313913101162577,1.6017676524168785,2.7176417621268496
2.3596118749474484,15.81615530190899,22.69069958990313,2.7885922341707094,7.780550168271583,4.407995278229064
2.2731029588371534,16.031094231914576,28.030339950326304,4.144953696419493,5.726111846325065,0.12971534490088882
9.328781633994877,36.68499194128596,93.23262723952564,23.81364263134681,8.431279215356751,3.510690287748189
7.68953504518091,14.928892414840426,17.94946185040049,2.3112378943897385,4.366867530284905,3.477483804697845
3.883501949414569,17.09544976886793,14.13027276113714,5.894639795932937,8.620892466188423,9.035578235320514
10.22753817822759,15.416176701419536,8.81041446918064,3.8542598813860733,6.597131430487557,11.986980459876055
16.4872327198372,38.47757786660421,8.33063115755775,12.138165604494024,10.506941174590775,30.88889659764441
17.083990724101966,10.38354882169631,15.343589534302756,8.16666537969605,7.468459178055558,21.016121629157915
6.606134703417807,8.03288738357346,5.976624322900683,8.893191077718125,2.6681088924229237,3.773189369389279
6.591469744792552,12.656573144562943,8.116479621307013,6.450638895228351,1.2124950418351335,4.950567616055377
5.153788198087246,12.684829042320777,5.602852126785095,5.52212678037246,2.284799284625535,2.716540506700575
11.978839553506292,56.03045231562064,26.92322109123738,41.69771439731043,3.5279237449510332,5.774881839920426
5.118955818004275,22.69180151125267,11.770247170963179,16.082293788258987,2.8942043038510343,5.74242797032222
6.222704346416832,15.56665119039015,6.87119665745441,10.07664428575657,6.326910779988188,12.312298916172173
11.27194369185829,12.191861052166606,9.617202598160146,5.211623728068621,9.97290822828041,12.458865938167493
8.307849075488885,15.932960349468578,6.44120428059271,6.991133235671733,14.441199424878736,16.318363081742667
4.420761831938919,8.042158522929753,16.345037624401364,2.6813901569545284,18.096364135755312,19.01708023656575
2.582030624807988,1.8133257074757483,5.2582625039194815,1.736642893362058,6.365176834748956,7.492834286313821
5.860705017316489,5.7575461832072925,9.640506190887834,3.2095081455073324,4.987794632410552,3.802614726417449
5.515860407250627,1.3079303228550563,2.76568396168541,3.3660393587216855,2.4624055662571123,2.6936609771784332
8.668272660676584,8.795204700268844,11.881665219512728,5.934187112713986,5.431398765235059,1.4442833459433586
3.35532302155441,9.20685575712409,11.29263463735091,5.975682734317207,9.441819798470572,7.117568891837359
7.337587756877184,9.242934348704607,8.400036334361523,9.458711940334021,6.7446850941261784,10.068785943302382
5.2089592371764395,2.189916690212405,4.643689929417433,5.1672901561217754,1.6958524114691151,5.281875823730061
5.507120371331832,7.288738971551891,4.0641504393288,10.807165102724444,6.279490127426933,5.40188351017907
20.844778782342136,15.038448861223285,7.965855955759642,18.715635933856756,3.861193675387006,16.074808314412316
5.120259512503058,6.31114070165173,4.137082542031068,4.42206229029287,3.967235449382145,7.013582362365926
2.5067683150448254,6.856949312321667,4.410129770808632,14.688144778984386,1.7327764475536502,2.417054861593532
5.931362980018798,5.7797391129287545,1.4457365217174363,9.494899359976245,3.237426140752489,2.4314073283336644
8.057997816324548,7.424265591070144,10.623021697657116,20.078399059596595,10.392850073172038,1.236672480080158
6.727176189996494,11.90263084798904,3.6587472364930633,21.366062667575317,5.305545906474611,9.720454209486203
7.3511399669591695,7.403992121146653,1.0294773055008113,1.8415162879062126,3.840846761685937,6.47567793577719
6.729278499935888,3.680862727042458,3.0279319710056947,1.048437744325825,1.8112144211219439,0.9802930023402074
4.816706352330043,4.126688159238554,3.099965946660201,13.545959165624806,8.900284515142296,2.263590259266174
14.716893378366898,5.061119246749117,6.907916297072102,13.18719258710149,11.68904293469503,10.007454743851874
9.532543891153907,2.8421563610483127,3.683488205300705,8.525740359816991,12.2520282834601,10.58401890450257
2.364271759072242,6.68822207478635,0.8619034906185601,15.030500829717248,5.456612755795309,0.6376792097793407
6.468828689033313,7.208004956523374,2.9985131605902517,7.6365960727963715,5.498262569560819,1.9785517034354816
3.7811551852104675,4.043401176116205,2.373012485575552,9.018239610189347,5.822142923442242,3.6284675050650637
2.367762528036338,6.880852170910199,6.806993787565573,21.183986396186814,6.582288361439306,9.714720200472938
1.9239395841601286,1.8585263478108265,2.993531962730005,3.532375989837216,3.428653434637117,2.421001879294611
1.099947628742938,2.456234388304161,2.666395825629004,0.39426511421724414,2.438405603971111,3.1004565015484573
5.682679347140705,2.8184037512022764,1.0938134788071021,8.054128257798189,3.681020431687202,2.1439677750105415
8.358287993654015,2.9722575008024235,2.61108961186043,6.429479728479266,4.018698498328273,7.093438706947427
15.696836243251274,5.8486232860216045,4.208411285101799,5.4332561542167825,6.890192215557457,11.228663501237081
2.410759267699225,0.5231953886609153,2.0797512042784847,5.7455481255999095,1.5752096008296304,3.114828319567251
2.9323756773667045,1.4576787648840137,1.2106744173178345,4.043839692786652,1.9244699383555715,2.4405144381738997
4.487698021130602,2.2358365037694368,0.8959126278907512,1.3503239675118386,2.8256900390198867,4.516450273043454
3.215547386302194,1.9228649836302343,1.9527484609561858,12.006749839910066,7.8508664284685,4.067226993700418
2.2491003313588402,1.4365702374239009,0.9647307521546157,7.035302975404816,2.7276124264192565,2.876042556133029
2.9255360323540542,0.49403328136960817,1.3128533222227015,2.0504681691380693,2.6989861974207328,3.7348164512190176
2.599294154976348,1.0978356440383277,0.7995708144598055,3.928872242495586,2.0964979017374277,1.2168918143641179
2.4931627478197584,1.1093191385874202,1.6784659388297325,1.730969161502528,2.381999284460383,2.2880004173459265
9.514877353995313,1.146384500039161,1.7636886675734411,4.315309309034849,0.6768253296580857,7.824191220456792
4.587747277896106,2.2937542487666294,3.697585513506522,3.5766277035368073,1.8359402353031717,3.607050428505047
0.6672670880663248,3.2969987070902262,1.1048528479591937,3.0097552891044574,1.0395614458036408,0.2669287179288865
3.1615942951064375,1.6040292462289032,1.4284399479718244,1.8496760309256512,0.8794242710337296,3.006051804675381
2.2780331482523275,4.059427918876912,2.9814460665124094,5.280788077818941,2.4275940497051893,0.7528513735268376
2.1204902521139126,1.0729796973780448,6.571150564075241,6.149162525014903,3.9489966713843687,3.578478917854215
4.142708009031071,3.3749509451451547,1.0848740955437224,2.6523953988929034,2.0332046731201032,1.6962810561077617
1.3442211234206047,1.2309688887885228,0.7936114419697502,1.8224051654990585,2.9568260278161014,1.7249826056578774
2.2628925742232804,1.0288466590803422,0.6599839915585525,1.7581663249383714,0.7765160524278932,1.0958083488781205
0.4515777841820362,1.9107047457059776,0.9323773438386869,3.003032033133303,2.546046095199468,1.7047496480931157
1.9474433593107185,2.5728783886049196,1.2515458537564785,2.386207323745318,1.0373977267613892,2.9543555954898086
1.0081866237948671,1.7679512728480686,1.471091047579955,2.0528362270763085,2.0793516093924147,1.3722229775362709
2.3448375305028337,1.7859685544278339,0.6126116449055858,2.49126656874583,0.9284513724631921,1.0423202805032263
2.426643600217172,1.512099278662272,1.5801933448170689,1.5702042606428668,0.6550981239325925,0.7925241185718318
1.9434925902956344,1.1931032341652976,4.342754403771989,2.8352137897329435,2.1164661240230394,1.5929137841446968
2.0014434202483278,3.8590502004145035,1.0047791044480645,1.139263478865192,2.057188342577436,1.6875495479848481
1.761783531431892,1.9541167164824798,1.468232637352087,0.5321659476932165,1.7729547881107388,2.0673426130539028
1.7368986506059443,0.8417310238160375,1.1910129076973288,2.5525202742563047,1.7368258515275212,1.5814048548704542
1.2922043261860663,1.6198641814259012,0.5906493722953808,1.3518272976287546,1.9925135490463193,0.3763096590080792
2.6888172754613535,0.6958302604782381,0.36712529243597314,2.0500700390046647,0.6724922965976341,0.7604480287937735
1.026912821571848,2.156240746470407,0.5679121205890789,1.2155954447108153,1.2487981502005716,0.8425454788935028
1.3367019682400356,1.3771143472924043,0.3817605072566921,1.4556744537724073,1.3292234177018172,0.826840062405021
1.9949660893773307,0.19430211289934612,1.4745171243961157,1.6900954828332948,0.5607726772413372,0.7588827603715115
1.952533701559972,1.5786058243387855,1.4305403149732383,0.5064479228339067,0.08673335875328643,0.17041386807880987
1.82932536243478,0.9516317529321211,1.0148812992176752,0.1425138309647483,1.2648141429547712,1.5224924620585285
2.6227347231014044,1.8932744875947332,0.9019745558220158,1.045341331104862,0.09902673681702868,0.430144707247226
0.23220558061930546,1.415927678631543,0.35458612404146783,1.7946764759245086,1.4610339082591732,0.7188434415382357
1.760556920457582,1.8317281872548692,0.06526803531377241,1.1330347283095485,1.3331120285613958,0.5613275022890873
1.7236640486186487,1.699984469326794,0.6209382478483899,1.260446267623109,1.4525624448261152,1.5786185774505217
0.526799789846017,1.2178880270998758,0.8805809099320018,0.380350832007516,1.1260981703829789,0.69335276769171
1.0534705974992031,0.6684872111899718,0.8900922061286808,1.0526500604315643,1.4074156890177842,0.9067570246029071
1.246101139794054,2.384413485973646,1.4590236562127261,1.61872432807681,1.393195560176375,0.49930227357582013
1.1902789971539984,2.6831664375915136,1.128098370319816,0.958613375323675,1.8003550073273749,1.1549393871002405
1.744444668449742,1.2021743985971736,0.34404556866458835,0.577431283407521,1.2823518673541074,0.3720129533642612
2.2444540501882817,1.4395870874093801,1.2042998378706677,0.2737763048208829,0.271009249586366,0.7181741819354904
0.7866369811278381,0.9604588093817645,0.7671752320271887,0.6231659141983911,0.6656228114763585,0.4290169173423039
2.272641870423549,1.5934406998713322,0.9748036429044433,0.819636509901267,1.4359359876119668,0.9034454324445697
1.692506419916797,0.3294646058515911,0.2855827702398476,1.5312341215336995,0.09394488592976202,1.2952083402868007
2.2275493136398357,2.2741115744026956,0.5749347217929838,0.7884249712867709,1.875289158083869,1.5682453662436393
1.1013520988096486,0.4230441162572514,0.7029749301324033,0.975948508008594,1.100922633025401,0.3629695342427098
1.095145598629377,1.253022113594167,0.7710783002652253,0.848214823858913,0.9651482664938383,0.15832011387646444
0.7320627459011426,0.9777820258830232,0.6486428881024346,1.8954208279815912,1.8415910427895328,0.7051993488953778
0.9755383535058374,1.5713412124983164,0.5676901485650375,0.28160897960054526,0.37830148916671047,1.1257916066125404
1.8219341929780868,1.2882578681602788,0.9382970112764355,1.139332184296936,0.10917048151220468,1.1672049527358128
0.13226153922814415,1.9178856089204863,0.8549457784682288,0.530436875168556,0.6402069465164678,0.8714132797602299
0.0,0.0,0.0,0.0,0.0,0.0
0.0,0.0,0.0,0.0,0.0,0.0
0.0,0.0,0.0,0.0,0.0,0.0
0.0,0.0,0.0,0.0,0.0,0.0
0.0,0.0,0.0,0.0,0.0,0.0
0.0,0.0,0.0,0.0,0.0,0.0
0.0,0.0,0.0,0.0,0.0,0.0
0.0,0.0,0.0,0.0,0.0,0.0
0.0,0.0,0.0,0.0,0.0,0.0
0.0,0.0,0.0,0.0,0.0,0.0
