Gx,Gy,Gz,Ax,Ay,Az
2.3647639999999983,5.429235000000004,3.199363999999999,29.882000000000005,511.79200000000003,28.696
2.978823018331714,3.5039662398593356,8.264517724601175,6.066017569750461,1.0569110541561917,1.2634110450182636
3.721679186270001,7.496239451364854,7.069134969709654,1.3331401775686873,0.34038828526749165,1.5225200740299145
27.98754514599552,19.6287682869214,13.741662475976774,1.4791450253054446,1.7806271341996471,5.700089152350541
23.435099368452967,33.18170278673869,8.519674213778433,4.631396854773026,2.9538860673545617,0.688216928640652
11.079714056209124,26.620776408441,9.507519662696994,5.513604530011159,4.7740521030288665,3.346279332483909
19.152310251396386,182.44456029826608,40.570469111553415,14.779227921499858,3.1415595907258975,4.266028510160473
14.739940811063605,90.17669619138506,20.338038298519287,6.877622575245181,7.356510420612218,4.016819403010313
6.120115360992581,75.1672711586401,18.714998034317237,6.85871878635402,9.964873973775545,7.726179516093152
18.864166017253897,81.3558436135841,13.144489612092405,8.54671066725952,9.514392468622995,0.8624667266515486
27.12072586950682,55.33520604680194,17.303917064857078,11.326505581937194,22.026210017715915,18.370727732959008
29.223947564541056,18.569635710301657,22.390408808802324,11.31556560476577,32.110840313259025,19.741380286245946
51.703482480486926,30.91819036909678,37.08517851007719,11.62299577328217,71.79624859287561,52.15248671994739
9.353793631803741,35.52892624881617,10.061245309283784,7.9078152993214115,11.999993406769235,10.071112051115565
11.74150858262032,18.179066456249235,21.668964312723975,5.74932753158837,13.27709294946754,6.105017746953912
12.26783042930552,48.22700769535543,10.58118110612253,7.741161122236783,9.919683277090988,2.4022237618995916
10.806754803060839,16.811736303037065,32.4208111230736,6.653333822340619,7.976278336054518,3.4658634498911285
11.713684050299596,24.859611441686308,52.977111347839426,3.527370858334945,12.101327526178551,2.597016277804235
32.08409936034832,7.473388802597113,72.25551676939872,7.03208440548064,22.014812636063525,4.967062416933022
10.584413068628301,31.799870866883115,20.29870336435027,10.5004518269026,9.007792673875496,9.227202851530807
17.418769909145087,37.20146030833275,15.386634657879345,14.773938497529452,7.165579090529878,5.18379080957327
2.163618916463678,39.93252789914272,6.037996757931579,14.169269113305951,7.93658137753081,1.3663500677560525
24.14601132287658,24.643579909597676,2.4990873286232196,7.84351287475875,14.509191052034202,13.368638071519698
48.20320803635001,40.83392866075291,4.511847074168561,13.179013348462886,21.700583917702048,24.141890803360685
35.361239264195675,46.95327279059,12.764849475377876,17.26197895202097,17.024337463990523,26.326723128020124
7.494066617172519,23.85758410410943,8.646079114480711,8.191561496805718,6.221844667743552,4.411390924729647
12.401083014301069,24.628543336613962,15.642478751695347,12.877027969752465,8.63293127454658,7.94770050026066
5.4074406777275685,6.870032716621851,2.148674210786115,7.476104878115173,8.023598533328851,3.0246416353053616
4.70277593032596,29.554874860192683,23.13916532751532,18.80620693991472,8.799257823238849,4.602072304036441
14.434174841705348,59.26458267530021,54.98585148172398,36.66040585897687,21.550746994407287,4.949394399509149
20.60234767992102,31.84488961526831,28.24958199161714,18.511077820086687,3.1806588049068956,10.857303996856055
16.469718539508108,53.60395515170729,15.279999055216802,19.968739131661177,13.731507055805151,2.320043037542949
8.47282495857871,13.044878079726349,2.334568831215672,10.485169488858022,6.663104273135469,9.056135405066316
10.491188050520087,15.230574195269083,11.658416879140551,5.477254097183392,8.492003446566597,9.493519329894982
11.663878116346364,24.611886229339458,4.449022167129519,13.235985813970178,9.440510725376878,9.650637617524344
44.49440113285607,37.378126854697264,23.313452541625402,18.475573999002613,27.461269938472416,32.70614812013653
19.35739315883845,8.322619160998574,9.382700099642559,1.4780546143155537,22.652907680689427,14.322925053124132
10.384916463665869,14.384461469340605,15.594653475205561,4.464939239734229,11.845253168317292,8.922239316675
4.00575964025977,7.143184684352058,8.294861559115493,9.4977019523113,7.844573870460354,2.8788669546650536
8.367460059825618,5.679406956298662,1.7101290093853079,9.947351116653078,1.8257114878473388,2.789383220795365
6.67336496102632,8.978484469003444,7.247495682079722,6.784242544759234,8.392863353901765,5.383854687477348
6.579704886035926,9.326301748341852,25.357618930049817,9.242545367919353,12.62075571981193,5.825530126041492
8.167169567514785,19.387626647534585,6.48083206486928,9.810131100167837,1.6632763621672184,7.152639811517605
19.144073271293124,23.444556823267312,14.863193529896874,12.351783227808465,14.192021846945925,1.909330901555041
14.38449373188032,8.112029299974747,12.19308488481288,5.627729898550404,5.879080598830611,6.788038249076527
12.59571712920221,17.82417293890246,13.564002604908847,8.140905008718285,17.968271872676958,6.421899848395482
1.6594717858809251,6.531340002811299,4.159292531991348,5.6055404473024595,8.523413775045338,1.1214823576733401
29.340908591246475,14.079675556312738,26.287878911927496,10.256599365420156,25.704022724542966,14.151940059075237
14.724251523478896,15.245569830672856,12.128224244014511,9.592431575839013,19.529486125168454,6.178395267738288
12.25015242618915,6.124764541205515,12.913660627786806,4.878013286961059,13.299793699528417,3.3396828943407373
0.8413873206936128,7.248123529822501,10.985511865931109,10.821082822609593,3.3640616324788164,2.003998038610541
7.766661919440448,14.50481835945633,5.605477498494949,7.242665188789904,13.62515051869884,4.109889745668572
7.550368658700021,11.512939636127545,2.1943690896581503,7.894848300089201,3.041816612209936,3.101306324506638
15.909719721353847,18.690642355143936,16.54120619309895,8.404858157487705,15.940597859423724,4.768035671245563
0.5399287443727623,12.998867407810502,17.47569765742874,1.7294456099328837,4.712707243002237,3.279547719466964
14.586468336862158,9.64592454072081,11.335347729173144,3.4260306562011724,13.132272881010525,2.162343100873208
5.155852562046451,4.534450927284784,4.99967235193481,1.6163721201523258,2.232942094905531,4.499902871114534
24.41671084613468,20.169910337934905,10.582034797405182,4.173642270902269,28.503341096073708,5.542152653499721
11.966401354001833,8.013970659493465,12.25962968115695,0.9628108404755216,5.686129796598506,3.7518602558787277
16.059936555402658,9.488145808100514,18.767654408598553,1.637392405444585,11.495171529700642,6.600961165210387
4.2121050111808875,9.395216056438436,11.35967541515291,2.6866733332483523,10.807814286143,3.929093842053229
8.786646063812706,10.204403662192266,11.515146754551525,6.359922329741578,13.29652413114091,5.5785549024832015
2.427830774760425,2.9533858363073358,2.409624325976704,1.6656884435199064,3.024546372352266,1.6454157582135405
19.15729663124318,17.34948087558233,8.29165871440856,7.386680141114294,12.776166765862824,1.9870060367709708
17.475396519704855,16.968720904418817,5.374795730717849,3.5076807435077146,17.937491213132194,3.961574968882368
7.173909565885459,10.387736319443505,9.959998024748211,3.46452285425427,6.0765072663305855,2.866832401551193
3.103330625754456,8.896329173733262,15.219448819392465,2.6286159730574097,4.24219926513986,1.0394506551926836
14.830694579722708,13.499523371450017,10.578107479979478,0.7541163880626347,10.293147516954622,1.402760874546238
1.6907712572312674,5.238942862136448,6.08473600453239,1.67921977127922,7.243058542637684,1.487571360866608
22.453606037939597,6.1505677662020695,4.861896701362356,1.0167396080275621,20.724650816459498,9.10954134263864
22.768746609783115,9.89094434287516,7.695171632090943,1.9166951442322466,15.230542103411272,3.0062763445965053
7.653692013912158,4.836542853249461,10.412050193965662,0.3216415070492017,3.9749802331779307,4.94598712380092
11.555356451506556,1.9414316360388106,11.802527729600039,1.4844910669870697,9.375672137716748,3.733445258430006
9.921684622318343,3.822630269905151,2.7041190852297516,2.7137296133887423,8.055016175064738,6.002259681120873
7.4521884121879625,4.132471898179323,7.594759833802051,2.9275491541767944,5.540804780113157,2.8061648128522845
9.36259143270405,9.786871230423772,5.05004307222892,5.660433896729742,4.94527043609472,4.471061985164596
12.893688140041519,9.637603137563447,2.8995033937993178,2.453731118395883,8.911755531316809,4.217734387454616
6.678228955226601,6.659641472868399,6.28137658239406,0.5057714950017775,2.331019814383501,3.369380526642628
9.322108297315914,5.363970900083649,7.182228328676145,4.035089840531002,7.845317725036347,6.748662981576484
10.890073639414231,10.037929523546682,5.273366772514604,0.9646277266347547,2.1937452279379746,0.3886917692979067
8.857209105361896,7.6717788896072605,1.8767143597846165,2.147615464586778,6.773931073548134,5.017622082201981
7.933599132636749,2.0513145950919918,3.076327178209328,1.697679320467932,4.21694529873158,4.989265283294044
19.334126461807543,7.595749444022478,2.7851029881029037,0.9996498496504045,10.09171118790195,4.0330789996845136
5.9192438594834025,4.362609536915311,4.27218721961744,1.6612725681894502,1.1855908007638463,3.1781938810213464
15.760003257899735,6.782183891183522,1.856753901994251,1.6674252712366568,5.849924492944971,2.7296160470656328
7.1287078923179745,2.0346854150130067,3.1379742756190425,0.887108973564921,3.398257487150262,3.1551438767108175
5.924106840643773,2.668307061754128,7.484127625831661,0.8923438144886454,3.2350223317531457,4.82166974374399
7.675504453959491,2.970071036306116,3.3636663219712224,1.4877487991903466,4.420176393944618,3.9035744926765497
4.581354758618074,2.3294829048895704,3.7401867567033538,1.6033769098886237,3.860079073080192,2.040503507326908
4.382401659216441,1.2421209868501624,3.3502940789005673,1.6773499568191763,4.429193204382647,1.525379247525539
10.043360733655177,2.3413624208159756,10.197079452877292,1.5594762683773085,4.040120899406674,6.893672553192765
5.2422705623624255,3.4216536546049694,5.8060306360604335,1.296386361231896,0.14110319634687113,1.2365428820687836
7.097050959807178,4.045230087098604,4.532469780931092,0.87881537329355,3.573869959956792,5.704182878782465
4.791328302192702,1.0713659996660183,1.7416986879465386,0.9841305299200783,1.4860791318503277,2.105090209309401
10.017561702207223,4.744013323498245,3.0015939519760124,1.8093678417328036,4.080960167420385,2.610929193333802
7.377469507486916,2.411270206828759,2.294085839071441,2.034555251221289,3.2347331891251607,1.261771084907333
13.08605795157618,5.732215126104063,2.1291886980689982,0.6966270342398762,5.234381044678409,3.414170553109313
5.816138842999232,2.890303571988399,2.5904532686843793,1.6007709015444187,2.94740003416597,1.2666384107796351
6.190608921161925,1.2342485241733159,6.153096899694578,0.8207915135609319,1.2024515301887304,3.9640990857968275
