Gx,Gy,Gz,Ax,Ay,Az
16.806339,12.001312,6.241190999999999,23.253999999999998,641.198,107.464
5.079255484893532,9.259828791631227,1.727838423150074,4.149423053646624,1.3490629982002194,7.132863620133055
5.180554855887173,15.400514464047053,4.139221613999663,4.302274625161992,1.1509012997995698,4.021169576444825
8.788375353738406,13.285969216073847,4.599664732160681,0.9413300850646716,1.2791071587829177,0.8620534699599298
1.9160056247308779,23.05753302906258,7.331295107682064,5.377781389365238,2.4152814616877607,1.8868938142739073
16.849377619816867,141.90406775272552,22.100758241588764,30.773727599169426,4.6493325651708926,3.3558538222102445
8.906568153427793,17.803715487244137,7.662676668097322,2.1326805381286604,0.7657692494904321,2.998418956233924
11.148766807667375,9.73523827649989,7.638200381891199,0.9668997005008229,2.616778593747538,3.0475068714954165
9.09813101845389,16.018626541944744,5.452713273277434,1.7460155725340234,4.3403002930124215,4.234018560585576
15.537080539861213,16.080742020098207,2.1171907342396428,3.976857456018826,9.488033496087667,5.397170513615979
57.048658517480376,3.7128575446971244,9.285210574214656,4.351514368559002,46.719846788563416,39.92004348873527
14.56233388951142,7.364427927009538,2.867282551897402,1.3425458943007618,12.311390895630401,8.43200298073318
10.807497585399794,22.237770429478704,4.990732883525209,7.303002245336104,9.399182622115829,4.6861481584503455
2.7191054462206186,15.347249700762784,5.314030757064216,4.5173794658986175,3.276179072041519,3.4652915748291955
6.076443550435491,22.609611972100698,16.765901849685804,5.552069999817141,4.140497331613085,4.114824933423337
11.526934352880719,48.17571156439977,56.21563475083103,11.87972259094106,11.714463226568487,5.083358992858899
5.591156877122405,8.460541989079763,13.10415373894667,3.1467641906124086,3.3644277855901223,3.6242696798602876
5.722715207507966,11.369757421069778,2.929020915863749,2.923456729407148,8.298020887436778,0.7810135144958412
6.1182324888321755,9.255921155891293,11.90650756670548,1.984960395532541,7.550870134045081,1.686923843508276
3.5565716616577463,13.592173595770948,14.478050775222416,5.682310150511649,10.426015650120723,1.6986766283404762
14.59914368351904,19.27473271386774,7.73120933675219,6.64298691082401,23.080799228968967,15.818223131281988
8.895972841671181,19.6493633008933,3.127060491679776,6.376987893261228,9.239062194809032,5.947251708166955
8.016282045972547,20.962652699160305,5.857333839459732,12.198879706546819,6.057226445913792,1.6321056044121918
7.300701348313259,8.685014214580454,12.680691068440083,5.044367613977465,4.148197690342744,3.186663110705833
9.89335681469611,12.095482062857311,4.613122515133499,8.347424228697237,2.371446063259081,1.8226616025988387
8.767652470134893,23.19566348526619,14.793469817555525,12.034899814536947,3.0580989725309675,9.707869359629258
10.836502803036788,6.788694761871963,4.727676536680431,2.202851004617379,5.085295560336286,5.760110660077305
9.51827624651061,9.219243406451424,6.578965336134785,2.264322081673135,10.089235378626785,2.414708985353683
10.399776170583177,14.324922629031063,7.440137402168374,6.751275776432943,5.5692766002604825,1.2096312799601996
7.4472657422484625,6.1672891952605635,2.800576991576076,3.8551082517625144,7.838444059705122,3.1602240999260753
17.058211675673803,14.128278976738143,10.673292292456548,9.274040128691697,16.648075795040647,11.779020312806095
12.350975437961575,16.10014347623449,12.600246311767222,7.9394057585775855,9.430673190245363,7.387834898772976
7.068107875751351,8.001133947848194,15.351541183886287,8.159889511960909,6.8415545349862255,4.50349351921592
6.31216066045847,5.858219141384707,9.221578652326885,1.0646164603222414,2.5351630847987883,1.8417047145498149
4.862894672825606,7.948332556124288,4.920849584080044,6.3971049123888895,4.747650570671634,2.768419725902008
9.626318679504502,7.942947614576272,11.996429921585698,9.277859525474152,0.9723456390542905,6.652504202138992
8.735507957052933,16.80395251329515,8.702133884972804,13.054785633287663,6.771058497127973,5.352834869940043
7.652185982387283,6.730000217290095,5.540944920498389,5.441080477421031,8.539785012627382,0.5204437758177846
6.528735032421641,4.228235245218579,2.349339678903084,7.489537538761632,2.0349415707282685,2.349866032432579
6.91976248527747,6.56329087166389,4.198039105934556,2.2598835877449788,3.3851424567110295,0.9613687544995523
16.053975392692674,0.8812614231500234,4.528569007539239,6.9645255993313,15.453359166315282,6.581211344991091
19.284942715062016,12.53972259757081,15.518481204332213,13.686983883654014,10.028332872658238,5.530614203011247
8.27276619744009,13.566712939424747,15.38269620929172,5.004129765963391,4.348645031460973,2.5085603998055315
6.674922479932155,4.9727726292403,6.201639201179359,2.8508396890377967,5.574155405824901,0.47670328850803867
4.52343251785895,9.801485391926835,13.107918351290794,6.807987318164202,5.756155499531696,0.9882231059298184
5.8660186220486255,15.516535474129082,20.20159730561835,17.6810192698291,5.788466981300712,1.6535847845344176
14.168876486960228,18.37110817347561,16.26103315279158,13.46632823647311,12.10497622453892,4.216618318595144
3.3630894123488106,2.791282038347908,5.110513337409878,4.637498355655548,2.8672751709138633,0.44003249086194135
4.593422405319789,7.3350226593305905,7.800885157412226,6.604519820595164,7.123113481693609,1.072737742459872
1.914779358580928,2.1702286453018624,4.648044751414357,2.200485518517996,2.3734132895620172,0.9009143367306554
17.970090419099904,3.1352623997873685,12.103831054501802,4.363905219893143,14.947096037326293,7.389891673965229
15.782247650968367,4.839081109148839,8.293951896913098,3.918421790182902,13.047235829161654,4.331296665509998
3.872606897607272,1.2703132468080813,6.026037164472367,2.5522321834406108,1.165557852759073,1.7536692967560825
7.7694844088986015,3.1678797834330252,3.640952978959549,5.001350331771393,9.590094332264743,0.5575911913162052
4.937575036905648,1.979547947074679,4.154783312863133,1.0873180165964615,8.753551276760014,1.145580050943402
3.313258098089074,4.771838376607051,8.819216339994698,13.529578625946495,4.537974339020886,1.863954372993293
8.398656725498096,10.734272333520204,15.367339461564367,8.632330230511284,7.728505632709941,1.0709398510025148
0.6181110830326867,6.44416697414113,4.927272081807519,1.677789272585339,5.136045668609378,1.867080595862912
4.713110777095463,4.149574286760475,8.762972000313763,5.113541526182947,2.3558677798753433,3.2956341481263904
10.083889233617683,2.895879777171514,5.251206439238395,2.5893144406509223,7.173884258982204,1.2896504007405594
6.100434588969046,0.9696057922489515,9.322924000090048,1.6795221833089764,7.036060749365806,6.141952218926127
12.071545062441052,6.329000661510827,6.8629571769336755,0.5598870132716799,9.15639031213025,5.546985732864435
6.634669043674842,2.089293058077576,7.998469218127345,0.8848506968299006,8.409775691935604,1.2315041459919631
10.652716691707637,0.5349421298237587,1.181333384170223,0.6000918306482625,8.654038868803102,3.3669719630399375
7.589352676196123,1.8507698030356556,6.266962275927939,5.953669529980805,6.182586183066231,1.3649644288387264
11.216369275698636,0.49537823863065755,3.998130554692656,6.881853955467692,8.727543022561731,2.3138318988383215
3.8862920276969533,5.170284752452881,9.56863734865937,4.95167000855363,5.810609704120936,2.536257136998657
7.95044882125706,3.7631006686418376,3.471938846401638,4.02152635097321,4.56750254271248,1.3632221219644312
2.0145554999062103,5.198174077374535,9.236215503760334,5.501227920694202,1.306329770967586,3.022592000203553
3.3709344781112134,2.442061895640754,4.667763617615058,2.567515724847748,4.116453204040342,1.692218250664404
11.12413302964527,5.1589719059019465,8.253772113452223,3.681785814283368,6.148559698016072,5.096982579294787
8.515290149449164,5.0001868714888555,3.774816635237625,3.9390394350079925,4.643882201778401,3.5758822049446106
8.50292629724962,2.640501853057091,4.311366793925659,0.35388140072856494,5.325364553286672,2.0089398525328446
13.196573362156498,2.823517104965986,4.000474226875778,1.7826827075913054,7.490600435103269,4.357121282481896
4.5821656651606775,2.9089863070810598,3.864389154224689,1.6065883744241218,2.032378287004792,1.2384309794401946
8.544131891833226,3.2084876223060554,1.9706590459966458,4.063352352071325,3.9424598447087438,2.41789193390813
2.5975698230175923,2.8943659116583156,4.081696392695584,3.196920597918351,1.7387970515105293,1.8360993462936819
1.612519968000009,3.8196258666298317,3.5144853465901438,4.486540746872743,1.7230521475368523,0.9259072116320699
5.061134829621706,8.09505056177641,6.647895345557729,4.449438649609659,2.8832993465465657,2.5515701576050933
5.6393732060029995,2.360029743442659,2.5931646038077565,0.835482081747538,1.7085432974117927,1.4136439889756047
11.28438985490155,4.998403808706552,5.327935547519229,2.6060562645331884,2.0426077436488796,3.5716766523009977
3.8363544023332428,3.1253639984752226,0.12380769482480174,1.42329720477838,1.466343517521247,1.4719096295499965
4.635447249627884,3.678955972082108,3.2639664564866098,1.4117469173022261,1.104340539052394,1.3735047943605314
11.346127829319107,1.5062731042267647,4.160463468938454,2.809601740646095,3.8483261742022923,2.5654571387862957
0.5839513312209454,0.586355722778285,0.11567982150515572,1.423868152650459,0.1447215401691274,0.93618728514174
11.920077027711294,3.0418307683059385,1.1596929151710516,3.427651449216013,2.607391623230892,2.105908586929416
0.6298060938356207,3.5546725800825762,3.2206709980644592,1.9012683840318898,0.8619084499165434,1.0295888568162281
1.2460291405670139,1.9173406821629235,0.8127847607420408,2.3043321389632383,2.2518759860801647,0.9893218632989834
8.20360904183078,3.9055195775596387,2.880797755418336,3.849462726608164,3.2393013407240465,2.4621691147676485
6.589944263231707,1.5066144286263832,1.4871809493009878,0.5678547171098656,1.3425933411907682,1.3312666863336842
4.899014667180593,3.168102689452811,1.8652736905141618,3.0072383351131213,1.1063190508349798,1.6066837578270772
5.92402001426823,0.6365923246365688,0.4384788402305978,1.0935262859807042,2.592330423862639,2.417279573257555
2.490418052709558,1.1832770977559073,1.4117867405331448,1.497796830844952,1.6182217404207262,0.5388917293004949
7.540413607863383,2.4443802735173823,2.61294678527011,3.5761889060651506,1.6979313263874725,1.827210323084796
0.9188875964700649,1.9981339011998707,0.2103071616087408,1.8141406548079217,0.5021929145299343,1.1669642455827178
8.614291605569136,1.1045198030839751,0.9440166908577727,0.9364119258241217,1.5758772587676377,1.9147885043585589
4.0973968947815465,1.4676021056611213,0.4883387540388127,2.0148145757574127,1.4611408646946937,1.1697000107030002
1.348147405884981,1.255192672537994,0.12253011482162134,1.1090592737236842,0.7289606594066499,0.40766665632094934
5.6720660081508205,3.56116555885751,1.5288697740629453,2.9522837762085032,3.2383102604807164,2.0484623491697374
