Gx,Gy,Gz,Ax,Ay,Az
12.397348000000001,17.10384,4.0006889999999995,61.01599999999999,604.428,47.016
7.547333880062005,28.629109337096388,3.037035157894774,0.20656430977823542,1.0981083410870063,4.163618601748987
7.620784500003914,14.047390300540275,2.60744588726124,2.5733893228504474,1.817459313245365,1.2022839727504044
7.364165301709896,34.16466843055099,5.370702046708128,1.4624237678572491,1.8671937244411823,1.1510842803654793
9.411883698702058,16.03378148088157,14.062188424164747,1.520673468940344,2.329355852769277,2.339416464919302
11.648669502457858,83.26799742953915,25.465405463433342,5.073569121305952,2.4666693503074875,2.9752539445141806
10.055320818162102,143.48920043890732,45.881249034919584,9.114457909346338,0.5130195467144099,5.547922154343665
5.715814502520992,42.078753403239425,9.813711963387705,1.1442921122820617,2.8021569208438333,1.2144802424747598
18.4236046210395,24.237686819666358,5.602948133442272,1.301598850422088,5.903849924586034,2.0348393762268513
8.553947477255662,17.319306847538105,3.631911913468354,1.712313213935014,7.657619192529633,4.684776019383031
21.60523463763175,21.930003703677343,2.395113562000294,4.647577058792673,24.372144407672256,14.902263219705322
52.28214298550923,35.121914191132,6.3571182673545215,20.282636777547676,67.29177489888863,40.971657301401876
37.04659101313156,36.125594010816684,5.054202507043183,11.62056989076125,45.43279857174901,32.528855887070655
14.926887017793733,20.192435617633137,4.8080342834612955,4.1418981106312955,7.142782999886094,9.640767211369258
13.161438453178876,13.675574594678668,4.0106713745353675,1.2069076476297382,8.17654417639998,5.027504390274527
6.438630979606004,9.912749683923062,3.565686320691275,2.705623391120944,5.271001827078891,8.615473234440284
7.4962522938131775,28.408412048430044,11.136613641599508,4.298774492550435,7.458790993202287,0.8703608654320905
26.20751309142144,69.50142078754524,88.1524330488949,1.9843258315322496,9.495524040200404,8.36491265396576
11.284162111505148,27.487017478640166,31.2831490241817,7.574575423304418,4.221292834636178,4.541217339668024
9.404363565677565,18.01469942581739,10.45319916698573,7.285386472765374,0.42038143190721133,5.351019369881038
3.109165673035108,6.535735393169185,7.560877027541919,0.822860507929899,2.6031719239012805,6.862922329921171
3.4272085527365443,9.404471448202502,2.4007523968588056,4.293998937615598,5.52558461640947,12.054538120654694
4.289059756863801,13.322786617172108,8.82478955901392,2.498270884800244,8.4909706578357,7.169157428270886
18.560738190591604,20.511250146512324,7.621455971124784,7.617887456517215,27.070657699936124,33.718148742457
4.552718297091596,20.20738361967777,3.590298440262539,5.828042971256575,8.386961275764115,13.604799491772564
3.0322766850972336,6.711673857782078,4.062663361788605,2.1914062873121796,0.8282718101233811,0.6429476960276606
2.4235993145853048,7.7557074429377355,3.8818821408789708,5.38523146176891,1.8460004089600985,1.1867412547151581
14.390426063640536,6.330737318802095,14.681888926820198,4.471768940967516,2.1038023942344224,1.457645377310324
15.47220681678267,18.47434075503329,18.520652714821413,10.933350976587985,4.375741736663367,3.9872665379396737
22.53886560823986,12.364739722707355,27.153298691692967,16.09208635854667,5.136798040631407,0.4704734772080968
10.788152681908084,4.984870971509014,19.91510436004228,5.817002742393835,4.917799113341232,2.8479602611400496
1.981239487442999,13.239000620623406,4.725419607644705,3.2219452802983315,2.5727058749362333,3.7281199739326207
2.3422206409580606,8.974467313755568,2.163313675529732,2.817019581979508,2.954743556174612,3.3707490349817717
8.121802778334587,3.0801143906137463,2.5724648282465967,4.572185501159553,6.491411114037428,13.688059190272899
11.814866240735979,23.358253896159052,2.6338390401613943,8.95469906591596,10.63087760710019,17.688053016407803
12.757099935123277,16.431482812647136,3.819532877288104,8.913783519599363,6.797202102412006,15.009877519917843
11.715679901977646,10.08235166579066,11.119545534826512,4.347319725810368,4.487865260481635,6.807595721913502
5.769026977372143,8.281033926152325,5.240934151747841,4.222108815178793,1.888292019785979,3.327409312427431
6.6180332794515015,11.792877315519139,9.726173606136385,3.1624579665391064,0.5458610709853262,3.1607622011848275
5.893004579767135,5.382575323261118,6.667730995116938,4.839162123270825,0.7596860159703125,2.697267362002784
8.851629607428956,28.084689294737746,22.671320146828066,17.772461554957,3.6614686834770764,4.211586961669908
1.2359332703810353,28.37693799661967,17.192666575524683,12.380228792547193,2.8905021472513837,3.6031495357904326
1.4353583098987812,18.6949126414836,5.40768191192248,9.266785928576605,2.9438476553774446,5.14248934272814
4.98594676829109,11.177926006656719,4.433049683225526,5.758950993624791,6.57933127066876,3.2304909406738584
11.594269366109138,17.18419406410349,6.1434632191655725,4.278992997625427,9.11540075944296,11.655927965192612
5.152823580138005,0.23085422795996838,5.210274200790144,7.305770011016944,4.283362290282909,1.4735944888210755
8.996099698311863,20.751116860320476,3.08127602521337,10.199424152820905,9.639036466140107,13.583362632114758
7.897231140501478,13.056467801494561,3.6895272652624147,7.582989656429914,8.825552211946832,11.768524518675727
5.849462052351914,12.057417172047314,0.40058812757630424,7.207953067907338,3.683160097757749,4.559583876285919
1.7058934760178224,10.52248180718846,6.80103464216715,10.094815240093792,3.2656496529611383,0.8384309056881711
3.9264717111109384,16.630327684687856,13.3743935058048,10.663157759189641,7.709593406729133,3.7270388743226976
5.922998116758307,17.212585401477522,11.63341712999399,11.718007653857693,5.256894544898535,3.838082221974814
2.81203773652216,21.142758768503807,16.318323456955483,20.35325910891905,5.842409535480219,2.6682848690633167
6.428062236729215,10.662086398613171,4.355104319029065,11.469615130388924,8.213450287933936,6.706882081721988
9.462331869144037,12.150556514997675,5.662868719130837,9.842705990403706,7.84828910151343,3.04884762348817
10.019539208207368,8.012774098108954,6.684374245250468,4.366123151304004,7.254862345532577,6.5864261133625
7.012651291250722,1.7086200995204046,3.583956886217941,4.123325535916643,4.6591920035724,5.651883843612904
11.090029004706201,8.52658228166878,6.365648301362582,5.215491219305227,10.176909379290905,8.784901543838494
13.534910772226437,8.21081648170312,7.086512318145972,3.0224546487043686,14.220169119906114,10.502804303033209
2.328097299030515,10.102236898247467,1.9445148224707474,9.240056989195073,2.671381551096641,4.003211797635617
9.095516516304842,7.507239062965574,9.633469122625426,11.619176515338651,9.181128689711569,3.526870375949118
4.153521034834609,7.296747483165655,9.794079827616287,8.9746876763115,4.220559509700223,1.6168946577196046
5.098512121387364,4.261794285255412,3.5513511249567578,4.558946711214952,3.8240607807991447,2.5535386357909338
7.114045981804237,15.912038709920523,9.784239135137293,16.92431521758157,4.82473913893317,2.2650471077606587
4.707605230624458,10.9875430357492,7.549649497097849,12.099980549376623,3.280787481867774,1.7749557005940333
4.505566240104102,0.988164321700571,1.4296825567505902,3.532793567158336,3.199215740758003,2.8615206095595527
3.04031352102994,11.029659543535109,1.4353801121221288,2.0687686119378776,4.742570072732465,2.524469996061566
9.86555343425308,7.100193242660393,7.335872468595011,1.860928313169488,11.125431551423123,3.6051504338478604
5.788183082723383,2.612028113514354,3.6224698591865887,1.0876087823427019,1.5097845277006992,2.988184082411653
9.307115983243374,8.857170129880526,7.303548946200387,2.5943288723141715,12.392572730775607,5.578901198619311
3.373904187895142,4.512839078776775,2.4760953921327413,4.97045589877449,3.1602673087164153,2.165304958677057
5.601548859631247,5.293432720782417,4.220005468307582,3.9296975311904685,3.8358216848683067,2.181869131140014
6.387537527465894,4.185675197666526,4.007765389041728,3.439135244476103,4.094990643427047,1.6935828582052908
4.38398925058744,4.302034354693688,0.729114019032977,4.491082503308581,5.175699923145483,2.1972288571899377
3.4157513521285328,6.516091668323114,5.883817400162869,4.12195143477483,2.6631207512882833,1.5332261280837496
3.647985278509149,3.3420400152491716,4.329467454086422,8.931155587214079,7.472240124529503,0.0668298388239438
4.146043918550522,1.573311443722635,2.735279453144446,1.1083720325693456,1.4139928352254652,2.169200593766052
5.015460390010386,1.4182627750949581,3.668554598728525,1.841486320205858,4.384331724987945,1.6129615266267838
4.295089764625927,3.0725010533734722,1.4297752263870165,1.3640447097705841,2.067663705131478,0.7148762982698692
6.281392058309612,2.533249448087916,3.3171731165423166,2.5849614954119566,2.5239117271969356,0.610322611502865
3.010883384590571,1.4754613504070209,1.9661981119778906,0.6710045620346549,5.39962343624564,2.469474210563498
6.373559841810533,2.769766395612749,3.3165234361651175,0.8612932243772619,2.18843077284582,3.011240226624343
3.4546894125469114,1.9909913268547925,2.9331712214525254,1.6568264669610033,2.6367652511866924,0.6045502009631921
6.590217396074752,3.523344347802708,2.8038986962627677,1.8612349549573248,5.237078644553312,2.690965561500777
4.654040184666942,2.532344722738567,0.891913299439665,2.4375923634748458,3.3842542334789467,0.9724766875540196
2.6279658195161417,3.1233526547849917,1.6808053150851683,0.8495729248810783,1.2156226102410277,1.396147841218492
4.584875435957196,6.048656869950284,5.5439214890532895,4.374345344586305,4.319128359472119,0.5225464551186754
1.753667321550412,3.585777818471781,4.618346471425042,1.2549412566472722,2.2727245690944424,0.9928010561416017
2.2786465302800076,3.3546927720301816,0.9522714829774499,1.8534839029982837,1.837814382848955,1.1892822252510018
3.8064164933515348,2.815390218143043,0.9008759285694591,1.7414338098859858,2.0970950936328467,1.1449460837457706
2.0613651074388413,1.90733541038014,0.6456994533968771,1.0845158295163675,1.813885869230957,0.2757755669188974
0.9073087382608132,2.5163280620277226,0.5853680184124462,0.3794258587494122,2.5030927188985976,1.649724101227592
4.844825028267781,2.463299844801404,2.101397360227247,0.6117453674016818,2.1279596963912635,2.969178626305552
2.5751246482121304,2.908406035121228,1.4516421613651647,1.3859177777526455,4.620272451167582,1.4654095919337855
4.801163052979077,2.08821097622993,4.763219249118906,2.4049220708051178,0.8253386303676252,1.9587087090361992
3.7018308811191583,2.1460768200604528,0.8892369324791535,0.8390467095161881,3.213470143383278,1.262322111133419
1.4619238736216578,1.811528470609608,1.6309738997458976,0.40981905772137983,2.53536986524159,1.2432219490070366
2.916721626861686,1.6532960022180447,1.9990215204787012,3.2054717483057145,1.3911274062612045,0.8523510263567593
3.2213204187455196,3.89773944791984,1.2910628434610258,2.0372358283852745,2.19510862247926,1.164930820644029
0.8358165123106177,2.4570825007198303,1.3491274581628454,1.5022944128223168,1.2154333413250933,1.254509924158765
1.617009168580491,0.7845252009432209,1.492475439375338,1.6921257586502085,1.6454767876932057,0.7469108342099534
2.813786739936176,3.6668131543760203,2.4216299691167533,1.5635123303146181,0.7032327266730741,1.2763082735186293
1.4026745663894624,2.218379393037296,0.5548983686867869,0.4459074089126811,0.25372723198530656,0.7195462727508833
4.609056816794333,3.027633652848057,1.6511162211508748,1.1117743655009074,2.0202565664389227,3.207917010645984
0.6159967953036476,3.084175606248779,0.9437339985824892,0.5397362893960076,1.8161996632585915,0.6766391890316548
2.166264518224104,2.851888327809261,0.9837013141009936,0.8084415845638804,2.304698057778474,1.6740757614745982
5.855163377436578,2.6843678758274496,2.073744981062554,1.0843938345229536,2.6484577327025436,1.4128529338880376
1.3146913387266126,3.211762924994169,1.1606477875738697,1.0855825637770944,1.7020180500568922,0.3705221190086935
2.6202175987623613,2.433386962942576,1.2691659685575016,1.7652130393071002,1.705907428377559,0.6468951638720516
4.25905122751504,1.417240128615071,0.6977518979201853,1.7115844266242217,1.0390240443126195,1.2430804538748763
1.521873743249994,1.5495847375791345,0.972811331167261,0.38775454001906123,0.6264096172554809,0.8446505997895708
1.0348931520124696,2.2089048824009527,1.3840738157859411,0.4086516880161236,0.9929710505191242,0.44670419079506124
3.1524266388132864,0.3135404666185916,1.8391928475443335,1.7216902720450749,0.6159305698991685,1.126972392837685
1.3702512045157282,1.4883606584009303,0.6641158697074706,0.9421356399569826,0.6814182270558158,0.5786171685424164
3.4447030424278497,1.7760477394527612,1.4737256234946052,0.4138113168314225,0.9732232328807523,1.8946644010667621
2.9411532779767695,2.185659101682299,0.8816045818841385,0.6504212089449545,0.3647200546921614,0.45790976808860107
2.854790414288419,0.986849333546194,0.26783270904773826,0.5713442632421755,1.867052443112474,0.5197119495538575
1.8224646081603337,2.06121637929796,0.7708644675710445,0.9564998010357055,1.2595359888662345,0.45304296431858704
1.8210820623918929,2.757875919433512,0.5235738539979011,0.18356162490687664,0.7015939458758156,0.23342158139296518
3.9858684043038672,2.530262301798401,1.0361827447438898,0.9991349229810562,2.5150760272101405,0.23444532882717806
