Gx,Gy,Gz,Ax,Ay,Az
9.715471999999998,8.415673000000004,7.050656000000002,33.004000000000005,586.6700000000001,109.788
12.795884914021192,11.322328486354065,7.614260669347616,2.7266384054840107,3.3778614130314812,1.7260161210973297
4.2880091169916215,11.891868914831154,8.634198948291651,3.2580682004677914,2.69089159834844,2.5964089911151373
7.6193078232873095,9.570123674737397,6.395267344710654,0.740833737421958,2.611958948708737,1.5444317656775233
2.6159967723816853,37.48882060518325,19.81364274791261,2.8862542856611517,4.154015094095024,0.28357404635598277
12.834213926404768,93.18785235273388,29.189472188297362,7.35947576319654,5.837513913755874,4.354469693450301
23.11019792513629,191.33030220508692,44.04109037466316,19.49727688106503,1.1708044015598789,10.221380630892325
20.251565546635863,26.813925731282403,15.135431512767267,1.7971895548162846,3.1763850195188543,4.016890449781989
14.73412163586715,27.50390716822592,11.263830889417747,1.0845994553628076,3.294825490142602,4.719981329940096
14.497795336507561,33.93985026504237,10.373887015009776,5.5089684598197985,8.841888156373814,9.873398159126495
12.348254399087184,36.18769667917389,12.368285248431091,2.838216398174705,11.76209849725181,9.354343133902393
53.53774066011127,48.51130935492197,9.923270448660082,13.383652044547473,55.15580410981836,49.92985535165152
18.309170314135663,27.038870268927994,7.9374779936402735,10.67086382784826,36.343209243695696,38.727511172030965
13.5576214986725,10.89235708941543,7.425541862568738,2.8585107698931895,16.096341843964307,18.536651688528526
0.5603766196465553,23.936975152273213,1.532351121910439,3.6550018740855363,4.679231896941396,6.536932332621227
4.0782051664932615,7.382264103059084,15.618301188993279,4.378530825089398,6.83461408817774,4.50345241789243
1.7852566028439014,39.78545484587797,9.645250687056238,10.191245197911178,2.7862634551085135,2.790938256754138
45.511686894293,60.01712620073077,118.72580418338136,28.613991696206767,7.010528994922091,9.372600313032082
9.256325054609936,28.97192885476407,18.242080000947738,6.029680461267092,2.949332260726344,4.736414662843142
22.766882277894062,36.90313357239965,22.442296367653906,12.37610751408066,5.8787866732249645,4.360883485694529
1.7534892794325272,29.145119364114247,2.4877276655877667,9.390714166684306,2.714550958906309,9.157367753567826
5.643451636528625,9.07030711376695,6.3806646639804505,2.198719231949201,1.3844945169123422,3.569431270042301
10.993609779773738,16.11547216709437,3.71054356309577,4.8968617647078165,3.1692067123482612,13.070148361637159
15.71150485374628,5.4625439607592385,17.457737147408373,4.416243179048845,15.86356891299126,35.625387995625886
7.451667238869465,21.66602617303307,5.865505411768599,8.109915984883862,2.896593039112343,8.208182858414872
8.683987940079204,15.014246327447898,3.1886489826664595,4.921986242578963,2.590266386237768,3.2300448704210405
8.856918240306086,27.80366765501012,9.824172985588639,9.39472795507005,1.297347234622753,3.0758817653726296
17.519814499357764,13.142662648435607,2.186800833472516,3.208595597004657,3.453091407861644,2.4954331218749415
34.25050536920402,56.81406952989891,21.786012115115142,29.792090597082908,5.622426931746565,3.821539257735463
33.03509790301565,56.98434289085589,24.144952695201965,34.687913439134185,4.4375224852199535,6.51402569554561
12.593476664930545,30.599357282098286,19.19858222102403,22.90491440554373,9.521602915781989,3.726273630655013
6.908899443745388,1.0930622019644731,3.992115547465901,1.8651560619612086,4.275760017093465,2.4882814922875993
4.314298035430565,12.36571551910449,8.096501762655084,9.004640091667115,10.22215717855004,5.976401204317077
11.578068744069522,9.35954743418563,3.3708002932906282,7.837215495495276,4.455189441493339,2.993900984758207
13.620688345379634,13.772686210904928,12.891608052110842,6.01982299836652,33.63106103573523,23.983619347102927
6.058863984851069,7.494830922729015,3.1535115985799735,4.415207262747399,11.516215673319417,7.642128561193407
0.9131638130164285,2.2480529805415,4.8681763185987,4.4321375086822075,12.972628211439094,8.199709576970832
1.2768690879689981,18.097088089746173,2.3728729686614654,10.516220093834104,0.878229722349515,1.9392305679978736
12.850532476284963,7.054502470616222,2.743593719583701,4.403218823394672,1.9574996311717296,1.1212971396747156
4.299228771800564,10.877351197021273,4.8425404702247965,10.375168119289228,1.3250062669958234,3.0970501898048197
26.977126523791366,29.60006721036636,20.90330739596973,22.27061506890452,7.108716908949882,5.1105179262732126
2.1409392257692317,13.246191384467508,3.480221769255567,12.05277450492977,3.932663739843698,2.2239470004423696
3.4493705977525444,8.035680985412679,3.7668642416449343,7.089609443639323,2.656465677323899,2.262997701121934
7.6563255816536335,9.387967741652268,2.8142725116780456,2.5961060901513795,3.8507132937425514,4.457839306332175
9.448238727291265,4.712215797686452,2.013550771213628,2.612945714946083,4.843308182757434,1.6332883152851272
7.231616607971753,3.3674780169686365,4.154005300906331,2.8560664561375892,2.894942590313034,7.049913178033933
12.137469749473574,10.725767343474807,6.3062523657264915,4.881587092254437,12.490245700312933,13.65041930437914
6.196118067510319,5.635258805701029,2.6011670580711375,2.175516928106797,7.240806735413018,6.23826773332971
7.528524341940392,4.422291279015023,0.494010182042971,2.0916335297059927,3.45254953099231,1.367195592237421
4.3740894151190854,10.545399411285358,10.151741653157025,5.4445456758419235,0.77054158573012,2.542456572364877
4.3286865639580325,5.498814730659446,2.4065102967370047,3.584030887827554,6.369856880993397,2.6506163633852724
13.769810324533953,18.643196285606024,20.348360033696103,7.557185458269448,3.9173572068524063,2.158335467278169
10.791978878445068,1.4327012635687626,7.150886563469514,0.7348137560238693,1.1299358331612377,1.7429392776655481
5.726510788652385,6.509575893666894,9.538490914975712,4.01251880740211,5.234496900335729,0.8462407311737419
8.302510630770797,3.795891927807441,6.846502875910381,1.784839237846653,6.648121619777405,1.262534668157652
2.2791294266549036,2.832527564270569,1.6088686505026033,3.0481225530302622,5.629566666422187,3.2583897861194857
5.646557351299346,1.2120187711226205,2.2112552195271413,4.303436260395225,0.38472601111406185,0.7350609768178225
7.166757908921934,7.122229043120186,8.301050280032852,6.390972318123944,17.000805505311995,4.878301626778758
6.395667063697964,2.143257168880967,1.4030598060970383,0.8300422084820134,3.877921741410034,1.7024662358606173
5.363530344855258,3.5540214762721023,2.7059205332462883,2.156740237995674,5.155524184274676,1.396151156648952
2.937214137847282,0.2602093061864214,3.95580928225354,4.253786495221208,4.172335253775512,2.8654222289350075
1.3356401736212664,2.5593155083206613,1.271065405836248,1.9858923801938837,5.177109704289722,0.4898602245040926
5.553771400362284,5.11590426411785,4.741081757356783,2.549169256620249,1.5843947580236932,1.5021046073160966
10.926262132715388,14.83574727219962,14.69910795560739,7.54501130299612,4.147138087940979,5.837429363849122
3.823574340884624,8.957579870138876,9.148205249805011,4.745867616447495,6.58203113857477,0.9668531810382777
1.8000903162248432,3.1237045287373784,4.8490388261667645,3.465239664078277,2.4369776203819296,0.1645856074962529
6.261999384756556,0.47191002104532864,1.2547534434863536,1.2833647879379144,4.8180713940358375,1.4329580188792368
7.030923405610294,2.5882445040205573,0.8272803324233584,1.95804738841413,4.523194457667955,0.2520460050356551
5.663649526240467,4.967412226833451,5.890313608608174,2.805821231873846,2.195400097418141,1.344086632344729
2.9256284111330206,1.517610376501821,4.208961895986433,3.00707873331264,4.9407945758399645,1.9301728780435583
5.727559435415223,2.6881644637951987,3.6513266869920558,1.48805999716165,2.0622930523740464,3.142763867258547
2.8121308199498825,2.5835679904388726,1.7852472280224667,2.5490177169812607,1.40018971313926,2.501261286464554
4.729195547180394,4.783744631700872,3.514302040048445,4.939046342308816,2.612255545030119,0.8941377315123514
3.486112877632307,3.276538800397813,3.8934100934664935,2.560332611539054,6.266874979747884,0.9566752704201807
12.892037948028365,4.849969669131327,6.929594437003159,6.4481863740576895,8.715009083978591,3.1736224314409265
1.4024554252959953,2.601281298619984,0.7059449159881962,1.1375419457630405,2.5527796479202203,2.194581387404204
2.935672977667387,1.8906636536949555,5.1185787862554095,4.615640671749347,2.528831717478685,1.0301541243690864
4.884193011399381,1.6097245990896343,2.670266727743519,3.2623591580466664,4.593145419796161,2.0106570100526744
3.8959169776403044,1.9240014504341452,2.2791979848071704,2.4757221849100914,3.676448738886364,2.9661911349696166
3.149296649266654,1.222242333265123,3.9168515830104544,1.2171579529101988,4.576107537946147,0.8471702921368179
13.897899590630896,2.713741055279105,7.004319989086261,3.2170818355341897,10.972862600103666,4.262538513071726
12.267694321731549,1.185044922541057,2.2067309409561124,2.5213351653327165,8.509197736947524,2.180626043529764
5.469872555017778,2.108926197916184,2.3111751396075935,0.6518958199034415,6.160488336064392,3.0177418512460013
6.205564977639064,1.4614226272964663,4.95956725380617,4.67231921842072,5.639056431420565,2.5322872162720103
7.125381390232598,1.2893160441980922,2.1133727465640946,2.457205381780714,4.146383742696327,2.675282652589669
5.496760275283275,0.8820552211944772,2.782061535567758,3.80184700027157,5.282522877386978,1.6215863620055793
9.250268026369284,3.4532854505228725,5.591785416126049,2.9023389000818374,6.61502355135693,3.823349801525505
6.9361079806994885,2.158872324804379,5.639374468735515,7.232554547659775,4.161564713531483,2.4669955501909477
5.500702843614073,0.7792081666865627,3.2511645336755155,1.2824740363027216,3.23987818028905,1.5754228132614674
11.907307627810292,3.038946342837615,0.46143815493612567,2.089474481255406,4.453088441968039,4.076414948726408
5.882461827986955,0.8472725843410974,1.50043624187845,2.7389854930835655,4.501195832391182,0.735505594575562
13.974416537473145,3.9855040320329644,3.18725535598622,1.9435061291416744,10.059824898551932,4.971356069840281
2.909049065383109,1.283776236696446,2.475154091577298,2.7051747126341006,0.6775438457027682,0.8499326894224087
17.60247546597418,1.081055874738571,2.6919319175920253,1.3248617800152884,11.787393537800897,7.808835620182907
7.69205664417535,2.8774966477613777,2.7791268389527204,2.281855316009977,5.317986301753012,1.9171628117974535
7.112042831536631,2.458907388873504,2.9254265644153863,1.1234351672506317,3.157707686509286,1.5990359276161321
3.8558343082328586,1.1274422523081373,1.5513937051151274,0.8598794896881999,2.716517415882228,2.318016098454658
13.720669340818006,1.6239538780590506,4.057777134288212,4.503025175135328,8.05639953221932,3.946497725722617
6.194629125492578,0.3079637603366386,1.0023576439339428,4.490946707773905,3.263296212080848,1.3631161447851325
