Gx,Gy,Gz,Ax,Ay,Az
8.094577,6.4244529999999935,10.853681999999996,10.737999999999998,579.3039999999999,11.355999999999998
4.639451553551144,5.351042931485144,8.902693540423876,3.354846189143488,3.8206916615372872,3.1643966473605807
5.328568108308362,14.580936371181593,11.766167819937856,1.9906724952597117,2.773372295043321,2.522548706464545
2.7637008317785665,13.451069812890465,9.400623555414864,2.368787115299837,3.378660607521281,1.5430352203039852
2.425653804590959,10.341640616206417,17.826482115262383,0.5444196085817093,3.292469299614391,2.490482618562664
5.591195665538601,29.68331991919428,21.946980672824477,1.9897367640866421,5.227875656255752,2.539347213685737
41.90214176394623,129.8344000600168,60.007909620483744,4.908593304000728,8.231006292446489,9.34416004812867
11.89186594259267,23.37004974516327,8.256795794213328,1.9605594517287246,8.074890841023851,3.765679823534524
9.474351845798195,10.915269032018877,7.2703697425926475,0.40678802297518235,9.378878046007548,6.002289926803646
9.0596532197455,15.744448045040546,7.03751118380924,1.0091351887474937,11.828779413870446,7.355843463673401
16.38079522757166,0.9440969498705534,8.853962368585693,1.1440332023236686,18.904285950792584,12.378627019729745
20.711811047441508,31.396499890974976,12.28307641063112,5.232920253284879,47.33628281235633,31.210495578332353
47.695366969610085,62.0284566317085,13.014977730652124,3.8710149625053236,57.07664716243356,40.73554502618458
16.10594880918706,18.649852435208928,3.705617805950261,2.605810530506845,15.796168922490947,9.894382968229047
10.396106968651901,7.9491281460427965,8.900578998361473,0.9830996786520294,9.939946839507833,4.9117490841095846
4.468838389030435,31.748998666833078,15.55123956304922,4.79463347491228,8.561710478187319,4.151443684824438
10.123895170188014,40.17655694255616,16.363874790604605,10.619999055783252,8.827692326816932,1.099603518464257
10.91282257924946,68.26069434674353,55.763034857403234,28.749082261033415,15.756105991609711,4.000090375364412
2.3812432640536505,47.46726782278615,34.95823918395465,23.742709349154698,12.160731399845785,10.109657758188478
4.961084514275896,18.41473707115708,16.042766125327407,9.803585885020171,4.24079520923142,4.016685583096008
7.090809164088438,30.626032221710638,11.635140088805217,7.822250406879356,7.71981257372363,3.0583804414003994
5.943535273584247,18.533755252126003,2.8543234632620074,8.073979718649598,3.0080843170443448,6.7010041026255855
7.3967265046299095,12.589409692427758,7.263615593653496,6.905099003121514,8.139222860454659,7.995710035065027
4.8568866076068655,24.04293388547776,8.290522186779958,7.826156788935287,19.837238494787073,36.99555202055047
8.9353954205228,18.26242674194054,6.790061650785783,9.124174762919296,9.978163282709557,9.700733068412587
7.650270932003043,16.389130090922507,7.322110887309223,9.816662739453824,8.350686551542983,6.451477096254753
6.654434539785552,19.62503620855179,7.067292216777113,5.316506499603328,4.159712565115643,7.9123289682632665
8.45121676328641,12.846003700853664,6.883105275692826,9.043936794400217,0.9455780601059635,3.3670700132068876
7.243138160829364,5.6538656650344645,9.438585226251675,8.883869560594588,1.1641079480616505,1.9303183220772318
26.22854024947116,73.75345521146798,24.507871096208035,34.48438239705857,11.547777028775991,10.409321430862779
11.571945648573648,21.027731108879866,1.7908994875429205,5.353879886689202,2.669822137244447,8.279762164070753
10.826524888290512,28.25703792124354,7.28202174391557,15.333419549514051,3.063894117984715,1.9665870551785325
16.574458718813702,20.547878005040776,9.22351694193331,3.56610612505227,10.833751849498181,14.411723415426199
10.101497043267527,20.693377601657378,7.103966273767955,5.9454572523039175,9.02044916468252,8.352926485695292
17.581321862089226,29.543713012757273,7.394367204857679,7.360394381270548,12.129663610093873,14.902874242941476
10.565420427916056,38.636768410465216,18.866000096853455,2.5848372700376383,30.938167655583026,30.110878807597473
12.250236487739446,17.32765879345367,4.032773587386745,3.9981407478037148,7.371710257820313,8.89437942300734
3.671107487427235,8.487919062233345,7.794467851502533,4.926105148299206,4.790869404906534,2.9098733168741115
6.33483723399752,2.188393170754407,5.7441993756980105,3.4025768662573816,1.9843283700095227,1.5864066221912736
5.270691918697677,4.042661322821451,4.015038002321097,0.5732945269849508,2.6623253672800167,1.0480446279420481
11.77458425676583,24.110186877342514,12.034471687565349,9.076481530079704,1.9596402890752556,7.4914802459651035
15.586705947028515,24.50448793024706,10.160235447894568,4.673965166349624,9.681426110151698,6.020107977239841
10.972467163855711,8.381385886962608,5.333839492325826,9.225339167637985,5.530738002678344,8.009834229836367
16.710797589311245,21.535591334986076,8.21686393328949,9.09107802643568,1.6378110761214066,1.5629829274583882
4.234740348983795,14.81681137937895,4.352223473242635,3.9415131724435786,9.041158207463713,2.322248284563605
10.321666096837726,8.488145405256498,1.3214618689092346,2.3496399823134038,8.258655163782542,2.4877201800638904
30.730905295203513,35.7091239248782,21.221020885600197,1.8007703498799967,24.328493382984526,13.853613433577356
9.977454826422134,28.698917820741944,15.06686003261254,4.642286696388445,13.88391439172006,5.775554590560446
10.025176541098519,9.078404023093942,4.794211944609114,0.8006492679819659,3.9331819149483427,5.951212558563047
6.157995956419208,9.947459092862232,4.519456116540989,1.642210682992113,5.804591789692085,1.0946047013468276
3.010974101246211,15.870709885441105,3.5587789784627337,4.905820616984022,3.004531601220894,2.4722275752643905
4.568530467886303,10.55921217822419,5.209721328885944,4.847029394487343,5.090967062001619,1.589698595289694
11.738819609451987,43.18133761249868,6.242090466136765,11.628374996121316,7.2187218808188,7.1142484101020385
6.590881240645405,20.16695262292446,3.516306786439961,7.005714500596701,2.3439108195410525,4.284705114032523
13.620964681677387,19.77682608446531,1.4864675336887239,3.14821682768592,7.114293305294233,4.654035720598077
14.426746110198234,5.834511739230059,2.0217256806285206,1.7864998125785836,6.732815004256887,2.202724542480608
12.483237093296463,4.3187229639236335,3.8136018045161943,4.863453280472414,7.550815032459291,2.7807129432529942
5.264946447170356,13.01981877923294,2.5012013189423614,2.0296720573249583,1.7548532140391697,6.264861963888123
17.600312366605053,13.348408707506403,17.439263813448697,2.356583727216288,17.51950764256804,1.6252807214360458
4.023243693336354,9.172704263292001,3.247333637873556,2.6189484956699314,11.850029686290092,5.276055536713391
8.649299413467265,7.59183225177818,7.750814539558609,2.6849326078964664,5.717762452189072,3.0234611598258856
5.954580215293505,3.4088196222812632,3.8472704098410224,2.0980107902029563,2.790175415970233,1.4396662682939785
7.3371091018815475,3.7495842351268753,1.6359494689734317,0.5108266533294822,0.2674846533715267,1.3204075533733177
7.02350745572006,4.633716748101924,5.494874254368274,1.892286827561429,6.550847569328927,0.401129567912073
16.005003672254894,20.4853225418641,3.380809353052277,2.5638331645247927,9.086432079374637,4.60577444317098
3.2413964595769893,6.150137286222616,3.4617842044849607,1.5766077207332285,2.7831221250139526,3.0405281538570903
5.112980971608189,2.8327940779987726,3.0660643820718807,0.6620018210669265,1.501064640542992,1.616521777196703
6.881499131767447,1.5674442682687009,2.6633461000873733,2.4381096757877225,5.63664464474866,2.224336317426305
6.444371636843112,4.75379828389229,2.1213437836001594,0.6136444534547254,4.382883290378388,2.044691608851268
16.540162691272986,10.914631993145864,3.6353135073021,3.3577267415998304,7.93598229330566,2.1954789131165815
11.88335204302368,5.881979550059589,3.8601233977892173,2.9928939588126986,10.970543614638883,3.062204117519581
6.468396131225963,4.692137496860801,3.6134747770907767,2.233285505687906,3.0370684755549058,0.6589253763071623
6.9102360769949,8.71998606784935,3.863368856609548,2.81478373246515,1.8452138827969986,0.8961888270167969
4.362077118584892,2.214274648129442,2.5671181456534695,0.9275681082925512,1.5696509862415071,1.9765148229788398
9.570401859904623,2.5625026833932174,3.0523515290743295,1.9385079752260712,1.7163023201485827,1.0148545674305587
6.07938248116868,11.323547988028206,3.3790724590160495,1.9331863883056986,0.8305738582263295,4.151513941672973
6.852420177916948,8.451235002026348,3.1165954591078764,1.6019801575152774,5.105767362911433,4.021075348573929
3.2511909891248703,8.998266259029153,3.8978876602536494,1.1093970484889883,1.2947542498973308,1.6297191495211518
14.135673124792419,7.9654424559388515,0.883725714519691,1.968159225462192,1.629993163683453,1.0884901010523242
5.109280314374699,1.5894806033196884,2.1558506562740773,1.0368963994704985,0.3492108811573898,1.6847892091146968
5.8951625725817545,4.097440308582611,3.1502009778945332,1.1776310815641344,1.9923675397297271,1.3772985579307544
20.56405454396542,5.500745132833486,0.9660455758002446,2.0907139935083054,6.08178856842945,1.9445403555539196
8.080245556118197,1.468030369110475,0.4308265687305688,1.2337174333743817,3.671140770373337,2.0419654313416076
5.732928186368405,1.2542361928243853,0.44354546250611215,0.3731985723961168,3.044835061199769,0.38587706310640074
1.648143532692524,6.8891123229815125,2.580296969655376,2.3033111902191243,1.943619318194973,1.7338842445140978
3.620311859756333,3.194196401614196,0.6608932970654242,0.8470936149086021,0.6064179962142391,0.8925143071190301
1.0331290669289024,3.933001685088971,0.9956031630234745,0.1459910904142194,1.6296663029641838,1.5199130643854935
12.753647525569818,0.9682077603190707,1.092090219020477,2.242794128554692,2.477846593886752,3.8163021832901243
5.5216625282807374,2.851259886847821,0.7486134694518372,0.4684065180590316,1.3395024268513887,1.706353265818481
1.853341382339662,0.17495442847790607,1.9820408231434823,1.2853087252691233,0.8016197864868609,1.5096080704001802
9.291931055354425,2.7381725832477803,1.981803884154006,0.9254906792272842,0.701454780645428,2.448006990835866
4.597943883797705,4.352346861194116,0.8409944676917591,0.6248318418105036,1.7648841577846026,1.3228891162805456
12.457122536848328,4.379699469055816,1.6059416551462382,0.7772483476286971,1.7169356065865173,2.5091287345815103
11.200956478638595,2.3135995563666314,1.5581432534609305,0.35538599853333225,2.445877438706633,1.7715865114072566
4.318717153583851,1.2714264769920505,1.6700781219252006,0.8652623941648997,2.67813549592923,0.5637336899308648
8.70743879932464,1.5556555753739338,1.0464906657350435,0.5687642757672148,2.431860011257673,2.5230761771496755
0.8117854020636663,2.9781498104085893,1.2669995056864045,0.7511093715352833,1.0522762480182677,0.7905849591437912
3.6936110332944017,3.1402938129403912,0.9603540149060442,1.3309047548433435,2.1050547660668197,0.5364285843199362
2.6226454678070907,4.723178953704369,1.3356719799328842,0.5644927268632591,1.147659894413819,0.6040286779370052
