Gx,Gy,Gz,Ax,Ay,Az
5.164280000000001,4.565309999999998,1.9255559999999998,2.8980000000000006,485.344,18.600000000000005
1.7582987191434107,13.136527403404315,4.963118982446411,5.004168959181114,2.064010055982943,6.303615363107546
11.562630039645171,16.47504814001187,5.135166726321883,3.444658416191051,4.362185816233775,1.670318762654967
8.359309558974653,15.277167759829762,14.915591246539037,4.6340345490712584,5.839884454908043,0.7753432142563497
17.103258698603852,29.301447850745223,7.427211627643594,3.873038786650565,4.307070283804372,6.738297185958909
15.410141182360364,68.65762070387913,14.685034332127618,8.863223090456353,5.651423376512036,7.989490774322522
7.312552324549973,11.516357121948547,9.874502172194056,0.5609724808366064,7.8538652563124725,0.9218876183049614
29.063040613172237,19.19712201893213,11.947277152561208,1.3256067574316193,9.86392065557249,3.3789801715083656
28.01360918923144,28.160266850626734,13.711361953881342,4.972653104175803,12.382967864681609,5.184898999865878
61.80651531847793,13.933579384850969,5.274653591310031,4.258133532388226,81.23978151158781,41.62219457316098
19.607307613964924,29.074370556042783,14.703380199638278,6.059508201376283,26.02108931401954,10.427424852903743
12.798311201894899,5.317916041522242,12.815428451006058,1.375244383380213,5.012809600223137,3.6271562080486097
8.09549278753154,12.237156670775061,6.3402949120412195,2.840654491582859,4.609630256993012,8.665893154222298
8.364742433777206,20.47244328233759,18.596618895441917,4.47178868340295,16.721410205470455,7.973500484003485
15.152830134741226,69.16287447737842,61.579597728328444,21.414257646417447,12.360461888065773,9.976704499974884
7.1628239269399,34.778837751889405,13.107444973265096,6.090458960901459,9.657342838498044,4.8336833945453765
5.635539485251091,33.762076798364255,13.789078527214134,9.726646956271155,14.749926935378737,3.5394617843298453
5.659557833093185,6.716973721510304,10.301981174762139,4.577702734157865,5.457810092769666,6.368579313604659
3.581258175094515,47.589421598076356,5.895472405861493,10.735462709332031,18.38806140604565,14.599751719002168
10.923179902231025,34.97931638552824,17.38952782790634,15.433802128494346,10.049977816563914,15.263880781170322
4.583634266131317,9.571300033001275,6.8306358081889575,0.8293391065111132,4.9533812202785645,8.598754780109672
6.126608512177808,8.798686898208182,13.443851205794271,4.199071375964092,6.170832403062374,7.105252952354882
10.700027461327856,6.109400371083961,10.835538066592159,11.399707481613397,8.781172381579196,8.24751944882611
12.625251553030045,15.915630957068887,15.594414827245563,11.977537631811987,6.255592292859799,6.754428802896662
2.8218641139029947,24.454929644850928,15.974397438703914,22.829690358510764,3.2237380112686402,8.436790463306309
7.741449423529024,1.7613720404333855,5.621419786226316,1.8560992554663216,7.092300990623315,2.535369781818585
11.045268925484907,20.50086739670427,3.913434488791695,6.619622096534614,14.383549278082434,2.9463049024973516
11.823253706048503,6.220625339560319,8.658460902971276,5.58523416611742,15.67361552516905,9.740695843736006
13.250783372003445,23.867789403445503,10.161125650473714,10.619668711631869,30.223193683219545,13.528906798595514
4.383711841233213,11.064761061480542,7.0070614977123595,3.097795700600449,13.326461527648146,11.124701869839628
7.119113536942679,13.020546465399208,9.68093090960451,0.6560346922756158,13.618168218451707,7.133481329056903
2.2300391995732993,7.53892543917917,5.417422845162834,14.660677684693079,4.899646743906404,6.790735288414195
10.876333545074775,8.168851973777922,14.692945110467337,5.582419814404141,17.638494921794592,4.71661755482337
5.749188886998445,10.477566322714098,6.093846790499458,10.507473690184993,4.255356204027187,2.504562770229968
5.063405227588654,10.780072353089682,3.2368200545478993,4.078959349220669,1.356988024892819,1.6602593728962605
7.812898871530366,10.796970518121864,5.765396105611677,6.367553954164299,2.407541735496762,2.629203105502931
2.1241333247096743,13.058805965807256,3.3445299624577927,12.628392890561113,9.028051725332986,3.8843055791540015
7.182930216694892,8.246741335729414,6.966426380364173,5.135885020280742,10.16106126104927,7.892104702210358
7.097428557166197,7.720201963374625,0.9566362824509397,2.145721489880221,10.39287655177408,6.6700827433731495
2.2601002095660676,6.358612927714671,3.6810571048743115,3.9476003194473,9.316708465249087,4.181224107319706
2.01243864326568,10.029541450996408,6.897885903702465,6.184238744996927,1.9806376322781776,0.9955184468139361
9.399163333671831,10.434240137429175,8.763885410819848,8.136724966013732,10.95406734020885,4.593265781115657
2.0129504634144566,5.853330086522832,3.309383327834627,6.855132586672119,7.617806941655255,0.9432030492356802
2.3379473651440197,5.336219976121046,2.980914780523195,4.952811123174968,3.9963222887532903,1.7448408838045029
4.077921768255227,6.5856369035432,1.595030555491198,4.676068161667058,4.801554459542686,2.3505845784484944
1.5476352569098921,3.446570644811667,2.8851724538485737,4.5805420245620265,3.87553199026112,5.100333904664212
6.522938882995172,11.916072353469398,11.59811150518701,4.12575506184952,12.923580241105798,5.585774030380951
8.712211719548902,7.295061130324763,10.303622497800623,5.299965986119214,9.319287996390129,7.3103874081531695
4.579648018329978,4.285061381013907,8.502139797464697,0.34088663892752924,8.014904117394225,3.6111807728283893
2.9279650433469584,2.778063746444303,5.617714838367915,3.625557193995075,5.344590904056494,2.975569510258088
6.287151708564309,11.053634842996162,12.87781032912279,3.3414564348130145,6.485111528858677,6.271243861064025
2.800300440931997,7.906058850043915,7.269473722018492,3.4553793558064747,5.582816735171381,2.166000214251208
0.8319850081774666,9.001546819233127,4.585820674711188,2.8074044234128457,2.674447605120742,1.9268054393219263
5.2388861690126625,7.963307725974454,4.162986975775802,3.7827340935314977,5.841936570493225,1.4240003626453168
3.909584922545988,2.586980404719703,4.196566360476458,0.4548905765667863,3.6141692019331586,3.542204544547581
1.5088581069644935,3.78591316080078,6.549031433047739,1.2944848627866328,3.4423392299081077,4.738333122331909
3.9873870730205616,2.3349121053382467,2.5641197028246636,0.8957882359987225,5.571540515244683,4.696073383023369
3.053387527962231,2.980198677186718,6.6885189337986715,1.600629267357256,3.6721860547249583,3.793293959378479
4.705239604279988,2.330632318049096,5.4154792483444645,2.073365980407538,5.793337047785245,3.999810868162366
3.6990240307867874,3.5795839347789946,4.811453436871036,0.9751598261187505,2.4673507269712993,2.7559427861207717
1.429527120514079,4.327967516862368,7.478046760311339,3.5783815720917844,4.2239094440316025,3.3644854564943896
1.0910057079373914,1.8486805597826321,4.438058562506453,0.4819794402358161,1.0188908388495739,2.222787134096974
3.5212118409179944,5.152368218442807,3.1484775185956657,0.6750046988185863,3.6347349371035276,2.7562568273777837
1.8356515452420858,6.8979051824096045,6.925514497554096,0.3505685370410016,3.6616491642699374,2.28528440694418
2.1136574972480138,9.840113887509055,3.734009010884367,3.1879758052613227,0.4618899853619369,3.4885443201118775
1.389258877909113,4.522221647090974,1.5931630218277955,1.7706043509468476,1.9709265859624256,3.557094866970375
2.433074803523845,2.778228764719654,3.7648748083495933,2.0706388232954036,1.7659947233935944,2.923049501321657
3.7974711492168356,3.5406949044211573,4.294818995569261,1.457303050728081,3.924184506894286,3.173902502650485
1.3627518332976134,4.989454732158314,3.4949031585397647,1.3949621016080773,1.5934495703811993,2.218761631093371
3.575621823587606,1.242722530657697,9.201938939345236,3.602226423449586,4.826158134870203,3.454099475737456
2.769958692440944,4.649718566404053,3.662006969962164,1.7192397916500899,2.0959716106524517,3.609072995555923
2.085816222795564,4.739905224894256,1.1357487813574463,1.7775737232586801,1.3703864548971707,2.122160556021893
1.5400892513051057,2.614760000961071,4.927879169831925,0.47043461904810135,0.8564950730882749,1.572287136854165
0.35659978196081876,3.411348445906536,2.4021564474969495,1.7167159167122028,1.6955072030250808,3.144624867629681
1.672434149795831,1.4973984165872984,3.596977262279742,0.9932900970112879,1.266708705002355,0.5542280975146925
2.3873220651815177,3.7735625455769437,2.4666508613205016,0.7601747795010775,0.594047942047635,1.1497792011400196
2.4323614054170775,2.9597930853524086,1.5768642395442438,0.6300361152172823,2.3927920498692896,1.3145436963575037
2.1884054385171354,5.748218147795003,2.7982097600218303,2.065937067173644,1.6002203694150094,3.9368842762371883
2.6883532374845354,2.237481406978956,7.846123077487745,2.678005962087226,2.8371840339380174,2.2714901592891503
1.7267398055946355,4.525015383104017,0.9742596285749509,2.032988932581779,1.4220225033381158,4.007224974967091
1.1768688910785188,4.170579677015352,1.853101169967606,0.9662060154631478,0.28438192618770486,2.004540720956096
0.8792984764849676,4.490471579699617,1.411621216872951,0.6497648813148147,0.807353797682432,1.3925281757244905
0.8574846871665327,4.799574859589461,2.0584562913819258,0.26258141777949184,1.7971170875341806,3.0614162053668545
2.1154250099717102,4.127548197397441,1.0103118060058582,1.2808155397609053,1.1338471920034854,0.3152351134663924
2.2087788293424726,2.206112160208779,2.118630426954491,0.9185853140003185,0.9401894907298918,1.9167834550885403
0.857476074756699,2.1971665688599056,0.9636399303839904,0.9784570279520052,0.8852025655864193,1.2954941873182029
2.768996206454515,2.460207858386778,0.2298971794574667,0.4143408827039028,1.4386123582251333,2.542683566681465
1.9215570926496501,3.2726829058746536,3.5218377280881192,0.9482765878363716,1.1441468881633852,1.5857019459209887
2.9736059458918125,3.7335421804884765,1.1275733556077232,1.729230839835162,1.100820483391135,2.4854606434422615
1.3957919413198092,1.1319748575185182,2.4051622395265895,1.6295745184374437,1.7843184611606258,0.32602115506554624
0.27129943760415787,0.9184535185106064,1.835299406425471,0.9556787152538865,1.7668903853575673,1.9787243309050047
0.4267022507570951,2.132549793313023,1.3677343428527038,0.059441853654490506,1.0569962020915424,1.8581355654509468
2.0976564071047914,2.5701251041878588,1.4231511097595417,1.3672640454708784,0.6824012301513201,0.9670888547152932
4.16456481089868,3.8463944207319356,0.5445188038281344,0.8543673593610464,0.8697236700053813,2.432143321860367
1.053281775570238,2.3785990335487455,1.9335316779024605,1.3678638629519306,0.9636258861906228,1.6762064906628011
1.9909903630267736,0.7317932674894378,0.5833392191474809,0.9169331115803753,0.4112433993169108,1.0642901353542402
1.7299284396442274,1.896739414811404,0.9726987039193689,0.5779306183103393,0.624478077319751,1.177326920773718
2.2730502295984016,2.598513071155581,1.9015250873304141,1.5019262033925596,0.7731874735652402,1.0006206086688756
0.5560050655977615,4.763507617144925,1.8703651690042826,0.4055056224718402,0.9718415245718552,1.196124184836674
1.5349041767526839,3.3502064697786316,1.1595560205723527,0.7657644406558117,1.0798633023535784,0.8796957977575489
1.3610772205489963,4.522611116969078,1.4937144704154905,0.5455843209800699,0.06363110068117793,1.1055683439528883
0.4554786954982698,2.262203631344089,1.4696545452277636,0.880939877827882,1.0330727698258801,1.8522652485441837
4.144135602067717,2.934843739876248,0.6573895354449595,0.3944948637892457,1.427137086031918,2.3429394052472587
1.9051952765899505,0.7491402490091637,0.8722195431305071,0.8133585172708766,0.8034013364045781,2.0644698516890325
1.835598184654013,3.0353248043268395,0.4833406979521664,0.9662671692993381,0.053667014506235344,1.1838683757653357
1.3235891076945085,1.8998515069383584,0.6243694773971397,0.588258058277784,1.1547647413534963,0.3928424631221654
1.9476230642249093,2.0318878010767967,0.5154352484741187,0.9385218582585007,1.1406421843262906,1.2623648697859209
0.6796920687240035,0.11362736684982128,0.8804499424755957,0.9892799294824456,0.8247363703058,1.3246594868452686
0.9335311162232263,0.27150584406566775,0.8891944803899419,0.844125879926346,0.5855573016552167,0.5771086101653073
0.7836991317775587,1.027745169624155,0.5267270500620489,0.4360233881466858,0.3142687030542355,0.4218062636260207
1.018672120784989,2.6676901910434436,1.0745366550184698,0.741690950525357,0.7408645365637576,1.5363483735692278
2.7432505055090517,0.6150443614460036,1.2093385788148332,0.34063408140181106,1.948392943790871,1.5261899082335069
1.0968659106193996,2.674287185668917,0.788656710867067,0.5604165671574527,0.5912124841226651,2.2991175919552638
1.1195958666348618,0.1833285570585263,0.7314546309055932,0.6639339253647708,0.6829965287055023,1.3758600852007676
1.3891984525217067,2.758219704254813,1.0663686936465027,0.29990455380001535,1.3592712376978824,1.2219829165101939
1.1428503747803356,2.0327904998184776,0.41007217268354823,0.2735254882624503,0.6120329118872379,1.88236238481684
0.9565667859553274,1.862131780762777,1.1554723568652998,0.5554705026728545,0.4286614414313155,0.6638671471883134
0.6748628694556242,1.3750730833656317,0.5628328797823487,0.2962879043226709,0.9349815634354954,1.021849836728338
0.0,0.0,0.0,0.0,0.0,0.0
0.0,0.0,0.0,0.0,0.0,0.0
