Gx,Gy,Gz,Ax,Ay,Az
2.4369189999999987,8.792353,1.5231020000000006,13.924000000000003,555.252,86.42399999999999
7.474527172392524,9.48633880653743,2.962162498176744,1.9226477447117523,2.03222989567645,3.7772730643700214
3.6659573735794004,25.921623380824585,7.063186486350413,3.2594698410892344,1.4641946443004703,2.8204505361451813
13.014170326837432,18.760651623955752,9.120878152314532,5.07126435589373,1.6287794171465926,3.8933498955076535
19.763361269443813,32.829965227098036,11.231881819582735,7.611921334582546,0.3856459771198838,4.336178682226693
13.142077766076707,19.590346162573823,14.744328774304968,4.232258309891888,1.928846179510047,2.8845101174014984
23.895689643538418,104.70485364890843,66.91501999383591,20.640679610452043,4.106542522315933,2.062820248301495
7.856342375325243,13.90445452811966,26.965978466869537,5.227152039372923,2.2003466779020853,1.9860592923378784
3.0668191163885523,16.763079670633275,31.342299942004708,5.396598505710158,3.307743568743642,4.624193227805308
10.61228646512244,46.3617471884678,14.245364821084376,8.633440631022575,6.873874170866392,6.263964042571137
8.68669081951867,38.56661847359904,9.700508496261858,3.244879851791996,10.612864309109487,11.043286606628474
13.676454929578503,5.603194150782217,12.158646123396116,2.09978709617875,26.66951692605568,23.444737893968725
57.58590392835191,50.272975343463564,2.239800985132473,10.666555546292503,62.498163883891294,50.32660959862442
39.31463282498833,12.809380757866135,20.53096650338531,2.3585212661268016,27.52017280614396,30.278297548936045
16.51867518477476,22.884142821978667,11.03491480479325,3.8688380069556416,5.921855901081162,7.965900554087223
12.328049663402526,18.662909135520632,19.732951182367295,4.453112963892303,14.630333007057926,5.199658801816141
5.8776648589451765,70.81891905674338,20.082055068141518,16.998791854072117,6.098010165139969,8.566168766647273
11.97274515903409,41.1169273563628,37.536418470160605,11.380142333578737,9.15936222128593,7.020229081085887
20.81763176601737,70.81536680782912,47.17984706311033,20.928131275650586,19.811457817592416,5.387772826545348
12.539456576449034,106.49547325466625,76.3427697491745,32.46484198407832,3.3988770502790944,7.68736954872456
6.423442361757888,19.925760488854316,13.510959351245258,3.665739012042977,9.986052100284496,8.05121094266279
16.476170892280884,8.674207468800986,15.816752407920646,7.526475547206063,3.580543332431418,8.427015807208662
16.436162555147074,45.152008387492685,23.517784951416527,14.739634343377507,7.24247951364713,8.751375773944817
17.77871195245047,32.08499258531599,4.977361277024213,5.033939976417863,3.2773610504569235,16.724417386029284
11.741752720394357,23.059994537447363,13.7978312609125,14.343126152921444,9.920732082700505,7.948908051123406
21.43130824274642,10.373004977795196,4.4219317763681865,1.121757408319361,8.138024921963186,32.14653202667283
4.463360347810147,5.661079734790474,9.22393147312239,7.822360641419854,6.596008717321666,6.05446662587658
10.442010593523298,35.52162030950634,18.045618971588393,9.293013880605487,1.2305318498998212,7.817276159850892
13.978398167634486,15.677934111675357,8.597828795707755,3.2693420860824896,8.780043017553503,6.321038598687354
4.2972525701859885,11.782113872312063,12.058396785726957,8.957322991344439,9.32895644751066,2.587491083547743
12.842571184452583,8.760732210288632,10.798167940189785,11.789219169348518,2.998629705558246,8.287033876111112
16.291395610524525,73.62245894325075,37.872726220710796,45.36339769417747,9.02930172319488,5.800835589087217
3.3905718877725706,50.63558825446551,9.582912196855906,24.988745270416256,5.05940161191525,7.069393781568958
14.495778665904396,16.741679325592454,12.768802751358342,9.12194052085831,13.693677221394648,7.658503695530333
14.663123754159141,2.3673253165536132,9.39806426644598,5.4187288018008815,3.3372350585550765,5.90857855102178
9.227021940401457,4.329308665695103,14.743213866895122,4.953016904332784,4.318479856810928,5.413680012644574
6.729950833224039,3.669786483457164,8.219984686820444,4.266103532621578,7.47951860902632,9.673343304942046
11.107069797196624,7.5623434503086315,2.5761020425876926,8.194432207046162,27.529102320192848,14.975429457768309
6.260905177295102,8.915426221375338,7.539437361591481,8.815934711772835,17.23012411182067,1.3909890693421778
11.63065898761452,9.233660026031888,5.853532918261638,9.312926606354536,12.616713362875519,5.451145429314588
7.8449398408308975,4.304988428873747,11.412424922228642,11.813356775505035,2.8320883909947296,0.7875518290400253
4.589946781594317,9.871329361856438,4.3631783775658315,5.941956223167912,2.3229665620690825,3.153272195239026
3.3106180922809503,5.859958832127857,3.6562266215754198,5.796122312868475,5.333652984384248,1.8308669367090888
9.114748627857063,8.548602490660283,2.781771890068109,11.281131876562695,12.528915358101344,1.8829056457718234
9.941418696933859,3.3887716541879507,10.979092355528214,13.895382497118467,8.00789710984931,3.2650942414053943
15.712878217968465,8.985838721194304,9.630892026904624,6.0912345369189955,8.505170509624655,7.934715317173521
1.7297700959590703,3.1412512195482196,2.2129095196601956,7.746114070488742,1.1364458478769222,3.0882194717772053
7.474363540634904,6.494752614331155,3.349984263997849,4.980734585058009,8.533686271809053,3.1417754644562796
5.464258556935863,7.0401598625565605,7.133933168748202,2.4799890567228857,5.861080549590805,8.506554608737305
5.339517087507941,6.416182112609451,3.629445188753922,8.892464937298056,6.148156358337623,7.160115616952858
4.3562575259899114,6.787083735809506,4.759051453409392,2.8236877885094502,3.4830617991615607,5.552141003218862
8.564669450610047,7.105969735685587,10.8951164261147,12.498852169573084,10.136668086735847,2.130453226886987
1.5458563671394268,1.2390849335616558,4.095212104099099,3.1249306952823894,2.882042353191988,1.7383909526512027
8.504798570424999,1.2303370588495193,4.875172308531885,3.7290315003943135,4.403763281894663,2.514026325589039
7.548580951276498,3.917506683301772,3.864670068473949,9.558454711606858,2.902193048766746,6.16005335860584
5.607710487480555,4.483671691014663,3.0432248433493023,4.582916183527824,5.513458220708172,0.1919189004976106
7.288834854421708,6.985973420511064,4.909689435856105,3.743754556625338,4.674924196889943,2.8390812195702546
3.3174231822658466,5.735991860655981,3.3724542383109917,2.780651260292541,8.604377935742189,4.826571044315106
1.1238175680867437,3.5826582572778056,8.053129068555219,4.39065269542167,1.6569910060744366,4.7443300293970285
2.6749735735657674,7.111835132668646,3.8215078006823755,3.2876174421787288,1.9807154482535547,4.047965303775469
7.780083767293947,2.1763477379188343,1.0762925008167468,2.0329005891730647,7.475431195999223,5.582651014647836
3.577529875199079,2.4515678164806602,1.6005429767934924,4.358376222904639,2.327841329675149,3.3781283191135527
3.6910758380338957,2.7485263829847786,4.286990268719455,0.6299163316066136,3.6249880664533753,1.7274952303970932
9.204836873877277,1.2986017342808027,1.3175703061191149,2.5731286959994653,2.308958846616886,6.561575043801008
1.2280698468582665,2.9810019829691883,3.48078293668939,0.1852156688468907,6.076725271207565,1.60049730453337
1.2597344500942884,5.477916615694161,6.588076566712492,4.377733969787807,3.324587760689578,1.8498016851684327
3.9958464621752263,2.96793573688349,2.4243042664062493,1.7974809268218945,5.195804890492773,3.9472344523118674
5.243441837836173,5.976693445247516,5.768468317234384,3.992210166093616,6.576644115520053,4.975756239352215
3.989215566325833,2.283882901078248,4.9702606055285266,3.6071844905392223,4.985256970768597,3.4548359351082616
1.366894214216193,2.376698434391058,7.12239454645724,4.54510125825889,4.17279372894812,3.018989308990311
2.86045533023539,4.931789977131082,4.53797112936608,3.697533692594659,4.0685912161198425,4.572906941004736
0.6937365714959188,1.8099157272198223,2.9673475193424617,1.4409640122970855,3.6630431060832507,1.8118435172440985
2.1911168600206397,4.892508149660151,4.771533823117559,1.870235773786425,3.0608082600884536,2.508740616204984
1.3402679711641425,5.563149729955296,3.746042146428295,3.51017515155033,3.770414426603616,0.6920378214271182
5.92297985926388,2.0482229303257506,1.891705286639456,2.5626559057717073,3.968389081661194,5.18936388374661
2.944007300031854,4.141504968041146,1.125587472692324,1.5689710256178482,1.8887990562671433,0.517246441974863
7.383999651916872,1.5047806325649837,4.303029785891333,1.446942398340772,2.5408524654258904,5.326757838910591
1.580901997883814,1.9323491013043081,1.4198106875217158,1.1404166809054597,2.2784629083171786,1.750791621748835
2.7486911888954286,2.7167755306077335,3.4619075256081357,1.1382031792944605,4.025472790415355,1.936859884926203
1.3396844433710908,3.40592210736267,3.509897682128211,3.0819758186258572,2.43636784201037,2.2428963601328253
4.260122778565651,3.4285366478284773,4.461204611266057,4.2215001999378075,3.803229270993547,3.4253702652584264
1.2690717339459463,3.4083145029944872,3.0112516925412036,1.5495653676370293,2.2852735263838224,0.736634525335489
3.926408517481067,4.072025361591395,5.003810127954847,3.322454129899991,1.1408908485790794,2.0039239155174524
1.4693588456766373,2.54080648617902,3.7808009864711343,1.233578606891569,1.3514545879485576,2.2358553842578663
2.0883029574742706,1.90706955431262,2.7932617170442153,1.0020338839651213,1.2001418146382343,1.9690153227291363
1.9430967578114258,1.8933931392325223,3.111097886034407,1.48876710535131,2.662522086482616,2.1428897037202908
1.8883383964983593,4.256888134488698,0.5824049519696128,0.6398010218425254,4.076385996125269,3.163151511671834
0.7492963428234053,2.76399058559038,2.05859573444603,0.31245972252884396,2.0419502545086003,2.1623844358085287
6.158755224205887,1.5070090255945,2.1525609341624143,1.2169292589106084,3.5422840881996467,3.2709312812980893
6.605515048190771,1.7218072244862634,2.4150826701026142,0.5839855244975822,4.081777022136864,4.360552219856639
2.0650974561165873,2.217576872296518,3.1456250740455594,1.8378576422241961,2.225361513330543,0.8594184976567835
3.16806301450427,2.8018223550380816,1.3608712519649107,2.4841672209661447,1.6339841061598976,1.5056546129777966
2.1918692491157024,5.785769557397271,2.8386497428574753,1.515202602734725,0.04078714999354497,2.6201832937283083
5.229874913157695,3.3649378509756995,1.2964320489032728,1.3574851345171466,2.3680584702065155,1.2806871393039276
4.300326637720246,5.409861518614394,1.1436729901571714,0.544286366388838,2.844140654345114,3.509008481413
0.7972150427616252,0.6664838098748963,1.8684004106182392,1.8639970838208186,0.9797607995095136,1.4655378514415316
2.194079314081575,3.36763044013676,2.597208257986837,2.744395694970915,1.4108423734149425,0.8332286065581169
2.433812546498428,3.4286068760978465,3.1265570689123687,1.5370955806153848,1.7225877656169546,0.47080730823464023
1.6731214638750136,3.2854773086358833,2.2469607897480772,1.3063189521492897,0.2418515675991291,2.8723440852146975
