Gx,Gy,Gz,Ax,Ay,Az
7.095772000000002,28.102332999999994,9.175197999999998,31.492000000000004,594.226,52.0
5.917301769026256,33.8028904812692,6.211219190162751,4.232741038478961,1.8819074943613388,1.451306449174742
6.300146326557049,29.545531831682354,9.719752907647363,2.432776688169229,1.2253012373648364,4.9779491902821045
13.228273634816372,23.080522511143705,9.966751734409458,3.431145391339373,0.9499577328374978,4.292612772403809
5.060446606672009,42.2426789756337,15.06574255113503,3.064751260839772,0.7608033352928244,3.2802383063475924
18.117595031254744,85.28937424277858,25.90950624104903,7.553854820474655,2.047107507746818,3.7573288171717274
29.968166850797708,203.4671178522948,78.45459013836266,19.357323456116713,3.296353660313983,0.6466706138744509
16.267075613919783,71.09871085382923,48.855012074527885,10.887491422384102,1.7979707697183567,5.1491924676541965
4.557783119412759,34.369152997557755,12.182836020920627,3.4172489846575753,2.5800056867439127,6.005013627321223
3.5686804444373483,11.029121132579684,14.639945580573338,2.303996102777393,4.202677585270218,6.230525490963641
11.161830757747651,53.30125406621595,4.785882973204313,7.5431460691972605,2.716628933287665,6.244069854795013
15.649798791900311,12.861579507129896,15.649934733448045,0.8816836443133855,5.975438190668341,11.672547043847334
14.928867819820766,28.07410100622745,15.177766949627319,1.2126899258460457,10.508814057176563,16.444285148987554
61.98566162031139,42.403247023373254,16.11088876271536,1.1107641665831438,48.50541065434925,53.52046584452898
14.97628035096737,29.615806756972308,2.728802608883275,3.8386206571820485,13.264612725907515,6.878260197938853
3.494053903262078,38.72984352775261,17.53187968153834,9.50523094135345,6.331902863023849,8.3851291330423
11.817676468481894,21.834291601608932,18.816369835695408,3.852131473174749,4.535375735667723,4.744047451400884
12.863066786678026,15.991839829753856,12.267754723647224,3.596245277869482,6.2364993863072105,5.136901908739542
4.773592336203355,22.609810154772738,27.2201819855797,2.335005678178112,4.803168923240455,3.0824962325142975
12.283295455796814,74.15012710471953,86.07576846661632,25.56263700329175,23.2311160515195,8.28342370371259
11.926462392057497,51.07263216655108,18.535437350028207,13.951359047732748,1.5374788717027799,4.886818517901248
4.08523824276505,11.754598775725132,2.936109624789224,7.930732906631106,8.006393587309914,6.465369054068671
12.088413435168045,29.18762124899198,12.143285339601121,9.558550496808307,2.7197276744482566,2.379217382736699
4.210499738920188,16.23083655938074,11.164006145034216,5.907785513203781,8.673273207617232,5.658149411816846
10.481212325830453,22.12935419902317,5.088499533181158,8.237068211421557,7.5571518888944835,8.936361029326342
16.049942445251748,14.08124373508251,12.866156029441857,6.464181868932685,10.714600050554132,21.966584718290168
10.126575546145352,21.76868348925816,20.71946771901679,6.6075491535481365,6.1605712752381905,19.075171309935033
5.818776047163246,34.22264632019177,4.303396832119182,14.506768712680971,9.960928709780354,6.648268817948008
9.139747412716746,21.522485364533306,9.766442834275109,9.01271284187831,11.992514276081815,6.743814294918698
18.86221285572306,38.36758745004375,23.259227861572995,7.94325068611889,1.2400789320386476,8.732447935435113
10.017996035345863,24.32935876094378,19.773064969857018,6.907059016140627,6.00291635136673,2.3618160367433174
14.086579732523447,23.934292587444695,14.945946738125258,15.83136899383296,3.784317712766585,1.009874332054007
21.495549570739808,68.20026660587621,78.04148662999603,51.35456634698354,2.692516600419505,9.517819968276473
7.909907713568177,12.418771497988402,21.223343867319585,5.017593190968311,5.104801019287775,2.08111255937418
10.723242181171809,25.617721162906665,12.616797223016649,9.325151510162687,8.995785907237169,4.006539945528209
19.29758527171904,25.870763136857136,4.110470282246247,11.873982192919089,10.758170080704149,7.2952105376958665
12.087949708901386,12.498374983537097,6.676814424002284,7.2629488699853715,7.016641971511787,6.229653050422247
4.907133140453657,18.6802999211446,12.040579391916829,10.772937949302898,5.943031244344383,8.279038248992698
35.15742844175649,26.001216816107156,17.744324098160583,9.986693003399461,37.9641106373473,18.703774218615965
9.895901327113668,4.703927111410526,14.396895817796029,5.737607253325873,29.098314677626888,4.748209673986224
13.020376728473352,22.14156668782177,3.8832615871548444,16.421987571698295,9.7611822003642,3.6639834763434993
7.2900779079788665,15.432992517208147,8.706989281231381,9.947245486038025,15.157737750529154,1.1316565313068834
13.576704431160312,11.499489000505108,2.946623147241539,10.735792917959305,6.470793442383792,2.979418136690801
9.829049022335768,25.4047589509423,24.488651714506545,16.29759491609868,6.231061169175834,1.6714258168852856
6.762917582588168,14.388077939165342,13.610949456623366,14.19889061306274,7.305870031227268,4.289303982928199
6.783945915500817,21.858622544191,28.1780089333933,17.917117734286492,4.009951817058482,4.644593406731095
4.4503855172972715,13.252649341966514,12.898680354163721,8.172124075024595,1.9945229074780269,2.2414510264682557
2.592470577178701,5.543320174176091,6.1218603083879755,6.629699653903686,10.028569841460307,1.2261321319226832
5.377868440305611,3.501061549661109,10.01727017414301,4.238475178259556,6.317964288848677,4.722112319157915
6.462171407987194,5.041691965953597,6.66484028881342,3.90022452841914,12.175379932866633,5.41347102601888
3.394203109713916,10.826242597604441,4.164798134191906,8.376874894608445,4.771241010686241,3.8882821177955984
8.641928614888416,2.494023092402267,2.5286106081107964,5.555015637236922,15.522281075689675,9.116844091817077
2.5747135157162133,5.080200139319261,2.9541693017708712,8.84389336959037,3.828126011869163,4.110044149631693
1.1483236025088492,2.341813594421229,6.116917816190724,5.638057806950843,8.121888545681394,5.0210949713835005
4.641744488393126,3.2944577242456163,1.8603395666257394,3.1869947471902407,4.981387201076634,3.573777819396577
3.3156672626595203,6.430239638071145,9.04147254763946,7.566147289977271,3.1513829683352563,1.6969219595231095
3.19499080397815,8.080939011046627,11.857585736133792,13.027089789523583,4.775376005216747,1.5875872981817722
6.022213653156855,4.710494076665536,9.889417896469588,4.970980662271783,1.022514772497445,5.042986690034202
3.417002155497147,5.768604364791384,4.934920041620554,2.4649980783602947,3.98120652214239,3.1091171784773386
5.002202770904389,1.9652637802213042,6.217768079704395,6.625058783852508,2.928430434780163,2.1186302570286886
6.102123894933236,2.4457950842894913,4.110371755343508,3.6063066837132283,5.2903713737458355,0.2650845156295591
7.297570792682207,2.726134622451517,0.8699815600081755,3.3246253434579836,3.2313462737892586,2.2446774319418488
5.183024796833352,2.8943237489183,5.4662733580054885,2.183802610085114,9.38054467928064,6.345595864282107
4.605622498645167,2.1137643996427276,7.5437639090843165,1.4386797618006437,5.585252327336509,1.743857923247959
6.6522801506452565,4.9045763915164855,6.73450322283299,3.6444198337261486,9.746398035376895,8.979131742747636
2.484165055232092,4.80019988970739,4.718974407128535,1.4540906986751947,2.6484102050232967,5.031607200115108
3.243870982459769,2.6147894607724136,2.7748405872710618,1.4372780131352452,2.9834994865816675,2.441429142434576
2.437366140591439,2.1061628210412153,5.64575922240087,1.622648717508691,2.394276333939292,1.308721567202863
4.870685096264112,1.4444036477336888,0.552995572336164,2.473240249169212,1.7039518871274888,0.873332573529985
3.884195201158689,1.4106111857313217,4.389866610150607,3.9271017902457435,1.4303574868635702,1.7198181214540214
4.7731571657323,1.7870590410065468,4.566251306426591,2.814672940552584,2.437158610312652,2.8162129034299563
3.2133990448138703,4.206374297440223,3.7629970036101006,1.0176088153594491,1.4097767217869903,3.784505860289119
5.092284831254255,2.1623450547564036,2.3167840904329235,3.780199534631769,3.7899996009213157,0.39170151093230626
2.334819236190971,2.018919993028256,0.9184423931241151,1.1261491100351593,2.2036670852764577,0.8934279484600685
6.022366947504566,2.5468171002928783,1.3986420233723837,2.174923740782211,1.6493916920107472,3.572437790403933
2.2531803378478172,3.778431486845553,5.324540407316259,3.1658821900814016,4.208466749087908,3.4703030264748778
4.117416613220155,2.1014914864491705,3.9016193279783944,1.4881405064808702,2.0553745265148753,4.497970627496334
7.504052386212552,0.7465494829409551,3.9565640775836255,1.0840020324705395,1.2629716397992266,2.597211363622684
6.879891514837229,4.427354451549856,5.052010162156134,2.140612870661726,1.9879313965448864,4.089069920371966
3.717728583431218,2.749588466489038,3.5200202879779514,1.3914956511413297,2.522982860830298,1.439453945505104
2.800846809524753,2.781291516240848,5.145208965976669,0.9586092326137541,1.3489226199738742,0.3043654427777955
1.163154671270312,1.3000687035304224,3.056297490683623,2.6023241360931073,0.8318361802076545,0.811816291275695
0.9843163247804609,2.4113949745953676,4.028564714111633,1.4040601999240978,0.4759501481118587,0.4095229732644712
1.2782741760018372,1.3207956691405918,5.784356308262803,3.2198550768331793,2.5988934787133067,0.498365228954809
3.505863111441488,0.9467552907730661,1.7597225615604701,1.1219311938042849,1.4902133710206615,2.382498002686378
1.3005899150496256,2.317367970419464,3.536951041463764,3.7590308862344286,1.403174986818019,1.6146248990658465
2.171661585304727,2.6483787416996094,1.2454312680511053,1.3407603681716858,0.19745565008855379,0.21555455759467357
4.34848408762,2.2615620985945384,1.2770094501842764,0.6063743951883465,1.300224348775392,1.2895137564321566
1.6642565228157082,2.4540189533381556,2.0140403839498253,1.993500177737928,2.302664495663244,1.1441160600539373
1.5738299140626093,3.1676293845659274,3.9738776322504963,0.4080728769089632,0.8480707027989188,2.186277487929231
3.75463860480091,0.7787419408686616,1.0290327964456119,1.4371289218601024,2.923395019806047,2.7945795491622265
5.402905272586688,1.404161017020936,1.9522080149503682,1.2937137473964944,1.3143594619122496,2.7802676006582465
2.6770797634809558,0.85859692684571,2.520088169782595,1.6120540126385445,0.7088760994223926,0.7328304710762147
1.7091932516951647,1.6979404320996447,3.1315372282520535,2.241253062217405,1.2166867286987342,0.8424320076540798
0.589287900123996,2.258573295130176,2.269242724184623,1.4590927463956376,0.3333558892089705,1.2199812508884933
2.84256698701068,0.22781324632336236,0.9782244029351509,0.5347590995641509,0.5122619097991572,1.439439809905744
1.898346459524797,2.6905275954039647,4.574747364201693,0.48134179957960244,0.8613519273992674,0.6270517101258478
1.9965906039473371,2.271456312657266,1.8350590159456899,1.3782874368685532,0.5986065587186783,1.8137167596097592
2.0662913929082203,1.53453044427865,2.4549420089581773,1.244563971885226,1.122230333686455,1.5176977245618959
