Gx,Gy,Gz,Ax,Ay,Az
7.662615,9.55346200000001,2.0583979999999995,18.360000000000003,510.376,2.9280000000000004
10.931237327116039,7.032892764929536,5.50818498616331,1.8385371163201003,0.9297919880393982,2.6957381950911765
9.378869715042764,9.63263134733072,4.804088555292195,2.9446819735626457,0.7753141626061227,0.963071031253384
14.783568259055878,13.086638165249887,2.9025778690622785,2.691605009350536,1.3226519508643158,2.8044798838566445
3.0523717728375335,36.63932622706989,2.4062429707101916,3.332868282691633,2.3756858759610315,3.1641832143873954
14.408458457777117,76.37562682397783,29.500189086336075,16.678646135949656,0.9394526047116281,1.8222424455839987
11.90849016065448,28.408106330888582,4.913772140106436,3.0750606937282075,1.6495474727181532,1.0736517162153256
7.387966628208989,32.34676650812969,2.807742644925401,3.8976403220705653,1.8768916250870586,1.563119164120294
5.426758529846972,20.97241689879009,5.5801311679130405,3.538969786998313,3.5797751717087873,2.431290683292592
12.092505852504775,24.11489429682601,4.573714532141655,2.1668777551619054,8.98675463661826,6.649828773430006
86.01191892066882,43.80196347556089,3.4101469623613356,18.665283926908927,65.73939911098135,53.54615192844154
8.879494409757953,7.234806664126366,3.433433611470452,2.540430203030132,4.856065301974249,9.019620942165874
13.24228853882967,13.597441584668774,2.6748137385621877,2.5759703523536945,2.0893507099989472,4.110466737657283
6.453194772998712,8.851982373098341,6.3815624124504025,1.082136852706638,2.0548571744048307,2.378023638682709
4.641921113061929,16.51725011404899,9.185001282467056,5.716667009050468,3.2689351684700734,3.7925741500808137
19.015516526437985,51.286885045874804,66.53864790247023,13.068355965919146,4.900885437209003,2.0789034308313505
3.899983833727253,5.608061215211308,18.08028105308291,4.846437915715034,2.163424761013494,2.10358216396196
6.4684193777951,5.058487740441571,6.052385697949689,1.8404982189108792,3.178678235971142,5.095298630560033
4.984812832804829,12.071196281684424,2.7154845560944776,4.38551894730161,4.519991099106427,1.8004566855135637
13.090514722444132,8.967625743509423,10.518096710063562,2.696787778985429,4.455397350612732,7.126285599415711
13.931571909021699,7.168858180664466,3.0587872730699535,11.684805054142757,18.67238179786647,24.78013946698746
11.138781691981796,7.954552996738321,1.7835250881973412,3.316574889792993,4.406877201054621,7.924812083121032
7.534951756699442,14.957027084072319,0.7179133567251869,4.762772132873768,2.4139859795166,6.225183525605978
2.3451740942164188,19.679838393920065,3.6750111670947487,7.582654197449061,3.432178945044016,2.8433545889745497
4.455073574190533,19.114246612587404,7.537255321241001,8.18071116900478,1.4141241471128954,1.7001632489904122
12.014862426378496,52.37466528696227,15.368922119822468,22.170728265057576,2.7322815300674232,2.32302984683614
8.007962686424838,14.852827631934739,14.199733510263627,9.600872467370774,4.129719182361728,1.4070435712998588
9.375416665094647,8.633343880415419,6.484528884617926,7.422065937863031,2.566798882534726,4.623038096747829
5.778461341429462,2.2171795667090475,2.9295717665900316,0.7063289680360637,1.4460804719892704,2.032668453722611
5.885895888063105,16.53365647997099,4.403675728905078,8.921107937625852,4.133036081076541,6.529151515557765
4.815631330136585,4.708590830079062,8.029577668477279,7.959566404054989,3.7867630926265243,10.559837485991942
8.037370138395058,12.074053696166011,7.038034321455379,8.864163994081368,5.842910613047675,6.763836785815276
6.06759855605824,3.304668321471977,4.856531223059909,3.3677265833996515,1.7203765309217451,3.9739707981254315
4.822816871954545,5.648780771747465,2.3963151641958564,4.622865823033379,3.1147236090916666,3.1471900026095625
3.252067256493031,11.964717976333315,4.248183823139002,8.026375037758836,2.2004112196537338,2.4986591681179693
10.994454417964016,18.33254571480289,4.387653726110099,10.989729259422601,4.837780493777448,5.166550495882272
2.214088368321273,2.6909358603054194,8.64011103336182,6.260319978558703,0.8114990168526184,0.869098509158992
2.876103031785948,2.5242188903905385,4.888489056293401,4.950985938830593,1.987702328100691,1.4374086774418768
2.9299393073122166,3.082761961376022,0.8363911285130503,3.1860884189982883,4.7565158849490565,0.9811905995127387
6.996567395293789,8.71053974738731,2.9562135533346616,7.187902827372215,6.097986229769284,4.493929845243973
11.064966494809028,12.67493358048996,3.1520667456132236,8.300148702780433,4.338260149270337,4.141427727031779
4.34169554675713,10.524663826304721,3.4049872531875294,7.114397440300649,4.484237618109262,3.665490613830518
6.993498646452328,4.291666535527847,1.997483470570735,1.2810440149431153,3.8567929622754455,4.2868573141487705
10.266305840760982,5.958771829037825,3.890982632330151,2.2396595293949026,4.000858801601104,3.83372954025793
7.670643587560523,7.600897275440733,3.71261354696481,5.937285998416562,5.863832771730203,2.2581562429905104
9.404565580635024,10.08450870219683,10.795814649623503,9.894006401775199,4.609046944629123,3.8554828715390514
2.9016058187318543,5.53946018241412,1.9215740028734583,6.949707329241104,7.154995082824612,1.3216607904517517
3.5611732359356907,3.277531799048195,1.948177481660712,6.478973712902543,0.9768206788546554,2.9820820607252467
3.2591876997775446,2.859585215295719,0.4149252128298111,0.822340447657483,4.100333569473263,1.411560921696474
12.91618132982673,9.369925773119075,4.042517847617239,4.484973414476433,9.95123724388879,4.3923502413178355
14.44076287230028,6.017569914455104,0.7245268051628502,4.848887219041742,8.270933384169899,5.910038254760654
6.550677917061295,6.141955249944777,1.9326701513739766,3.6395666112839447,4.130414663706929,3.023308314139988
7.537322679397061,1.4676010124097378,1.7279900022392924,3.461185690752052,3.3782725572864294,2.5358675001999145
4.792613914529524,2.2303158143127293,3.30092144636612,1.4203470246311862,3.3047678323954206,0.9056762691213508
4.6317757692800825,6.07111592345336,3.3573047561402523,8.591395441213738,2.903761652109001,1.6470264917107278
3.415184642911558,4.700695488098003,9.15357894762397,9.57884745408529,3.601079091430812,3.86492859277101
5.16125522278641,5.038431008615387,1.49180473253783,6.678154200623335,6.960311698218632,2.9796197269251987
7.439804662956825,4.89767523441585,0.7327878329108697,5.273564745168957,5.342810458352038,2.7140379088292272
0.8169864071357255,1.840519244545594,1.86760189923875,1.6637827670050271,3.3728196967515878,1.358938783887542
13.115880737924524,7.830945633079544,1.5662314364864158,3.9377064115551397,10.231063383085475,3.620570176979257
9.957824016207761,6.74039825701895,1.0126057849019023,2.111998367960837,8.832670762901362,4.6578401432824625
6.188268800794759,1.9709517645652346,1.4751683571182261,2.3576837250447515,5.243237984930061,2.3844755065045313
5.183539487358001,3.726966379315099,3.074166021117892,3.503261165324212,3.835261150246573,1.6991006567507543
2.165106039199151,3.108928914027255,2.093298532946093,1.0975153457805171,1.417628522283569,1.4660925145700905
2.5912907954493924,5.256918275100455,3.885349505844638,5.28724324262334,3.509423216446075,1.0667630606014114
0.3423024995378849,3.6227196360387848,3.4235204178667624,4.031708135706573,3.773512334881684,2.1274485938756746
7.007060708130797,4.55898769217937,2.3632471735884026,2.5699982729591127,7.914502724463327,3.5689946460382895
6.798101855765934,2.1375389969200294,1.948051054765941,2.4149794388989974,6.300584908313313,2.628864963777775
1.2053837949504225,1.494737263399484,0.8876454405684958,1.6800790484959902,3.965145555546939,1.8213475246284263
10.463330915096199,3.2040225466736385,2.442828040808807,1.4331999060826384,7.076269396845032,4.184524380548483
5.690462675290824,1.546624107657697,0.42320946857695363,1.239361017073849,5.312676515402917,3.1024635417050943
3.828943757918469,2.2645469491320944,1.3875658306393692,2.3394293101021426,4.553571245831817,1.6928395855232763
4.287213676243317,2.97866969097622,3.78778255155325,3.1380290556793913,2.7819911394090324,2.029947607217773
1.3295115905237738,0.1951487266344746,0.2614378039196946,0.8145767466046414,0.6806782347266537,1.7050924797751417
2.719491580107781,3.275486180162951,4.4960309834333,3.8868374604171856,1.8653237005455443,0.9835927656104896
3.382683066451802,1.8512240902680372,2.410008252733226,1.839848537813794,2.8617645536459793,1.2196409578917553
4.858658179640665,1.7653727373195311,2.6070759520545375,0.7512423761643073,5.0085635485506295,2.904861928592954
8.040930634429715,3.777731949884324,2.683234236696324,2.051714588469347,5.51543470164056,3.4548016079924455
1.4302881461811208,1.1959662832975406,0.69789415213439,1.375275927547871,2.274970523433712,1.8048256149068231
8.65232091774709,3.3363316664080394,1.4582234438967967,0.33825223758368944,4.9859721230926395,4.35926545359966
3.0445120922769062,0.5699921891726051,0.8953722157189022,0.6376072729315362,3.937865572259183,2.5184741113074387
1.913678388677519,1.0207620801866713,1.1783996776192447,1.665751838298158,2.160415853794966,1.9363056742381595
5.992321295675615,2.978409297706076,3.2721340050923566,2.0048411227769143,2.476613728735716,1.8987207409428304
0.7458099693609217,1.4574066964592818,0.7412315982113211,0.42289654782958735,1.0361492144363835,1.6431352182863388
4.499237819325124,1.9271177061891946,1.7003446526346218,2.6249716202286972,0.8338910885373056,1.162127236755288
3.992549146582399,1.6354970295634876,0.6000736802105121,2.3162213623450922,2.92090046251792,2.111570850692913
4.169889664711825,0.883246727154234,1.5552684679524802,0.17430286416158505,3.231201872273872,2.846799291952828
9.758003070480335,1.0247563647127353,1.4938585654292906,1.8379604041955468,4.223213074925162,3.3201922976898026
1.6726215059970397,0.8166080000590007,0.1420825008175934,0.3886958987553428,0.8329105131235068,0.7910219005966557
9.877457952191845,1.4447177559956028,0.6230661612587858,0.9637764159718477,3.6393740359880478,4.623022872919674
2.456791332658946,0.7520275788131139,0.7693055326748128,0.9572981533115642,2.688535493665034,2.4014039598441226
1.092848857256328,1.8568262138824478,0.9345688128738164,1.34437145525929,1.005408073886174,1.923088428552923
8.592466216034081,1.9293831326492306,1.579784218780642,1.8231085616771852,3.7582825332181997,2.3826266855448934
1.204392854215169,0.5020860268105855,1.1886309939450515,0.6672163688341601,0.7945149441654341,0.9745939126060471
4.669304902765384,1.5068135468651451,0.7033606700582685,2.3866142762552474,1.7108117742107891,0.8596200511323244
4.68659489518309,1.032843131969594,0.7016878404397039,2.175337537886309,2.1400987658413153,1.3218288854257496
3.5448237975488257,1.1444324758037343,1.2378434858437388,1.087901664308799,2.5362905283328634,2.222631836928422
9.644358058343666,1.922391336488279,1.02705713778355,0.6253948645495536,3.7374202289778284,2.7662454027360885
3.5153052161426057,0.935777466417064,0.3451696406285215,0.34486230107582766,1.3961355087654201,0.3590591246086764
