Gx,Gy,Gz,Ax,Ay,Az
4.124927,9.705584000000004,6.1401400000000015,14.006,544.5840000000001,73.83999999999999
2.0300801945512945,4.494060388121742,7.836346309408494,0.6711349805116399,1.0104191535823666,2.388415145975749
8.1530370787299,27.61296506797738,2.1331663695427725,4.403885564192167,0.8995211195002499,3.493586202057371
9.888294650116984,56.64696797301152,17.127943238133636,4.706218745195534,1.8495989900182315,3.867712159064173
19.736042839646586,35.55581916635263,23.14711329838046,5.21507782851197,0.53087462765053,5.00309507886948
22.840212222895733,73.75107077304834,26.64503098724909,10.561813317244523,1.5481072673794103,3.304718366045842
22.0760363066861,152.80230153481696,84.09135553117942,15.34841996443819,4.261666268200678,6.0845324082362335
13.98204779570431,68.26698159942586,23.722192199621666,6.4175584270422785,3.6707669470366127,4.6227957685312235
28.767213393224253,11.086822242849951,11.348976453610922,2.594630574581633,2.9417746601324284,4.544619818970008
14.244785862262333,17.809392336670374,27.452968647774252,2.597932026549428,12.671711445402376,11.22902326723291
11.57767594636311,47.914390928758586,18.38579041727533,7.589033409711634,16.065166626387143,16.17407600232117
35.436813708768604,19.844809742517494,13.050411070999115,0.9192385695207971,74.5641303241356,65.85476865393267
6.504718434638656,59.05934502288744,13.470801886096838,6.035684868574204,28.514986593513562,31.673520269350405
13.358506047089666,9.283628679698385,9.23627012744459,1.6844827672930593,15.044562312930793,16.373238294446452
6.974134887237106,28.573710958137788,12.284771729842248,5.002756623415936,5.133186442066547,7.245032477751345
5.984982671663021,12.324008375399735,7.80245523340757,4.22404339569236,2.756262922433062,7.3985474816132575
9.763784234972286,63.16654389145221,7.094824038574087,12.633234269638889,5.675559020715714,7.173506483403494
20.437823595912455,102.3557991261664,96.07157643016895,27.44765194066171,2.7018998572842334,10.38528067867489
11.199592584131285,36.49839008855625,39.47050006036629,7.610964902605599,9.004766619392738,8.419478816333207
16.228619663695095,27.919693074580273,8.697893864211364,7.9990443320129865,7.6537765274875715,6.654332979418729
6.101343443582272,19.47022509045944,11.613135844941604,10.06713412227533,1.8643806463844883,3.5416672761198393
11.948180440048793,40.99182812865535,9.395601978469921,13.100320735435549,6.471640278111767,11.893358957264029
17.90607442161165,60.032097709956616,9.951564800265112,18.138868673920527,14.175406830291273,22.54938789209212
26.9592252217107,25.37514581876626,31.15226529151433,5.820308995580488,8.457919823720552,27.340178511668896
21.553287932965084,30.34505201031979,2.6383020706840434,6.859688024282358,16.349930468910927,23.256698942605652
16.987499852018694,8.091756576050708,11.548210573645724,2.639713802826063,7.693431882188275,5.343356772082456
8.05513474690556,35.307995208078374,10.024913473863288,10.883456840851519,1.3640510766190614,2.7528523885129657
11.656168080750211,59.924878179603034,9.228147648972858,30.074888446986538,1.9532114845550896,2.3300028958309555
12.297841924900696,70.89041565823774,18.215591001846843,32.77394350253754,12.843050478254687,5.715029362248538
2.082484909884344,10.152169906444762,4.647099534877439,2.877309021830423,5.419806146400535,2.959458032724159
21.278163790449344,33.0541914334366,8.936119894462976,20.666207325217243,6.875343678632566,5.095449317893596
9.437689440614134,15.492443687410407,16.615205291011808,10.45668907117266,7.296322085401463,4.115264340205204
3.968679455807999,10.456315094416018,13.59120815828876,7.531582812917993,7.199316509344866,6.736539183645213
18.202569913306963,33.51735300725926,6.696102888332696,18.203819945161694,28.4505612392377,20.399436776801863
19.659920895945643,14.00017479576004,19.67108038754759,1.2185814588893515,32.8905170438362,25.626492576588458
29.88998187895223,12.780886054396014,10.33688998607865,3.71625752218698,31.1637219409214,24.623211070539867
25.200168666183437,2.0439337010757703,15.560116757045515,5.936575225524165,21.607674214239893,5.659650861778556
9.415559314253946,29.287937827281166,13.502108107343217,11.866899843863711,3.435264029505824,1.899979008596336
4.538615440637036,16.51191898375824,17.279228769580023,18.259617051255344,9.680636532531219,2.0871106633804044
10.771320111202291,33.19770979288164,16.678469083294956,23.595456171535822,10.151121344538938,4.487823212619193
15.812845229163793,12.004221042798882,7.416447040027065,4.940187210482272,6.13242674090995,1.5526532409381264
11.924903914009226,2.0426737266778643,6.5149679852793705,14.186655385564348,6.056273494996907,3.784380801562656
7.9538180030237875,12.611718261417987,3.737109723057772,13.340021640474111,5.532668979914203,2.3086196338942666
19.607331624289227,10.517541864470155,8.631744454892392,7.549235869515728,15.903317475958488,8.688323347330691
38.61134070103595,11.700149835961328,10.871071423425574,12.667954989596549,41.34582741698046,22.514306877886796
17.284575318176888,2.9571936462141624,16.91313120679265,3.0136870667258657,19.01158516779838,15.936027169949028
26.177768563768918,2.3771798178648735,7.510434056686947,2.86685674479151,21.102242782578355,18.39511507358289
22.13720423947925,11.936472911477171,13.714932381867003,5.751762485820122,17.835013421351718,11.89475637771723
16.526062290510396,15.372215898708353,8.080918177546016,10.410577266300818,15.84747953226693,9.789796689738706
12.204155479169831,7.555663423872108,16.400869345539064,6.605617309713066,15.196273757158368,9.670599488796405
3.344533638458444,10.26710524091003,21.984803528946884,20.767135031842024,8.133475149073451,0.9243423613684337
9.258395536779563,5.435349280004418,6.90959247985118,6.988706027227101,13.423297039383142,3.062633998380781
12.912876978079957,3.5210978361914016,12.236943382321277,17.16383937979213,7.405664520594139,4.544430942810606
12.377785503568793,1.9214584289145902,15.968230798742507,10.401246209815767,9.445812407082347,2.3422391156185274
16.281064303819523,9.374551016515486,4.909999553038577,4.557406406263547,13.427202160972358,8.587346445714875
27.142348125995014,12.304714776978606,10.69926995961853,10.936390884762256,21.19379368394856,17.165525599800578
17.20879583775316,5.420134155202149,13.644551034181672,2.9371602466913367,10.909518146117307,9.622731907166965
11.83069669051997,2.2995737994142513,5.774469308469628,4.614684349547879,3.330401404837549,9.61460369058841
16.92588292327673,9.643950705902324,11.72176327762852,3.6331922837575275,13.544394240180436,11.757281693851382
28.202115292224804,3.1825824534928837,6.297299524177257,3.7342706020149357,15.975049300069692,14.66208776089284
14.564759406196977,7.739237352736939,13.583404715223955,6.271998814154294,6.209439172532479,7.179541778453018
2.7850238544448596,4.266252683474424,16.103499768899923,11.81027768685175,3.723792993099902,4.14026539992588
11.132267977426963,0.6683903984609455,7.244752861951909,4.898991245364962,3.680210009372049,6.1697853130801565
4.836202565768303,6.944603319174172,3.139475852960468,5.912591881215683,1.7204963603350745,2.5998463598269783
15.182952159964511,2.904179924046347,11.297139075787008,4.041887339788368,7.38979074007536,4.785927886637963
9.360036562468263,3.0067408148182793,7.126123070786054,6.337765444041485,5.444972498738034,7.165349016155791
9.68922166153696,3.490402673015609,4.135307478716397,4.117131067496614,6.428527361461304,7.029270957957573
18.985325737480082,3.5096012361355626,6.845983914212933,1.56909114261282,9.372610215816579,9.428123716078634
5.5425737236775205,6.291415070311496,6.884063540481616,2.9313391396910924,4.210157656817877,6.38597949554862
12.054428207042946,4.583624521420325,7.006717993152245,2.138823146080359,5.05243356209283,7.870216525533303
29.166853706721792,0.6341040681161569,3.3002345013900585,1.9964488551456023,7.84947342954888,12.286668645961809
13.572137676473304,3.47209352990702,11.124673745955011,3.1993449158097906,1.6863266362272376,4.349050533380476
11.309352615282398,2.4214166206542544,5.615889367366757,2.9006060972525787,1.2132301436145054,7.259556827433635
9.612185421567574,1.5263948724473635,5.6241376129761695,3.2666452720630073,2.7573667706280287,3.194253113083923
3.1107208663112504,5.787492034129254,3.1243393874570167,2.427267152899212,2.7857303144266985,1.821588912798954
9.152407854930585,1.8055835032780305,1.7933343683325154,2.8470575706670473,3.593857956933689,5.243203327071672
8.429590396085713,6.386304840937574,2.3112649704334833,3.4520349162833663,2.193821191884202,4.342611692219514
1.6429281386464873,4.139671481253243,3.3539513545838027,3.304573042383904,3.9253826172861497,1.0070679873882522
24.687562109162442,0.7598575322121122,2.260460298497548,1.2731520833714944,0.9877151134453103,8.30886660944579
6.4701262552974494,1.8074004926968217,6.388486154154754,2.4880863617463174,0.520229114978729,4.275272301291721
4.436834547335709,2.7127798733786403,2.9734336615711348,3.3137802477569687,2.1338266072476606,1.1771983342840715
8.375379109557926,4.209759449599762,7.109104975298591,3.1999001396349747,2.6455890576283108,4.432169757160116
8.360071419593512,3.5579480754065815,5.3516976767681905,3.1495014096351763,3.8214864371985064,5.9889310224075345
14.69724268979209,2.035976180090298,2.642458123051998,4.3855243740623955,1.712387785472894,7.249693521499819
1.886347926225909,1.3961849273944205,3.289189231356141,1.5179525425332288,1.4270569499694383,1.8513123248881183
8.113157272135501,1.5830573328125885,2.072439045882162,1.313928769734574,2.1563800686216483,2.88293404504457
5.409199769524385,2.007528189648784,2.606503608957515,0.2985693472021534,0.9804404488432492,3.0730485615414107
1.2372668379947347,1.8217456598016035,5.023954309448322,2.977799478499892,1.6434173157853396,0.9970189632136481
12.791957863958704,5.015762606971289,4.651767549357355,4.739185039745566,4.928583152353714,4.513210769643407
16.52469494886122,4.088557856882393,2.681378591071664,1.7915556212337265,3.6378218418374693,6.654022214708699
7.855114616885144,0.7563407933007292,2.3635565186129694,2.3895518172470696,2.8559712237165953,2.049049072401046
2.8446968332724163,4.014470786212306,2.6579885313408296,1.4448605951450193,2.355232870243017,0.9318370874832995
2.5288158380538106,0.6187238008154309,2.8357815477050177,1.0337419147245135,2.242491859260936,0.5027281638322448
5.042679775708561,3.386933782687568,1.8369710322735526,4.444707159527528,2.077979510981463,4.612801077566419
13.83403710038274,2.3253499058387033,2.85289926838481,2.9219090196624817,4.30716355302942,3.3364350789479604
4.10036852910361,3.8749441008239636,3.3792807307884063,3.0685187333004493,0.6743440697388684,1.623685777186953
5.58352710893182,3.1758977560774078,2.248075140292412,1.9944042742084536,0.8511321482864641,2.3085607688598535
6.0929732031277,0.43541858828090313,2.520479536206462,1.1506189544294787,2.412168061836252,1.931818137559903
4.7034902572835,1.164509606190991,3.5537139470326315,1.0359027874136388,1.323788681156228,1.161039521905107
