Gx,Gy,Gz,Ax,Ay,Az
2.1433689999999967,23.972111999999992,8.009927000000005,16.723999999999997,558.5160000000003,65.398
2.1014433933294296,18.251758209167345,5.629842436776752,1.1241377938687216,3.5769114436564133,3.081172340768331
0.34432336911642286,22.089102236311163,8.09868485431088,0.6448175543317938,3.096031365168515,3.772144771750183
7.1709612772051505,34.042406130911885,10.999043702402549,1.7221688752827515,4.441218906199783,1.4289633600411706
7.521849589613459,51.69885990287321,18.568024293055522,1.804549305048043,4.981223635411685,3.2010118867258077
19.321895030523457,133.345743900166,86.69493417495234,4.528392365209486,6.996522249135574,3.845772594353314
5.669591253672936,45.23267564915009,33.476517367549455,3.5599784891310957,4.815385080067973,3.8200774325396787
11.554483921577022,11.135806386350115,10.301563793605418,1.3339739183043156,8.894838352161415,6.627523185491362
6.823945366360414,10.862784840842235,12.697432040789376,2.4567153074277086,11.069404901786635,9.800566643455987
3.7111825403701975,16.94946779180851,10.615278385101293,1.6356321649169914,18.905242094923732,16.436488575760407
28.299757759398748,17.777875843449802,8.769599922559177,1.2470706132900717,42.65570047902763,32.39557434800156
42.54576522853359,27.709049445563338,6.940590490552393,3.416151251201689,52.56098419409315,42.80932329785395
19.059160577932122,10.9854827731593,8.796190605246313,1.2104656074592075,8.915930311445267,5.8715850773029885
11.39779733726916,16.45490586159772,12.247796191858948,4.226021928864908,4.35425983956574,8.171504880166896
3.786458219267345,2.8099269852601805,16.09219329931211,0.7659053756390951,4.236379955236059,5.97401885030037
7.766095168763473,23.78472136586871,18.017249058799543,8.47104797595387,6.47035438884606,6.019973185005464
11.654742291753411,106.26807385706992,91.9376327641806,36.48430487763682,4.003232533387027,5.385920380997117
4.865548769918668,22.070712229322286,17.713029924976784,4.415601788785905,5.084735625314951,4.703066958616098
6.052241416183583,6.676312331470604,9.842168493200068,3.4451890540237486,2.2889969656509814,3.71992189192112
9.46659002717284,25.91221031879428,8.115530436981828,7.72284745969733,5.114678684954407,2.4798581461137448
6.071092705781724,8.724105912554656,4.078272036921919,4.384574314596563,3.981001031747559,5.3916438453915925
31.076380648335626,18.25969112697971,7.8193253796099995,6.047556986855811,25.088190325111437,31.207894885420078
15.463021410969795,3.5824935563807294,7.554471221845631,3.0017176602679436,10.511146545315839,14.503779774678186
3.575190351735759,3.7658618381933144,1.87428844418578,1.526833772236288,2.9100491712277345,2.471886028628804
10.838962471094565,9.70528413101394,4.0973096618886755,2.1226643140133574,7.936814511838708,4.077480510888075
6.500084939201651,42.11050812223261,8.65071051090859,16.16022997337014,4.4121769869142895,3.5159853289263157
13.62421954117313,60.336238163115475,14.668067928418353,28.161068583173638,2.327316428296039,1.6761905475507939
11.259314668804816,39.24814001995043,10.634366029053437,21.963569490187364,3.553422448238926,5.185688524290105
14.134136140314327,5.571048399143593,1.7185652736070927,3.035818340274425,4.12208657587015,4.186902525976657
4.824285111982232,25.419587219858766,5.4539116148458735,13.216653628663234,4.336457357690312,6.542339390157537
12.03741556134034,5.556685536954818,9.585901741774002,8.983651810640954,4.469186274987542,9.815684445889389
4.633921845734336,12.51584259468057,2.2159939504484,5.839506071599521,17.851133702467617,9.956638667163483
5.757196336906702,16.313013049248422,1.9541440742820877,3.649335502703556,32.542634114000656,23.37185123545869
11.474260935370742,3.943684589988997,3.4833737741489847,5.505364873725541,6.659164537689346,4.641675447471907
20.236613271461977,17.212759226706066,5.175434271415569,5.8136577334964965,8.808096095481211,6.231793327294035
1.1003351331437061,18.53506554209901,1.5743429332550287,10.36319596316173,4.154057501263522,2.4614920165151477
3.7414353968209926,1.6660465740240482,1.0317110810929313,1.4328566239918776,3.468812391125451,0.7868860351042087
20.130162803137097,10.42259997538671,8.144698901697442,9.636224889475624,4.36098838285251,2.906087925016532
14.79739098427582,7.056342118516986,8.118992935790448,3.3284108122852567,11.471190063567258,5.113903693365817
2.6441603845137465,7.003052094201551,6.097997639896876,4.0752204866600055,3.942389793542762,2.992633439774232
5.475760398837779,8.247024311526522,1.8686159250397492,3.2091301488920223,4.514750033904801,2.1187578544199095
7.059662381987671,4.54065722354658,3.9356688250368643,1.497757144412973,7.193213229913311,7.0169395937329275
13.874249028283762,4.664661399821946,2.3948530783539708,5.732402151243413,23.122594689224385,8.735731814803572
4.412404819831901,3.5763463613905357,4.188870857927698,4.797526535492634,12.813752685858796,5.25014795673014
5.257415456790155,6.785301426518638,2.570907434830932,4.1692252524307625,5.259348506276265,2.2708533585745303
5.369740709428491,5.2328524954827556,4.6510066920523,3.012587928997094,2.957570729746838,1.355687351125575
5.731397624463173,3.9613122497181243,5.634622760360555,4.039938782202633,4.215227875391868,0.5215033682030525
4.249851232858265,5.076998548809624,7.404451476376871,1.3158603860788172,2.65878272021411,1.1572860258874493
9.821396500756672,5.38357394250826,5.687122538181493,1.6133321676061514,6.481342253910336,2.5042625196380683
3.4184394416430406,5.591003578258959,4.176164614058621,5.204093554699999,2.808133494837329,2.407191131736327
10.653905296815598,3.7238427768643767,2.6000494676270196,2.414663347155894,2.225233194044472,1.242626475950823
8.419421218392666,3.4456900053558557,1.5401419122760505,4.300929355678907,5.477748918202991,2.7717321144093194
8.127654894652006,4.486385076873386,5.783804225675537,1.98893493689335,6.374018123383428,0.8996364920425833
22.20942658862628,7.691727258091414,2.3323012456429835,3.2092936579246345,10.870616784058717,3.74567606514574
4.421311838728447,2.7806259349064013,6.064778545650883,1.7311683112186749,4.866492794579661,1.828319179256109
5.0021423044458855,2.6361753466684763,3.802307344989276,1.699298614111988,4.473717782669276,1.5102452997529199
4.23940415675758,2.7257880517409583,2.5713192322304286,2.59506711013647,2.831869807353454,0.7992787818060229
0.701030653072868,1.0585304973652074,4.86337276606985,0.8800793550401655,3.1411454263748295,1.3933677413552086
5.254683752462497,2.779594316395856,7.01020039500739,3.148965633010215,4.177648126012587,0.3719878618765159
1.5617236570809958,5.089744354563009,3.879325655844616,2.983088345403774,1.803040675663673,0.43742596854650484
5.953868821789975,2.319728668633535,1.0516879089614959,2.2360320915725156,1.4625112225542012,2.7767894775496167
5.370644992908907,4.998475214222983,5.559466654408196,1.3842672487527554,5.108758942968422,1.2492292376987761
9.022022289794414,5.055259786287492,2.4566363593442753,1.6281397773384698,2.8937427363005837,1.0799548747296548
10.387940094487394,2.2686183339549104,1.1421847784129802,1.4330090709548786,1.1443983108273459,0.5912428012231016
7.912655246105867,4.128723960014113,2.637629184729714,0.48102809411371944,3.004536502078675,1.7730760878712724
3.670458452375082,2.230634778137177,2.098972926038258,2.138177819257663,4.160162148304257,1.323592828392728
7.560977498111073,2.044745015004801,3.100209248221733,1.6327130006510053,4.132476043872234,2.348371421098289
3.0930873103275323,1.9758382115647624,6.136409538492101,2.7442943485853917,0.9245261582556602,1.1088468750559706
2.5595889968316095,2.344257916081341,4.100270903774545,1.6002500416657213,2.003877460546139,0.09830987816879973
1.76474723158198,2.348715895146832,5.846884526163784,2.2587671012172557,2.3999297007283205,0.5114472423959979
3.693755137367758,1.2909231529740692,2.5403139148404272,0.2511671891767135,2.4220553067771835,1.6036902699905702
4.337290961441091,2.551406741447898,3.9125063763239742,2.077614830105436,4.86178415651801,0.9236662699972499
3.0556874239957916,3.943640469553581,0.18189872084606112,1.749065797955596,1.8480400582892516,1.043387625443963
3.862212621172802,3.0297327650327124,3.4995448490730454,1.3147502892790093,3.0887361643166535,1.939764972604164
5.2905367690563265,0.5397107915082908,2.6432861813153306,1.6685548813562736,5.958227433509477,2.464941503336627
3.9652908146096073,1.3879082618911558,0.5982150233656724,0.18416272695326769,4.976584085892136,1.5529786614616534
3.742625467669136,2.1931514854407617,1.272005218137725,1.2790210064751657,2.737716502308604,2.2460536016294794
3.091146109771787,3.194297833251187,0.9361920921914896,1.0923757502028015,2.246685152877781,0.5856664962966682
2.1114814465126477,2.731338445625626,1.1245856116509936,2.412955504013245,2.0425356265867407,0.3573947149302649
2.1383035292774584,2.8576024455016773,2.0468035491698995,2.1631781416355764,1.7332905960419416,0.3442344042243221
6.208665282914862,4.344407441724334,0.3672271537186597,1.3695817275919122,1.0328217873390475,1.0942192535457438
2.9999256562413263,3.6463099789986435,3.1527870957830264,1.6228889616745914,2.399254305158242,1.9396359334247821
1.8212311961272547,0.7991712195596112,1.6532221366500126,1.1199710438126003,3.2545057911951667,1.386643020348293
5.200478567050106,5.0364981324514435,2.251942833522852,0.696826615143273,3.0391972250207786,0.9233454205399135
1.6174973926633014,1.5416130526360272,1.9621058102933149,0.6754059557694968,3.2059662285535295,0.641878020388891
1.8357237901294359,1.118469955974398,2.9159922343571174,2.252544167932352,4.224711023575063,3.014399775697078
0.3278519574168817,2.144425119677994,0.6340208641781693,1.888716883738606,2.9790615965304528,0.9725583544912146
2.0281524283713814,2.600086984705098,2.0699503403157893,1.305940013341534,3.402186140725591,0.6913973296008417
3.3832906908579337,1.706487913249801,3.7592111765375384,0.6449786321980711,1.2013529746872462,1.7548309388709113
2.094037696141539,1.1722075493020325,0.4373374739233411,1.0272912996838026,1.4898220208872626,0.7805093317455142
5.015708737967795,1.418611491957773,2.0165515366454048,0.5431015545943978,1.2220620564710991,0.5679291671076236
5.512419420196717,2.7660200598399145,1.2767040140953112,0.5787600316735512,0.8488147837798359,1.2273766890887108
0.992890897729411,1.9136973789474259,2.118172776125877,0.38536350220844967,2.0814676083884467,1.751260962330717
3.9738710551080056,1.5801567627119102,1.740662842822205,0.6749378600131434,0.5499407678897412,0.8150477647390337
4.908840548726238,1.0493469561021331,1.7302221899672297,0.4148948835307192,0.6723941527522582,0.7410417136679132
3.7508990898384575,0.4590212408014499,0.7882474198596817,0.33565344423735355,0.9231350509522647,0.4135050373821862
4.109449582412021,0.6099326649834753,1.0985556741257116,0.974245340244588,1.4923071274304711,0.17787275610195977
1.1855824580205832,0.8412188756434249,0.4318028073000755,0.6771028823576363,2.2138310168745736,1.6205395922648465
1.9801277145052678,2.098241166743113,0.8659799776355364,0.7146571257559898,1.6524639089494955,1.1203290298406257
