Gx,Gy,Gz,Ax,Ay,Az
6.476040999999997,10.699159,3.8133130000000035,42.175999999999995,469.904,70.364
7.169745178577524,14.108957712741265,5.718240847725844,1.9841250067605176,1.1157798967501151,7.839818086707228
16.79421944765448,44.27112001117623,12.159368360088884,8.713024803924108,1.1123944431532178,10.386175481729286
13.422741245418042,62.18546514322508,7.964988803339508,5.153085121892788,3.164654278986868,0.9941593558770973
25.02492688087007,45.589227189550606,15.416117960174374,7.143638629102614,2.686949819529014,1.370654713814738
20.79327615240173,19.295372801661124,18.85280223148174,6.474740990938624,0.7141390947504567,7.084175033449443
38.92066539433701,114.69336838367732,31.906207263432975,8.496427772913126,6.726009961759855,3.798014673326585
16.7930117430272,65.23999600776213,20.16922215969301,2.1578746957391925,6.96684213190345,6.66585960939487
7.097429101325814,26.741147168524623,19.014513131522378,8.111879190419435,6.034249326195675,9.68200147791339
17.441065708432408,107.33185901195719,28.91314445824645,7.8702603951692796,19.255437619527033,8.483945613042213
28.98682270952148,38.62882966503265,5.767534821779516,5.669428630950254,32.427051180210064,16.30739691322103
27.178829135379793,20.68801802181633,19.5034587698859,16.15558273570501,92.437416124142,54.06162022776396
25.08533590902056,5.819399380323355,13.17155346573785,1.7668638757346082,13.595670289527222,4.261314734907182
10.31799085265425,23.717249974956484,16.751746293970626,6.316154346751811,13.0577206737132,7.4140372957392655
9.62095734627774,32.19992918841163,23.533514816768495,14.119135652418048,5.461072214278797,8.026459281085483
19.68461441422847,20.804800527070757,42.33188118287319,6.925352016268194,14.075429266131314,7.270662510828986
33.223819513301784,123.49464687535921,81.99572700667277,40.79099891240638,14.784663174766289,0.4530507072277235
12.217612486710566,95.93743898314442,3.035288826301764,20.66636684883236,3.2475193573400047,6.203299241810299
8.157307584091235,29.559128321695642,11.076717337358058,7.217751345566446,9.872224082867756,8.428868963439953
17.627643842308544,11.469927083512026,7.646725144315105,8.108157108271918,5.634896852257211,11.516967868344588
7.608598188900125,22.661406436575515,11.971259675065836,10.76296179741618,14.549108000421006,19.657720300862664
4.8601476858597135,10.897019744733559,3.3981486085277437,21.06228838893985,16.32576795424931,26.90296747539637
5.4941983285423115,31.83453219021848,4.037950516465436,15.370740959401012,12.68739854214198,28.9794611006679
9.591220985809993,20.175514194675443,16.751305174854693,1.0369378135541072,6.690334847397692,0.8454133717972321
13.674889507203636,45.881016502112985,19.82361368391204,26.092621075440817,21.99186220505031,8.58373679232451
27.899225807141146,39.36381565444988,7.250808601915962,18.919747869519977,2.041520710845206,5.733395386009572
7.585025362956124,55.249248564582324,30.726372895023054,32.968483057668884,11.47848852093691,4.7901881187397795
4.948892705897816,37.2103883739231,36.80741014749268,28.651958992622795,10.309071335407207,5.725219267809966
19.889964811036847,13.44535240935981,9.450910914298447,3.859151422173704,17.5896360884169,9.25108611783907
17.570959858885214,28.920235729953,2.83921299304055,5.870651755302675,15.815453918397264,10.56203893709184
25.867989212531644,20.496466528636603,19.782600727629873,5.560830138929583,12.825309378869932,6.752722840241657
35.205138958633555,29.79574190793348,21.809824440918078,18.47817670747568,36.19923739397172,22.468853511525694
44.7152617561104,40.42971184398485,17.54938898417361,30.611786784980932,33.69662100926297,28.126326005145906
40.12559675901449,25.05072611145703,13.544212815747487,15.01088153702515,43.614940143505514,16.37195049342657
10.73602274011768,19.82400626960047,5.240976491431972,11.41833917528328,2.1822642289819183,7.139921296614711
8.823088019436236,3.094687327815511,4.089760417519359,8.953270158392819,20.298672782736208,8.942396266811185
8.175997572103308,14.495699738904671,12.7128208351681,7.760706315644919,14.506002455683346,5.2895768922084505
23.748340934115316,4.405385444981911,8.951019485914314,3.5203951641580757,4.86022198538126,5.107738325336502
9.668442231999514,12.744446292192732,8.961226787426636,6.523264102524814,4.939697449644342,4.044358647073727
23.07450171305994,6.411457403292382,5.788169034844634,8.72284366767171,12.031957269600255,11.12748829845503
17.25460443620826,7.947622228706147,5.463492810380512,2.100613523173315,10.655004997451972,5.809116095613401
8.633875847029422,12.8467430150455,2.488594564620712,3.4343195718420985,7.164212091871602,4.281049085970981
31.885758633648447,11.00757819806362,10.136692963038941,1.675481488617793,30.340030014074518,16.163118179385982
42.40502795744907,30.145221959873354,7.518265946320554,14.195796955865859,36.60029770480796,22.16239803128622
31.60767307484566,12.8017348829245,6.949443396847439,9.156075268968886,34.17408595957656,14.644663230042726
12.63545095906043,3.4832415535000876,3.5021416610682627,7.783391578537034,12.045459831269952,1.8956560204200155
23.787076219776694,5.952272373503594,2.211183760815157,5.084823579310798,18.560933021177153,7.663017168434681
29.604816863636408,15.450394559884108,14.270526272205924,11.863368082863715,28.05836376843257,10.313618709577657
11.831606906624692,9.363189685719789,11.770295380505457,6.869473110620752,9.075005798839308,7.919960108815267
11.134134221888297,6.719084868931858,13.783491860046235,6.195868359600324,17.294508737896752,3.7122761030823237
24.822161608685416,6.547585592122502,2.518594339323996,7.612135098812498,9.995434284763343,2.686270505587703
21.0459245970482,1.3393427413897734,4.819998451074911,1.9810175235930458,13.325242850233028,7.386869281182119
12.936854463094578,12.010949148699318,6.0465982016166135,2.8079179767039872,20.656243713819084,11.513175513273259
38.31186997921115,7.360464051486454,3.4958152651911503,5.228532382601885,26.16265190301981,10.325056083311836
19.608180844973518,12.509190789911283,8.654575581505792,3.4260941899263275,29.121604695157572,8.838951846876558
22.775833378585773,6.048705303426924,4.1389703343809074,4.662946228114167,12.931728485072389,9.8465707497694
16.335472830267456,4.220397662207248,4.720483253134844,2.184336057689929,7.289737427379053,2.496429739794644
15.015999415993615,5.234901758470597,4.813490801980694,5.524600333837154,10.095238588580496,2.74295097959646
19.92442754239152,2.5151499050445025,14.535278060071512,3.988615857055096,16.142409984704923,4.904311669296298
11.53356596512666,6.62021026799392,11.774447455873599,4.940476758790003,15.56848312555633,4.535643883079391
14.69987367037112,2.8916481217721723,7.513859241223796,3.4464034348429653,13.380105501128352,7.30856519723464
10.555191942078567,6.1994420737393385,1.026465791693131,4.860672357722667,4.385167171580552,4.846437443303117
17.240420317594992,3.7621787091798162,2.4163620961012984,1.2579814853881044,8.625381210093161,3.4197734886088353
38.116767483763056,6.7741561471403235,3.7199359967909986,6.676872365403815,24.749022850114237,12.66256644795641
23.14239841027206,5.576046434492757,7.492716018016484,4.049602360839868,12.712055343590782,3.4834348262299235
11.163220091844654,2.5494282035851197,7.450514319758457,3.0256065393522604,14.89649867861166,5.8725689638287975
13.855131992051348,4.255867510717658,7.37489673908137,2.7887520945431308,5.171218910005159,4.5897129736696956
13.954721562810864,0.23342430477490017,3.7719655540091144,2.1753107764539634,6.511491935314,2.567864937345464
2.141973691697282,4.559463116654191,1.048213260889249,4.9639197447570735,4.148438719775804,1.9402924437501183
12.846967062559758,4.635237357395241,6.71798962605126,2.35380433164818,7.511411911115801,1.8588781122048808
8.661478567900428,4.745645160892456,5.895702381311116,3.256529023911997,9.911817755173615,2.3734432335944566
15.11117466607795,4.14727012815601,1.4337250671200719,1.7893911046869433,12.381470072402161,3.883237321537294
9.346757975583305,2.3388037674515845,3.511219944429459,3.683842125799894,7.1370407777780756,6.692280020793805
8.172407108011445,6.392780009599026,3.909322331489218,2.048077789655957,6.413960960375555,2.8098740469277734
41.16168263568351,4.376777019587995,4.220984135455689,4.749306079286246,17.65523252291713,8.491390675719277
10.646175124166952,6.983866200135441,5.469951733981598,4.239158541230221,5.844109589385754,4.472452493173027
17.508509402180607,1.913999429348188,3.7182303989532755,4.053402646406499,16.19509526209886,6.34436626741505
7.04414562589319,2.781846163134832,6.175504522359253,2.589286601803497,5.721082030760968,2.9245246358986123
12.762673147625389,3.7651195446568284,4.917027184147066,3.7230637097191575,7.913023580419389,3.5158438954928295
13.400172813258195,5.768916511784924,2.7580908434118463,1.2043636632091925,7.265310150108155,3.730493589079588
6.635791214314776,1.1508096829635972,4.410145032503291,1.5118092907616807,2.8341589388775636,2.89888795976916
2.203039651148371,2.6201932781784705,4.590432559007346,1.324585267478728,0.6530239145081008,0.7975309984095702
10.401931629887674,1.4693963561378585,4.888902797975959,1.3827150636870578,8.18577758270897,1.6821219071669014
11.585827881102176,1.7074738151065914,4.427614189766262,4.3332798797288525,7.699102375048483,5.063861849381824
7.256822264042896,4.003346787167165,3.536145001114706,1.6881554905061098,4.83609582928899,1.2285274274765814
26.3026193599257,2.4968947628678966,5.072506066697226,2.3487130963460605,12.754050727536505,2.9363250345698066
5.9958641439585785,5.9085847008407075,7.4005131271948335,1.7196822443881856,9.107028184052876,2.1462209656747397
14.342353141275039,1.7594110484689243,0.9012249680273854,2.421151148775473,9.294202976490528,3.544496936906945
17.89264323483098,1.0117258594280902,5.335461778841231,1.5452506276109472,5.984207927971373,2.8976942716981733
6.540015562199263,4.136261706147127,3.9210641918032687,2.0903348270169886,5.148032934134743,1.8025062366005868
20.00554223228781,2.233471609216121,0.1572854967945278,1.1750776124458933,9.284285693149904,3.269808126572652
2.8604827964335993,1.9125501323464198,1.4948550152646685,2.7208930029635847,3.345124990127512,3.6282083097834623
8.545449996635744,3.48050721626118,2.137301020659984,0.9406861367602104,4.278615965130631,2.1664785719872657
1.2367854803177674,1.856186725135694,4.907559278889069,1.1319455812296189,3.5578719588639207,3.115593955917617
4.877342084583034,2.873618896932875,2.559196150112119,1.0670509143447926,4.98565928447835,2.231412741197306
11.045348708299041,0.7580177790854591,3.7929363927651654,3.2677151870571217,4.637703317364037,2.3124005936289715
20.220653264763033,2.4837273452143136,4.242703739398376,2.5538616460255517,9.977617953267377,3.8151102005862687
11.632482994402844,2.890885611045078,3.3431873935442376,1.8441789969977966,9.8570950404539,2.4954476320459418
5.004926020016483,1.7990039431748042,2.0187792378438565,1.133193201611367,2.8996401048761355,2.4195771820040544
