Gx,Gy,Gz,Ax,Ay,Az
6.755597000000001,10.746006,0.38208799999999915,9.043999999999999,385.376,36.134
3.5810044698292898,20.74741590571438,1.9919456576387413,4.878524220034539,4.629637853853501,3.1483704536072468
1.792959528432606,15.880927517815937,1.0640796264221206,3.4879793454238657,4.353910062768088,0.27950390532194636
6.420416401551016,20.103273137942907,1.140261677675574,3.9260758562789815,5.01792186952004,1.0742303246888263
9.453808671656654,172.7271407812645,11.630760878486337,24.727288796108798,5.8446137459206655,1.7597888072808907
7.810239175011743,24.226185692107784,3.0934574384343216,3.0207677818326224,8.153471799129033,1.6600364226881932
12.69492964531338,8.800771597147774,5.263582977684109,0.8061401039032609,11.755139883731053,4.187663315202411
9.667490728396876,16.27586276290839,3.0608494014925767,1.4317027151060635,16.545698395397935,8.233321536360561
27.40193409748397,20.952633750995993,3.9641808308567557,3.239475731367736,76.43660733485221,32.71852178135319
15.545338010749928,25.35217693188681,3.6714899084109676,5.805977094213647,29.31396988761628,17.85565735491035
5.929262600376214,12.00989764637068,6.199753710047361,2.480689465110449,11.765013978219418,7.11916819468248
2.650487498865705,6.2543319494674865,8.641603193595039,0.9728635781547679,4.127143160105796,7.755114836515677
9.387698743529526,19.70634612160618,35.63745931458614,5.834797716172033,2.421118212271714,4.417954552713978
10.828631002503005,29.097077203186398,30.83361258649555,7.726198113457334,9.292319337937494,6.397638861919866
9.0053809926169,13.8351998973272,6.160465093407484,3.152251182257757,6.646232072341889,5.678661118293459
5.8079251371089535,13.657767087467894,7.757516825476632,3.522301147943589,4.0789425804250525,5.9957471941066975
11.893973070140067,3.094716659399776,8.181534255708417,1.5190449996973545,13.29134150928827,15.354871512812426
15.462881940713727,19.91853088373045,5.6138978643312205,5.1909331123420435,10.085012104332147,21.03443827864038
1.989685279915358,4.818990093764939,1.501762059787614,0.7597525326536844,3.0408061994692717,6.954377544697343
2.291983072809199,5.180526811754894,2.1693673454612954,3.118625655193446,2.0925255838697874,3.452737985977692
3.801550985580822,3.1370482847402044,5.791292533011817,3.424678664968955,0.9795420375270334,0.6739752088126437
11.540688798725652,5.882397905303664,22.26951394016206,16.536195928106643,1.2610984164530576,1.752027147427816
1.9264804488275433,11.540303774840414,6.911514359920989,7.452994013334882,1.7342746297513636,1.616187239145604
0.3146814533058861,7.564887938047367,1.478185757522837,2.7314021079957054,0.8749717343193748,2.0208256947008616
4.685337589235486,6.594416667720934,1.4721403614366517,0.27248273477334223,1.8000158770468908,3.1406930854190658
11.665105207085082,6.11550499600611,4.833608780158082,2.4295135582742673,5.9070080236530265,18.838149253193574
2.6238051319792337,3.2531148134899004,2.543656740466671,3.2508154332043646,2.265967417813613,3.1417946135308705
2.4196036371121044,3.769760754287583,1.2583823999057566,5.180822028433992,1.848419044012999,0.44942279748508823
2.9472237874507012,7.2424216597270865,1.4749139278320633,5.485889997652236,0.851836045738909,1.861747569595908
1.8671624806908484,33.53031405988192,16.732332864034582,16.84282769382658,2.901414896376417,1.6973961903373602
1.7951651285444075,4.862093922160049,1.8563156551407758,5.853037527019809,0.9489072011913645,0.8701875078855932
0.7562538878369927,4.677144443459483,4.660414538712091,2.5024826319352287,3.6926603690036743,1.303968657397198
3.3878745661885654,5.833440049306424,1.498777222178574,4.236361659467505,5.836839867380984,3.0004707701870825
15.903729444349842,7.595556433421885,9.046708557282269,1.560004851094922,14.567212462982694,15.47684498363131
2.0388873313889144,4.350010080216716,7.173552767604141,0.3069937306122175,1.6918250536719701,4.390299767533145
5.3925306674661275,2.161247086133168,3.035273558550633,3.8084910944838506,6.836635567684087,3.013053569778145
3.666930364451779,4.3162273655306205,1.859387265136457,7.153240915969164,4.519679868798567,2.6789527094236902
2.5704767830261392,10.107494895805033,10.197903154306495,12.716623635471839,4.061415639884157,2.5518728199140077
1.0961828110787613,8.74561735447507,8.830886616310659,7.977057035012453,1.8752981321938735,2.365201093515693
2.415232278925551,8.340052122064138,4.291544341070313,5.100430262620389,3.93662387255032,2.1951653686029764
2.931850423323198,4.6023754726465,1.6035305399409945,2.817736225794206,3.2054767855641817,2.8697694693785523
9.067318977475445,5.764627878149902,4.679767717608613,1.6219864670512358,13.752310097663198,8.918256611061453
6.6092694229752675,2.34880201209383,3.356496722407166,1.382842520399184,11.781885200854493,8.007981357675128
5.53100360097859,1.1486138475753218,3.1240705071210586,3.7299230498313682,7.563052966252818,4.431279969504111
1.8957431026573275,1.5137402672806197,0.9945861809377922,2.988162426834353,0.41615920059533024,0.635550982157937
1.9364774273072969,3.6161993511869635,4.360690753843062,8.447635730100291,4.207168683002058,1.4913716470813234
2.2072946367743875,3.2345925488749137,8.681846812925384,8.86853454034751,2.924191953403389,2.2971785701325986
1.0796915552630322,3.396315106038642,3.7320033976358005,2.8318632126095755,2.8556150342038307,1.172537735504586
2.061272379336387,3.146359294151429,1.6548186668827058,0.43981579167750606,2.7347052677967065,0.8827325291575298
3.0810272373224774,4.415099331403137,2.38424408725455,1.7246035027873885,3.919797546721868,3.937455180737178
3.0255210577476386,0.947537067880395,1.2151914623254916,1.7070364542122411,10.070874132041455,7.303696763314751
3.516384543874122,0.579862625050442,2.2426348637082016,1.9951139099237707,3.6858550623006767,1.8516784260941652
1.8727269417880106,0.4299839750960068,0.6881809289280009,2.132913395940249,2.626281037147532,2.723448805294875
2.163539011729511,2.9330748352166727,1.966532267909054,0.17824943048284755,0.4024627908151717,0.9379900160127371
1.5710555769015302,3.051274985797824,3.6063295441830845,6.877342976609308,1.5744386187736692,2.2709558179414437
1.914963119713817,3.511589848574443,1.720834899938622,2.4051394148791827,1.3699072897214328,1.2856919754076925
0.8739497376119574,1.632795184297591,1.4242885805503138,1.8555834046674955,0.7529992162742503,0.9214561703858359
1.0817794835623191,4.42347096221883,0.7461341784723052,0.8444575579982988,1.814221967492328,0.9192831026575431
3.9936801586864172,0.5219213609156572,0.7532117296728796,2.7014776348764857,6.529730375480668,1.1093670029297398
1.2096726042599888,1.7524187251143326,1.7307686927352732,2.105854456135978,1.4050436806208362,2.6580330195125113
1.244328062821387,0.7883877298524776,0.5029549380711865,1.37984391813225,2.1046617879455676,1.8999729532672287
1.2929007185636088,1.2025872137692937,2.069077612580539,1.117327814867829,1.6937205935500912,0.8517034633507528
2.2488927772667195,4.103949779888982,2.1743570819373264,1.2694765109003903,2.045190695332669,2.1596684617895896
0.0751119791657934,1.4036404503744795,0.2736422686115565,0.11499702075627607,1.0047490731198079,1.1180870625393902
1.2276818649211623,1.795989031387398,2.1892399622335588,1.30820457078641,1.980031247712168,0.765909051527486
2.401729610464866,0.8607254531203322,1.9226932704364144,1.778305446131133,1.4808282360933467,2.5321213668602076
3.494388941531367,3.858167681616549,1.6839022509916306,1.5389664988118765,1.1994485488104678,1.6864598053971993
2.8907529144828676,0.5735682952163299,0.8111586988239731,1.7474881925086796,0.9410143693769467,1.6292715757442098
3.831511199007237,0.7251732289890807,1.252416215441807,1.4767882762701905,0.9705158201655035,1.768709884842911
1.015350420351701,1.3927168827212715,2.02422124210789,1.2989186366225274,0.992386069751536,1.5029536656589497
2.1131511868836115,1.1472643939803242,1.4605612888738366,0.7926145916859999,2.547874245151453,1.3852861277828117
2.9171684354734926,4.022207985662039,1.637863930964617,2.623257782881376,2.7277368002863485,1.3186295740425744
1.0364974425444513,2.9150991080531035,0.9460853692913572,0.5072154200766673,1.6958274158264381,0.40291738573152
1.3540509226551478,1.7911296209076442,0.47385113452308025,0.5727641648781346,0.6948317364552512,0.6987651372687059
1.1655399955127428,1.3793027858861369,0.5432627898287389,0.60111618242545,0.3743832874341445,0.8493447606780843
3.296763484725436,3.49171602896777,1.7465514275083998,0.8018953628779976,1.7433647948850204,2.869367473071553
1.9375694469838995,0.8420423285429689,0.34473524449712506,0.9375110200328842,0.2297315803935989,0.6713458477301426
0.6825090565473578,1.1356236938391606,0.9302271862756412,0.9243716403545411,0.6446690512966338,0.6166638882945076
0.6911348372924772,1.2355159704528735,0.46643810638353894,0.8736155305271913,0.8027546809215578,0.375835078454056
3.2227646788845545,2.6634631284173698,2.169798127818408,1.1462674233084915,1.461800748653253,2.014911436288258
0.5053465053054401,1.5407312928599513,0.5274986182875799,1.3552727932314914,0.9508833313540577,0.42839910624386335
1.450906450294814,0.9877557899548328,0.727403898119924,1.2053118393538746,0.2857463500783062,0.7846512937075248
1.098976132677633,1.6243812628821148,0.8263996572008165,0.7003262343859463,1.379661737564397,0.0343446381214851
2.5668581519485216,2.5529934341737692,0.937639975620967,0.6662112346503849,0.6362721111861005,0.6943984812622112
0.26891250782669096,0.3023321218031136,0.8496356570983878,0.7464184081294369,0.21126498067696792,1.1928434905955958
0.2851102488000745,0.42529256249464775,0.5909915761826317,0.6755595370786839,0.7797931817096249,0.15466522609200836
1.0302661085586833,2.688077159115576,0.7967039200126462,1.0886278336887385,0.7555070526540686,0.3330349868012047
3.3308506863317033,2.8395345242717442,0.5029290058708508,1.5900926387871053,0.8272179962460274,1.4322878021162737
0.7298537331550248,1.4022134913550082,0.4714378423742628,0.8331129789070856,0.8122453910182849,0.5570021150055088
1.8738525644645687,0.7570090974482778,0.9424188927334604,0.8862098507602366,1.0094988195251675,0.10627376230866288
0.675429895986935,1.0834616005076103,0.48904012366780103,0.7056424961956534,0.6122661204069403,1.1211559363238572
0.547179266293696,1.1692602331651634,0.714076538037394,0.7884966127135421,0.9772064632076825,1.0712949948204527
1.1869718271374228,0.8297111631875257,0.4026911402904546,0.4659438951848771,0.9119276526587505,1.0654055690951523
0.9473550352254662,0.5535602079275039,0.3970713777801445,0.23852424791614918,0.24432639541742726,0.6804673558501082
0.09597387952848908,1.575987926762023,0.26692603628251804,0.6237868745933344,0.28647339029414254,0.08536130208592664
0.0,0.0,0.0,0.0,0.0,0.0
0.0,0.0,0.0,0.0,0.0,0.0
0.0,0.0,0.0,0.0,0.0,0.0
0.0,0.0,0.0,0.0,0.0,0.0
