Gx,Gy,Gz,Ax,Ay,Az
3.9592539999999996,6.936628000000002,11.869272,62.774,560.642,84.372
9.943313568759692,9.721167088994768,5.197996206944052,6.301748742127165,1.1365765858784698,3.3788821855655278
13.306205271059193,10.752454998337075,5.888064553311254,1.1288789322468504,0.2017179984788403,3.746954946582365
27.90872868545793,24.843899608448897,18.907718097656996,7.669938069668062,1.451313759496997,5.903063233382487
20.829489621573614,55.670681490929205,31.82918896000945,3.080304746688134,3.582510402257428,7.08013820078604
22.035160902346643,126.86465038508638,45.778780503585935,11.730792214155542,3.2607899114798444,5.844897581635334
69.22550431396218,196.03207039922702,46.82390684927567,18.7324245581907,4.0504123035748325,0.7496317565077008
20.930591508296963,79.27175370232675,19.046239379315118,7.402461022342812,1.6677601583394366,7.71664042410498
8.081278375988841,32.398671916322904,16.725819806342578,2.337158686248623,7.212457213447439,7.027058756576214
8.973426908393986,36.7308764623801,33.853911524787655,5.841967436897522,6.977036467116811,5.508418907232961
30.554731388091877,41.17007128852539,15.14828790944979,8.01362693768365,13.415947366349561,20.582432811880125
47.092716260471526,105.01380463391232,22.533504218144312,31.776228982590148,77.37549337186583,75.38103570630233
10.915670838174961,81.60400985475638,26.374019415009343,15.253564462266365,41.635604236671675,30.800166221756005
10.91816812821046,33.73081751979081,17.56693793066921,8.90229967971781,16.302643957704756,19.776041533422344
4.842726181849269,28.281068979802395,5.686245431023919,2.9358324582550672,1.2473402942912781,9.448212499053211
7.988547625169449,15.6804223781753,9.864776206726631,3.952957393841588,13.522459928919478,12.271651525878777
28.249400699705127,39.8656007955322,49.15157595994504,10.404444432688697,15.94095105512687,1.921057044632578
33.6623870370715,68.07877025495046,75.17105034338852,21.9852187247381,7.4379805531005525,9.81560961087806
9.131498926700148,35.58247222644511,28.79027035730107,16.639428752810307,15.355441734596043,9.162216061847554
14.27082723104422,25.96513309539905,15.508892734414934,1.2773099710469307,4.602010012331113,1.6541091346674026
8.551718233059452,49.70969325430938,21.192938814058763,11.603805696803025,13.311850309067351,8.347945991546183
2.6319067352064094,15.844643502257465,11.791252780277398,5.020257813703446,17.960861195167055,16.286540374982952
17.88920267004517,57.86304416868087,12.028644270275068,26.233497057156058,16.04645497188121,25.30428977541914
10.36696518736455,11.350874202817304,16.326075387312073,16.446101028819772,25.84158005159618,19.086803177502834
19.79652469519226,19.99181946862226,22.98503929106157,15.659256312063297,17.617174826167457,17.20165729799804
16.680854516101558,16.386914639361404,6.249813148741533,1.9142337705454924,8.00096151661246,12.377871207869847
8.951372438241737,34.101695098340386,7.184590306736287,11.379124256649245,2.5247769598345906,6.031319067825304
8.018987573520569,56.59651493456518,28.734375089720707,19.638753215176042,10.971712969201942,4.1498953657132285
14.940842314021701,17.994113178653375,37.29943417123918,15.353146843731507,16.580957171637998,7.586705984990209
11.126708471513886,44.12688141233158,31.447234403407073,18.28109433013435,8.24281565417438,3.1644505724742324
2.316586802076457,24.004881052665215,1.3670072726784817,7.280476641008713,7.885586561629236,5.594745326453699
5.928835278885439,32.17834348900021,18.7652793050147,22.099490259563268,11.312620126263097,1.441623399593743
3.7991821834396955,20.048579257669036,21.03999666984693,16.619283626743115,5.7381730727083085,7.879168825677091
13.273330812956075,27.135106824095892,5.950133850202548,6.102873355374338,12.042730727117538,12.126242404896145
9.436529089972751,21.886247740979147,4.545037476293988,3.3930249560791417,2.3451158838510646,11.009554755299131
17.01819922101063,19.085775486161715,24.65367945761342,15.550777877312356,10.723438054478166,20.423000305986783
15.281316566645234,16.347565835582206,9.0412228512736,11.670221341274189,11.490653316110745,12.543377785312199
1.2847956756493726,16.173437494968976,12.465719285537814,12.490857590879246,3.7338092239860194,4.93215018760693
12.215503899834774,23.703676220194183,14.577234686221221,18.993753065431623,1.8723235729748031,2.6438461412120335
8.406707195493183,9.90062876650353,10.88598814839529,4.485975272769988,1.2788907533328637,4.094226122342594
17.08453549806888,11.78217263030713,19.903157173274032,11.14855732336274,7.465512469851868,7.630541278487466
5.779084863189668,8.006420180400063,7.63934716224034,2.151589018425606,1.2247327403149448,3.1706715971298527
19.085909532380132,28.597698147661564,9.105752578755805,12.926345982520951,11.501358437593199,4.454052231696063
8.275627185263494,3.2837837869940065,16.665585979704087,8.585641355069278,13.929503300913565,3.397093398953553
27.251746713983916,14.442796555920753,16.35788283424373,10.37859923183606,20.84962684494643,8.708983762441228
5.242467622316026,29.82553622113199,1.7325933526514437,9.639417886920318,4.435480891480664,4.635704858681348
26.876466206367468,6.55869211590185,16.892767796888954,10.674006550307205,19.004638245030677,11.788739205099871
14.056455456518695,17.063255127919746,9.96232062611885,11.487111180151254,10.57899588807514,8.915653728401924
13.044888663691996,14.362776381747379,10.171747637095985,8.421200801410144,15.491530913903736,7.015842091117525
20.399679482097014,22.4716208092223,7.523016315572801,14.512599057586037,3.7242908536739687,1.359067353443492
12.139969263551167,6.2272775966301275,5.785557579954328,3.3884792526874588,8.909773895912203,7.0536549003631
10.974184985612386,17.74088602269309,9.29787614957366,4.312001003330501,11.833519030879383,6.10902089477442
10.256625618691615,10.715346229324885,3.4455146260129705,11.860700488723252,2.2714881627815813,4.06885746962972
16.663282839658805,18.225619142349338,11.952762551687236,8.077362031337787,11.582061698701285,4.053098854310042
12.008508683005227,13.220027078106163,11.378495917706799,8.97185322699019,10.650269276072617,6.549286184797537
22.11588221843313,9.401120476148835,12.100949443423662,5.060056604156787,24.620694874278165,9.811906921642818
19.967194325311915,14.406612191194826,6.151446943840674,7.23037805943471,9.054777385247812,3.6319001545755722
13.179444828523634,5.462817900135893,6.468337392226918,0.5411980351305747,14.061903197930489,7.391935272592402
10.497615444244346,3.241489512779025,8.185528224493092,4.741823119061431,2.2308197216911148,6.009628359696895
12.86896442167507,5.131922065216559,8.001608461590113,3.7169348856848274,8.944782008327604,6.204309976202444
9.802423578612737,10.588484270093984,12.803725007100281,10.04750373017824,3.1105464391099087,3.7707239508682497
22.242274231400792,9.858974383797149,5.447112277203631,6.078255383754745,13.831617067340249,8.85441123140991
8.760650145718149,4.3766780078814715,4.316124315192796,4.582678045425053,7.82878758422699,4.805367036543852
8.8849794096007,6.938843839414802,5.064414222544713,4.132360071046538,1.6665787376897545,4.973418912936099
4.856908838680503,10.79028996296821,14.021780415649683,7.98690941416776,4.759047322263679,3.0895649028782417
6.871524765593971,9.382653427685355,12.269788476516105,8.073169506562424,7.39632435215196,5.1643529592763375
11.03774466028691,5.445718881649695,9.62515450055824,1.8044399174236545,18.28106516491734,7.110391104633395
22.780188733428485,5.421825717356345,7.627259614483463,5.934822397904666,19.903318868832336,8.12832330365755
4.2100334481760635,4.04721140027878,8.34995591558462,4.555095789037812,5.217544402022905,1.543901929591187
6.528675362419738,3.39255664803834,5.520750461220937,2.7214794889507288,9.38429208371438,5.560386792345244
10.414196228224487,1.873447173598929,2.1292341697311947,2.9124928489251176,4.462865792278452,4.021235325261369
9.866461617603967,7.674167093832304,10.558551960710378,10.051858865007524,7.560829207728276,8.150314602711433
14.548061054065691,6.337929394431332,5.511814507022386,6.284538723211178,9.930911847684504,6.962939922680397
21.274180040668394,5.221775678943135,7.919213127970389,7.013045159298509,6.839359086750677,7.816067030218868
7.062495719331785,3.6826419175677243,5.157800742789543,3.7177278193370995,5.606471059478626,3.839979672221597
2.9933323032641876,3.182921871490023,5.604098401579489,6.11193240296753,2.3924642219947807,1.0926753038348855
7.005391640345685,2.4916463553185664,8.253909689523729,4.066086766777263,4.292053407198343,4.729860976076989
1.3524814302062405,4.254298468950363,8.361453090896353,3.9820738907277082,6.2206692804315304,6.123511139019715
22.11428431350899,3.3330841778904934,3.342102211561508,4.404639986663354,14.736970644765789,9.371433216213308
13.275257015940662,2.318601470578038,5.985343320394166,4.846772241316728,6.234854997320384,8.338647536487144
9.38029077848763,3.412168281392626,3.563426637269019,1.3828591195401774,6.477359985205925,3.551847468202626
10.061398500613155,4.181052572498561,3.8434219563825116,0.2689529931418195,5.283251957560384,5.192590158081415
15.72788546374757,5.640640787495823,5.898615395819198,5.300089704482852,7.163252355282488,9.422138757694437
6.157661675244755,4.12404902546164,5.692941284121555,3.5134008258789575,1.873735676727858,2.5047831444435102
24.137649303035175,6.026244082127175,7.802409912366087,8.214144608686475,8.095177148998001,8.167103771217079
10.478093846407118,4.194782382595289,2.504788035731476,2.6504202002068924,3.856072388483713,3.929325620904726
7.496604696171216,4.631219879165788,2.277339271983437,2.7343436432613255,3.134462146076434,0.27889074391390756
4.6558840282738645,1.7156263759064225,5.060307741334138,0.48843925296916807,3.497801049339653,5.184511679936941
8.791761329262112,1.474193461363351,7.39073598318416,3.39770509157136,1.282652079242248,3.3367982807179906
12.799181973967798,1.0471381502224542,1.4457620085994836,1.9815758732089312,5.916043764084862,6.279101355879634
18.98172183035006,3.5022191781773993,5.284196096780471,1.5966817374540296,9.892912738857598,9.504213280668596
8.838965031721747,2.168257950093015,1.3731448034619131,0.35652654476084505,5.723800157682657,4.191481623600602
9.105072380003424,2.516006539524312,2.1839783930625853,0.604481282104737,4.149742487041055,6.32654028823746
10.323540724907827,1.873475837097212,4.568214042507336,4.010106017155558,2.2590633885053446,6.20705125262674
9.155511411279406,5.266788115578777,4.944176761956583,1.124441103844684,2.1389976351572053,5.892304129530352
15.860966061228194,3.496620387307114,6.497553983608249,5.639925517118836,5.475953187602741,4.511806964615829
18.73327684508691,5.012996018795712,2.8617249769007467,3.2141364964911334,5.973925382072362,4.089907799514298
7.168180299119307,2.736975043060888,2.597268659863177,1.0035440600729775,4.167333117819977,0.7224480790525761
5.646123202072027,3.3229048531984375,0.8816808762669376,1.4843469022376585,5.2147369463621445,4.858441538789726
