Gx,Gy,Gz,Ax,Ay,Az
0.05242799999999942,5.276436999999997,0.9324259999999998,3.0699999999999985,570.634,67.05799999999998
4.090150834971545,13.754070793233998,2.3618669856614893,1.8177266451337921,1.7102467116034918,4.6596129686721275
5.1935651506541936,6.551729660412002,4.558377564147311,1.8169947702379758,1.0576606654464085,2.636124748789188
7.7994756713314555,6.646703551123374,7.877162611774055,1.0705967230097027,0.6732431215026786,2.076659276096507
2.9136818607179693,9.627116927037166,10.294065950687207,2.2923448235457227,2.499952070354676,1.11673126664212
16.32054209293318,13.357690133821867,8.175870966400494,2.7945223658011265,0.4244014922199748,2.101324721278225
22.57924971017523,92.91138742693884,38.04396082307043,13.17211118825554,5.4907435861287075,5.552675263566018
5.674060255204344,6.899146444030399,7.197891153522127,2.677700839094349,5.447274743757619,3.695219255605193
4.765843842988881,20.45757708481932,4.664146782746233,2.378689386530979,6.499144645676522,4.490930435104759
8.472932097720324,8.242013544409716,2.562864719925715,0.9883648991622398,10.480240443855784,9.139665887281394
5.525221460349531,9.024882875928759,4.023310538550704,2.2277685524796267,14.56471568238423,9.588045465414163
13.472037768562618,18.370569691250477,7.073357782421596,4.302169314742713,46.657017512681726,28.158074029127338
19.13998244305325,5.188827661822411,8.255332232829698,3.7269338615505987,52.645654591831786,37.09579393844332
5.719547379717888,7.591616172092722,3.78519061343205,2.5339167853237603,13.55270566005496,10.567230875279234
8.186217610234495,8.679950689190196,4.103995168624735,0.7385658986196304,6.1810720313588305,3.1254449026204427
2.64375887783425,17.705855776047063,12.91420028319218,1.8147798425229444,6.958900958680351,6.445287124974142
4.341301329563991,14.120296339133855,18.297667554736492,2.1970480216682806,4.565213302265394,4.649168853709952
4.816312064113403,42.25332605749391,62.43974604020067,5.9571030880530085,13.478952264708917,7.714483440718785
12.272982943459823,19.833201934507866,36.70876371195838,6.559018592411046,5.826507467672133,2.1999574829419224
6.264027517141122,7.152465142979037,16.740388402571497,1.6767752776927674,0.7651166154095168,2.782691086405533
1.891537280581961,2.0185431167838774,4.02422629065214,0.6940561068924204,3.1668978246651713,4.165332188037197
3.184077773603163,12.269454406664433,1.72117719534503,3.9136713626288784,8.050303369783883,2.4590290047841052
5.225402634567888,5.368665756411904,2.15091335127288,0.819878797748633,11.61161942804434,4.7375928116178265
17.663388322889016,2.884992597424237,8.808666286186053,2.6639818056007174,19.16305870399154,28.43822097852508
11.234566425571675,3.994220924191042,3.297113722056322,0.8998688578419727,8.488874050388471,7.135597142767171
9.684117319132818,6.844600952814811,6.021706846612933,2.3955507687903967,2.5157182678876007,3.7613947247574915
3.862188312308172,6.914455275975686,4.356822771951691,2.4255440638144026,3.102010755279196,1.7791792116258514
3.6069321622487367,15.089169885692586,2.2691555440397955,4.767560351587222,6.304894013306412,3.116454703511657
1.7436572921198565,11.433717874602813,8.731708831806268,2.645099634136467,5.019372103982862,3.2701206550011537
10.364387879738878,33.847322771745596,31.846943168964156,24.45958217790821,7.2254663643320525,4.31361071484135
6.860788573025958,10.239437238875036,6.377683524900845,6.884230817386713,2.272389728247873,1.5195370945289612
7.642219080573987,15.160843405181124,6.040156226460301,8.487576662917736,4.6600176902920145,2.4749386956708475
3.973241036836517,13.600790207211555,3.2348735441401377,8.394578540627434,6.346318929075666,8.028056443905832
5.143587398413898,5.916110985302454,3.010397911869747,6.063571091769015,5.948721950805184,1.630796730159206
3.0260460199100834,4.161582888548924,2.5742195373170085,2.1091370932231164,7.475181011200734,7.959928795465621
8.049120751801185,11.757907003295811,2.1754721968612163,7.644437885941257,22.697338974516132,10.063108024466931
2.562133240911537,2.0963974085157586,2.235515129726627,2.7762239820714374,2.636101082575784,2.1920449836353297
2.5980644234454626,5.43500037941583,2.1572098461888234,4.7719944376530705,3.2347312896986504,1.7041664267944023
3.0305018455955777,10.691650199280241,9.582502714939201,3.3491722942055246,4.711947138751508,1.7352541604882332
4.513563238855444,12.095000884816006,6.794681508933706,3.8891804232159015,0.7457301596851815,1.5687855260621824
5.288462627501122,5.879088013210051,12.057167486015198,9.39085422112526,5.804940970022461,3.925839318138434
9.411284095846804,11.95143838920068,16.600048734677966,3.398918939651811,6.930133785096023,1.2956531303357437
1.9930865020354736,3.9588330341033853,4.998297027062017,3.057669834709749,4.260447530904214,2.050678788889839
4.192833508104835,5.755480777779928,2.6149599851517427,2.4920520366899566,2.262505399202577,1.837013609218426
4.33794862751255,2.5956126573624947,2.479594995571693,2.2964402592179733,7.873931272111212,5.124660103356234
1.721887333251621,4.475082766941488,0.4062709805306017,6.496388442073294,5.7222904318452645,1.9251645677654772
8.835219038097792,5.008759539877233,2.7631357247637474,4.769668372072296,18.89921297825636,8.995614967498808
3.302805970965734,2.625304048860951,1.2965363227475897,1.8076274565953134,9.324851525005277,2.3078458268916897
0.8912425363611529,3.90763382592635,2.084905584585566,3.7833576046226542,2.949579599248149,1.2320490470266496
2.7844777691281135,2.1371631762697647,1.717231716498674,4.325880761382948,4.913267205878604,1.1666674332670115
4.497448165769102,6.619844849368086,1.4619370208794138,4.16753712305487,2.0415316115338933,1.0576444586320726
2.050248877265036,6.424684125475239,4.9288045805372604,1.8793023866341398,1.78797668099215,2.2431291098771577
8.086024151233955,11.308990907292612,6.392702889353056,6.400858896259618,4.124976857704868,3.394795294835011
5.587423098680918,3.0287585293486248,2.2610939674772927,2.7809141407536093,4.768277564698581,1.5414018476972449
4.225871143666145,3.3721296805722627,2.8709342049121647,1.9118002413770356,3.6029935375289552,0.8620823147061196
7.070985887263859,4.293795235101756,5.55079165918927,1.3306399274345906,9.451809543479182,3.703178530546895
3.041916282194565,3.6709097887622093,2.1654973622578084,1.676340050585973,3.877995427261245,0.8155188401630107
8.333838479475247,3.1676735746609457,3.0453470469013437,3.310218922337304,6.446623869287227,2.5513643106016333
17.64476769078867,9.103187339667631,6.11207521459135,5.700990052131694,29.018417873414915,7.048826957100791
2.250003706510687,4.122443686397711,3.2511293996750683,2.9533258068540627,3.4074762505852623,1.408286903388382
1.6645535600098464,2.7866594882048696,2.3033345004991674,1.6031646075234682,2.4069039603624494,1.165031234034902
0.4356535622817074,3.183933121613413,4.3096250888012095,3.5697201640706933,5.584995543534854,0.8674952174436292
2.207974830835222,6.4779269629128615,7.784560944557938,3.0366547723569806,5.716406806141566,1.355872705279606
4.113866356447883,7.8180502010724915,6.548811224423617,4.348602142295314,6.781667012386623,2.3605578039118864
4.243906525526202,8.513148388678202,7.070678563513914,6.336846081597109,2.9575660741912406,1.5659866608979593
4.479602273599314,1.6393926049655378,1.8431547103708108,1.7393348133523057,1.7902951211406215,1.5465280838478581
2.159708674963033,3.67034088164346,1.9261950638130196,2.247743152907168,2.6838974689256854,0.5008451331829956
4.671496736221008,2.5883877499457273,4.9932525086438,0.8989204101987557,7.732451699073208,2.549905988446011
6.480654471734549,2.3431310029249635,6.762047152482274,2.920839256824117,8.471858914626969,3.978798983560588
12.83858731046757,6.411221920200219,9.052099665709687,4.927722692530879,11.390389655872056,7.579190995649956
9.192734836553983,5.0450936002446705,1.078140691447165,1.561569241766902,6.976047394272089,5.416923666093706
3.73325502197352,1.1220731485956317,0.8343246721569509,1.0181764163288758,1.9587825388743774,3.107236432832977
3.230012878017393,1.5124835204016265,3.4460120625677,1.4631596463157492,3.427227358826809,1.5645833905370956
3.1583123261614836,2.7140428482396906,2.470060363998539,2.050369332670408,3.2211871539983075,1.2287435600468488
2.636009673969255,4.58871337148641,8.40719170648588,4.703602332992251,2.8740354538775117,1.8052329525246267
0.5836397445546198,6.202956644122754,12.388020825352333,5.683819469359393,3.713188656218207,1.8505843295003623
6.7861662489329415,2.914617531928389,3.028145165280744,2.05927032964741,2.4967992699791206,3.0880469686492287
5.481460123903479,0.6890519148209426,1.3811696116060568,1.0315375449520805,1.0572941405961351,1.526958256897768
1.6355005463991403,2.8977731384163152,3.585294670971853,2.1283777764853706,4.033907526438573,2.8204205491894667
3.693440911660787,4.212700422907938,2.957092240065226,3.0065153365824595,2.275967224919412,1.2366155983356284
6.473780995490213,2.3722771780009015,4.136446431074812,1.4690468081729624,4.250597760576077,3.9066968689376633
8.178065738973315,2.193163974927323,5.085663425516995,1.216819921398982,5.199126695668579,6.309834131529015
1.3428962618544287,0.6272923385178677,2.444169493098906,2.369090849960957,2.0116643977972553,2.648725504682399
1.5876339772799206,1.1272001664742286,1.244514287803309,1.756821301677719,3.5761436817179058,2.303089571446908
3.349307275002001,0.6270752316840554,4.302457068225547,1.47507758785213,1.6328150558558034,2.2552851894228767
6.072432300287523,3.3675970279937215,2.90095634780152,2.7703774494187954,3.022412174669056,3.1994192112689563
1.1331226437814477,1.9855042913804828,5.224245482664445,3.247295477158025,1.5859872483206208,0.6909789034103533
4.689309249922403,3.327466682428143,5.668410605074308,3.8426905852336275,3.0026608958646266,1.5122169063202047
3.88251953673397,1.5590447956882028,0.6131107737659622,1.3828496161962038,1.869112434962529,2.165506427220494
3.7143583831392646,2.526311078255355,2.416132812614941,2.491239094783726,1.03870204291471,1.1523622826250683
2.0955181265246137,2.228398207985917,2.114804784680643,0.12890563383560677,0.932707689936814,1.8150997618217892
4.348706020265991,4.473595628894616,4.830293235527983,2.457315642893934,2.317576485135089,3.179961422510698
9.301500841934626,2.103668510356638,1.7528475416590297,1.4385842331218743,2.8517300205583367,4.974524992411842
2.941090179441934,1.251286880450299,2.850028913257167,1.2889586857841653,5.224011087278105,3.8488031678657113
1.4574327292169689,0.5896730368332318,2.788058285717801,0.7613440184896801,2.996195121136674,1.1119958626778343
2.560628622574865,1.8668943769869308,2.533828888455097,0.9407100208188198,2.5555667962568633,3.5398570439019035
5.354258710060955,1.5131600460717902,2.0228380805585093,0.5547615707282468,1.8175316148230323,1.622309633406439
10.399546728077755,4.004263156960694,4.970879381996845,2.7763838881681235,2.4511870520746433,3.0631296691641396
5.887356767457397,1.8620534921108851,3.82310346237562,2.190709735208613,1.9218055214419338,1.0386909603531824
