Gx,Gy,Gz,Ax,Ay,Az
2.2414750000000003,11.765792999999995,4.121494,20.595999999999997,397.46799999999996,32.62
1.14305770135086,7.067967265402333,3.732080566283163,0.9079534747544203,0.9558424869758602,1.852117220419983
2.4315354417198107,10.465452492946,4.214268419984896,0.8838707107367837,1.2788740799975116,0.6151190711791064
1.4250373628262696,11.59457184879363,8.12547756111245,0.7690825964717805,1.0690083223211562,0.6924252131619624
9.363461578254386,114.72715267697829,39.448663410067105,8.879506534834976,1.2261771096336913,0.9795991166647684
5.647937908377525,13.972215311705712,8.156471191059914,1.2054424344714243,3.033264682292089,2.2413544902088542
4.363820775328378,15.37676706870495,2.6866254314628693,0.9562837745976746,3.845834524544291,1.528637962601064
5.048196777511477,4.635215347123872,4.737991123395908,1.3617129201437466,5.615416795902904,3.6691252354404944
37.01137858302387,14.704406307004765,6.822244408793481,5.576824005241343,67.41172549051797,39.35110240565487
6.147568370817378,2.047281867054052,5.1936471310247,0.9486617043006847,8.242080579041524,8.096959877828903
3.9032034172240966,5.835348128145645,9.502523098235395,2.626880533686719,7.447666548523336,2.800913278659371
3.642187014519825,8.987015635139528,10.97126429397392,2.5883128199420087,1.365648412135026,4.093810070168537
9.254877980599455,55.58494187954995,66.31279160573153,24.717347800489165,3.1599410187656374,1.7092145365712696
3.5937979349436207,18.820058081477047,22.385916238590404,8.628536420147887,3.0287606521539043,2.537208501380975
6.164091344469414,4.078758228685558,11.849041954509115,3.559615213053304,3.4760463483845365,2.121527966231006
6.950254174300415,6.71811633173253,3.6301737543318264,2.3539953820055524,3.205912082840816,4.548775884952006
14.02176793439009,16.45408592751554,1.1347831718297465,3.770104098046282,9.709991308700323,22.613299813804964
7.489604941236942,14.651653097440265,10.1979578952099,8.47381569469679,8.019419104932854,8.416355461998977
1.452951148935821,4.869028798017444,4.617819845512954,3.3468281550996672,0.7810345138687902,3.128066629966585
6.38050194893093,16.137646972709998,8.208581004446755,12.521508425184777,1.2463262823054284,4.050260354260325
3.565536377357802,40.05394832889625,15.178672956988342,25.1663154869036,4.3621966531207175,1.5131180916327087
6.221207271534726,24.025948607918092,9.695262539851143,14.249008586029325,2.035362537419449,2.6548952267126698
4.145823778392124,10.1722220506537,4.986553572166939,8.003048366761908,5.4018106938073,2.1002445069224036
6.291448678493447,3.0834456761949993,3.594087370891941,3.694151707170603,4.906113543129099,5.62253248244414
20.78230891451223,10.284265470814566,4.5467009122412145,1.4525646419555225,17.31119094517692,16.538885832888194
10.67267272606236,8.88614193828755,4.510430257709913,9.263595650685824,14.055687486565974,11.320077549699405
2.9691350002870904,5.21290996051892,4.345274102714988,6.363600335820405,2.7605818210042568,4.047150134001332
1.771687971039713,7.210920261051009,2.222299434424818,9.359076780152332,3.5418176227004956,3.9557966009428713
2.07511948675651,5.268164071676498,12.270534581699852,11.736476797791914,1.9775214288048824,3.163238467586341
4.739394958849992,14.306537439063955,14.263695464977232,9.952300416000673,5.159219169027982,1.8575452354430502
4.370002197338029,7.558960480659513,6.688058631529302,4.235665114972103,7.1051074462805435,2.800550854444725
1.7831031338883316,5.050550931711768,3.581511135880205,2.267732567041668,10.140451199847716,4.054253467088217
5.769372501699769,10.914356071144258,7.8002367070060705,2.336597797619663,20.594341669387873,9.503289558194137
7.400819506706985,16.044661281333607,6.4054665228089025,2.044216937042416,16.384209188353665,8.039377024475108
0.9839079676746736,6.309598394868508,7.281398031797928,3.500868286351187,3.3771746399929725,2.6584186348748484
0.5802256935383836,4.707061979100749,5.174404523685105,3.0778222136275013,2.551963963031694,2.475646466364366
2.939484050990604,13.228343306463346,8.258036591012338,8.401731475685395,1.7973674714893082,2.8312003514275514
6.112763954453663,17.096144364708564,19.914096736121735,7.882979565003853,7.3184937721550325,1.4618431379056676
5.108470380453928,3.968639037810869,6.090800014991243,2.538102601046821,8.466747707370692,1.4867574634307734
2.580012355983774,6.222691310805882,3.4296111723397997,0.19557950799046692,8.082503981843047,0.9061033959802705
7.798691629029898,7.844909965568015,6.797694416648665,1.5540659645741146,14.999708952175974,2.9704596270411088
8.376091711368893,8.361439395783854,6.544207793013206,3.779400802404326,19.905306838291892,6.8961853636811545
2.755697457270558,5.347607436788493,5.38293317943651,3.2623679805059873,7.228580968815987,1.1657454939016754
1.368318520965265,1.6909439601764402,2.6045761513665235,1.9393722912414029,2.1335771825422447,1.4020066944499074
2.4017969203321456,3.6921995870619617,3.949840478872105,3.7041419574735337,4.38364367807554,1.4047393695943504
1.3908257990156851,7.295081354089209,13.176444073330686,3.5926711729962975,6.730852549848364,0.8686892094107388
2.928346358365731,2.8629715873271735,5.448084150303127,0.739996094468009,5.271287887925871,1.0716096209208474
0.5301877200449577,4.457514579914074,2.095184357067882,2.13969289538967,3.877176478336887,0.5805876951561586
4.125396400905657,2.7506707677771134,3.4949846201081645,1.0960717965727034,4.511277909864333,2.1162420058861007
7.749144724198484,3.6023055898165888,2.0334699412548867,3.6888702948331638,8.693718918080306,5.653612511321164
1.6744319422027751,2.126929061085295,0.9095271940082221,4.098457106752926,3.2662462902812863,0.15710057360563368
2.7722202242665466,3.0879661350125787,1.9032194928574735,1.2878037301187155,1.3142196945051692,2.380116630090585
1.999361989712136,2.0139627559677815,1.0135896134025655,3.823025897071845,2.2158724140946022,0.21733864236717426
2.0334576816153507,5.137171068681542,1.152699335312639,5.759239567022864,3.3470317810536585,0.982372063354221
2.6639064560826107,1.9342174884138033,2.135920944603884,2.6708220251460437,2.159768221838524,1.6629809726314115
1.637852997981193,2.079954113294416,2.2547487919827,0.8033344372997955,3.134529492816718,0.8852513480648687
2.080307350231242,1.335635765618767,2.011176343567442,2.280252420265771,3.4986085860668905,0.5576541377735973
10.546788582885641,7.254607950607525,4.05120213430964,2.10421038581581,3.8166351605311664,5.032021733252576
3.679205225364118,2.095351172116741,1.1219233811183742,1.4539886385480565,1.9766977093506435,1.6485223163715885
3.8721787366512013,2.4751055944462905,1.3842156295575612,1.0970964854815188,0.5419718195556921,1.8377858735333048
2.6079059779041147,1.6791129570546754,0.7877179650072647,1.8833294813946306,1.3546771890160207,1.2178406458777558
3.7751183559842882,7.9746996301215045,4.063949523975689,2.4014727919842067,0.5868176708595402,0.32079079698511576
6.359264280405523,1.0821845425558227,1.1824141386956977,1.5180662152738682,0.3550144659272002,1.5920530212034512
2.5946781569220887,2.9527544935319368,1.0119255518079613,0.7913189209076951,1.2861221364133315,0.5805756607971452
8.05655189675603,1.7475953872895216,1.0258699791780115,0.38149966430525195,2.430575190753531,3.5572043218481446
14.0310831059248,1.2039792496813522,2.225501200953873,2.9292855406296456,3.1534053104642834,7.336462047747452
4.519530600339409,2.4720328283075603,1.5916695095304618,1.983042362809813,0.718695429838319,2.0458826136448574
5.477245629679089,1.8913754791148403,1.3211854440920332,2.084622066657774,1.6845305519693299,2.083916609892438
2.966267578191592,4.506770069620013,1.6177380434668738,2.2649169139304517,0.24243414830731558,0.35567939368101326
0.20204170951856945,3.304781562117396,2.789346613637291,2.5969937523839866,1.8788089081610027,1.0828501725435573
5.338597780055116,3.7429257190321117,2.2092427617303247,1.8659473645472704,1.2418812757904536,1.625044291612217
2.65030279284865,1.037585464865715,0.7958912871069269,0.966025676918266,0.5988541479968007,0.3108756739114615
7.014062359761,1.9100339238418833,0.5539447112438581,0.9915148958069887,2.324136140761412,2.3598977175828058
12.400391997267224,3.0136189509321403,1.4997918588630583,1.6185830870874531,3.3148901211428843,6.35921361762151
5.868531443965198,1.1518627090369449,0.8441424941718736,0.7097765462630331,1.8678207906269484,2.073064577206648
5.254920016073525,2.979554693819239,1.6225806909952967,0.9794688713490548,2.0456048370283346,1.582297863586942
0.9985617000142284,2.076432940101202,0.08622078002080945,0.3973689384230564,1.7648085741234678,1.2349213628052178
1.5914549368207769,3.6989614063890404,1.668334706918036,0.4880154899079048,2.7915999078226963,0.8903480881338184
6.806428843839085,2.498879192030693,0.23049686241782036,1.424490818626809,3.1215746851857666,1.793484738951092
2.793019246918881,2.530931258839512,1.0386319784301277,0.2974804356066767,0.2507349163409445,1.085789224902367
4.645131719455212,1.4821497415915206,1.110085307244437,0.7608060373610049,1.748296753018109,1.9523769180806283
6.6523421151684135,0.7033410408517384,0.5841490639934355,1.7630304409456383,2.025828094451516,3.642644976465174
6.554846649121658,0.787529244233454,1.0592326056245256,1.7821132430789768,2.2795350784251776,1.4415829416807153
4.86640639314871,2.883174224419826,1.667871920034364,2.5914354199529637,2.5025925842871524,2.157267988094665
1.4600256764938775,1.330847525136243,0.384512950417918,1.5165968319523855,2.142380511220267,0.9257993596222224
0.4043552188579966,1.3677534431562066,0.894383649534904,1.5759847288137292,2.067816790247703,1.5919418312500853
4.737511252550332,1.2289088244153354,0.6777659249381742,0.46906531616321245,2.465498380028582,0.6788676554904127
2.1668206090041866,2.2736953190973788,0.9944212463948996,0.8489460502910902,0.8485112809687843,1.384677118022265
2.6221703735981485,0.6608059196339752,1.0359097215271713,0.5086398306784498,2.006274648577737,1.3323256256424967
3.468704877234075,0.632083610443292,0.5946753193993687,0.9253410282786017,0.8695652365440977,1.3966375672682279
5.101462367951284,1.1700170488827522,1.4889847612973999,0.7677631594268371,3.4517799549219426,1.3531753540733813
3.92282872935018,1.6453851939341075,0.8390587191470563,0.3991482253590808,2.4663704569540705,1.2296208666161197
1.3542739340990073,1.2307762377945917,0.7125156005057759,0.7668815237594171,2.228848730376279,0.417926890242303
1.1848979719217547,1.4762273662872227,0.980987058193879,0.7984041360238688,0.7083884249784926,1.300475612469794
4.491790416396471,0.5902413203257026,0.7619287447958271,1.1798199488672758,1.7676605274730008,1.152272225626443
1.3170325473790883,2.1581790605176425,0.34151276535396874,0.11053635001048834,0.4100580128270417,1.0489964031434826
0.5220351263647285,1.0014040681809473,0.23842946358694173,0.7961302839424773,0.33790551148657655,0.5173565924639313
2.312576527490532,0.6167420158047313,0.10096301464236943,1.3381204671351667,0.6428254254074498,1.5201339497931237
2.973075216301902,1.5929123680247865,0.5207767723777696,2.316642408924234,2.9849848135727934,0.6231274054050583
