Gx,Gy,Gz,Ax,Ay,Az
4.434307,8.589214,3.35985,5.815999999999999,537.2,57.370000000000005
3.8363409923883127,11.382131046650972,5.919701489353568,0.5728526208890445,2.6950534678921176,3.798445133734083
7.652933479474518,7.908415737161051,5.684230388090388,4.481845256771437,2.252298276307787,3.0159426567761485
7.331202610682997,28.990288487918193,2.256336332280873,1.1663413281584383,3.1925311395208213,2.255001761730646
5.401464021889166,9.097280671517895,7.730203631077579,3.063733229138771,2.0104658855553517,1.1678632488868965
12.966943935910614,29.791406255711617,19.081258025657373,5.070615299545534,1.4503560521382894,1.2002630631547235
20.237402038139095,57.82854067893637,25.131991954823793,11.798336875252806,6.152568719641775,5.204429189434109
13.615324211828373,10.982506695309528,7.451041620498438,1.407846540138153,3.87324640701631,1.63532389190446
4.566319995329067,17.145717039741953,7.115417884613679,1.349069960982593,4.829746683217294,3.8436885590850425
8.241107670387525,14.396349983326171,2.4865633911922553,1.536555458985872,11.28502186889834,6.063252383913887
12.315422427742616,6.6551240916141845,7.876974292635293,3.0845229885044616,15.752667104474403,5.550544416898506
23.886727309001873,18.201199321803145,8.880873902785403,5.818804691891064,77.29901242360718,34.58877478706268
16.196043512859227,4.780454379010809,5.113539230679382,1.3359200326156748,34.1635583827944,19.48485006178034
3.4558153097759465,6.826287255258689,3.180069436039857,2.670728334285273,14.762976898022513,9.493753704044842
3.9117579672515634,6.339722724986501,6.808799609350102,2.91643805780718,3.425375706115702,4.695276146493635
5.655628891024698,12.050530612724097,7.534650188293792,4.531656672936719,2.5763447997630142,3.960331650005365
2.8481522019367698,18.14535754672723,8.42353441444863,7.103183327768424,3.6961308193712874,3.6035161732763696
3.2238283474544023,82.34920851572004,66.0064651849586,34.19235906074281,5.4489634336587285,5.126225957391004
3.1864385317998725,5.4385319609611855,6.755408318548326,3.9795155006074032,0.4264564421213144,3.3871410765486405
3.281497445656696,16.730918462210294,5.6685514578961085,6.919280275207178,1.1578830072052482,3.902230633936627
7.575369905900083,11.283515446614887,2.121265001561964,3.021283027188639,3.0644036862882964,11.399908750258255
6.53625759868857,3.1376627776399344,3.75238490330979,1.429224801003537,2.5922890048680407,5.280887041245345
12.430157379855675,2.796630887600637,1.7021845763399073,0.619073758411909,9.937357361011344,18.720785448077
26.009216980398723,1.953543987111081,3.9133066725174444,3.4700143095396356,10.995908405989573,28.253005231267867
12.495185009839595,7.726615828607665,3.612095792414735,1.033081037991027,6.967683258620776,8.81248605544261
3.80517176842637,8.75332939566106,3.8093923841204864,3.1339692451141232,1.552157840567821,2.355090835351888
2.0567633783149017,6.076410656974631,2.1123877313455557,7.2410112964342686,3.5359330312094372,0.9190095098961728
4.686198192552903,16.96607962103253,2.257653081914902,7.714399816622198,2.9912815173758096,2.3808140531901882
6.818378836263526,8.273207705806584,7.400025132063853,27.886431908793835,3.821401144171387,4.801273522416856
1.4911787693232204,11.110961427875242,1.5798277610898581,12.447661514499123,3.525932572923937,2.314868208799996
3.084562371986856,8.761513814899482,5.670775559139599,5.572812678640004,3.643533491834736,3.7378429355194274
3.005668245719062,10.728537063228108,2.3683234786932554,8.429031384470578,4.293018630083245,5.426084425078531
1.6207934282361791,3.6562144513500567,0.3535787043953208,1.8968723890143073,3.99725405679563,1.2639866109095688
2.7107738823601717,10.359434690196938,2.914642668487448,3.5821098714825768,5.461117746368948,2.515199222275186
17.307315439227818,13.98768153093092,3.5653441304614026,4.374345153499815,24.130746807730915,16.630297924796043
1.1758556171843477,2.1910233678228277,2.1281051616594153,2.227171629122455,1.0438601591086125,1.6767244563552437
3.3840108353379126,10.182305207921372,1.9311797206044903,0.3650455363421492,6.6473530104269924,3.2588122985985555
2.1564115538132,6.382792612841707,10.090265817590874,6.6069639463703,5.451733444971809,0.8700641276319754
2.6023549910533976,2.308424612667569,2.1732679052109374,6.491643455230113,2.0748129851069117,1.7452262688949747
6.11197340539539,9.220455757339929,14.353753469259072,13.27208199682702,1.7878386355564995,2.464459422375353
5.285169352664976,14.993097642190545,17.073188815384963,9.449778373847812,2.5484086043512026,3.6832483805197476
1.7044663890261942,9.067125549034792,5.521881202739992,4.605918578375728,3.0399414880585387,1.9933801831547273
1.3108424457570764,2.118657975283642,0.6337919450082795,4.735332648374176,0.4493580256402196,0.37792396617876256
1.4097953597481676,6.509276317540501,1.2810228951452916,3.6154961047036895,1.9130517987275684,2.872915705505393
1.044070082129481,1.4698347894457595,0.6633649164108537,2.4056548385497405,1.7266512317342708,0.41367243567420314
11.004070317849305,8.190345192378953,3.616389097955606,1.458444980300571,18.57965758083433,6.641854350949493
4.461429771384802,2.5805478824213477,1.9397388884516786,1.2138095739112946,6.921641998046767,3.0409409913488115
3.551525941077563,1.7742702508514936,2.380396049653208,3.462383539848355,9.316965938621477,3.1114681664243578
2.870173379268175,3.595035502923505,2.541945108035862,2.9461955594877285,2.7099560725885716,0.37696387039529716
4.902438567958133,2.9438202383355385,0.16647004811518393,0.9647902275625385,5.55629660750439,1.2227691592890644
2.812716792716526,2.259598134523079,1.4022729094534707,2.4495530579880316,3.6964103505269073,1.1877356885235786
4.099098560326075,14.20384454851202,3.9850615488972077,3.10777228691603,7.500201121272889,4.2302077486241245
2.547465393690146,6.373358553092751,3.455976420512048,0.32758163066736695,4.0709094969951245,0.8804280907182009
2.764956183618276,3.3578168923697698,1.582788520742002,0.8715663327464789,3.4483168224934215,0.5863576006928428
3.5140564409142985,7.091248909572179,2.937205503060119,1.3210060410818147,14.952101709354539,3.8296562146735127
2.461718819665408,4.669771814114253,1.0811130593185032,0.45973128173917965,5.65061880445907,2.604208592070041
6.474333457199233,14.026882137439776,3.371841500879703,3.307654148378198,15.95123556985568,5.98593553160923
7.245373499517575,16.321977918819474,3.733446390190883,4.053524395668861,17.758299521981613,8.059941741976294
3.439090357959673,7.919162146633957,1.8854634831626291,1.9490431373640307,5.788237239191847,5.357159766218242
3.276038205527241,4.545632900376345,1.0908047212433818,1.7530860407595905,5.377823267262789,3.280311888980206
2.436053294604749,1.059416116369805,2.4346641188577918,1.8940704238854733,6.128497078212437,3.003590385093835
2.3511555888509785,3.9337704655313828,0.8082836964535396,1.3592055968617969,2.229481401462058,1.9343800256993362
3.114010462201223,14.278834674166669,6.398362391192601,2.994692519683598,10.271558024207154,7.833879195998504
2.521374106589954,5.607564546833107,4.229145734963451,2.0796074015730994,2.035740765660954,1.5419999865897422
2.481954363476659,4.90409671558075,4.910121759358901,0.6387967525381819,2.610008922935769,0.7426832071613819
1.6025474065232819,9.112476077490408,0.41495139182351626,1.7439719865203556,14.953712986168217,7.917562528291139
1.3882530744083963,1.8543161563335853,2.3451490575916725,1.3718985375780728,2.8769416122341545,2.4510068883759555
4.149092429381251,2.688717605818875,1.5811002108466221,0.9773658345992589,3.9562734257124257,1.673200784823029
10.806998150027825,22.02940404025772,1.3099490339984248,3.9052917832546052,20.28695574942007,12.409295208533912
3.150602368828448,5.340617264874873,2.3668846598851916,0.4956262089194706,5.040836672525838,2.401860899151075
5.647978993633217,10.048320001387362,1.660232708657846,2.3183679791959717,6.283847698083428,6.598505016723318
0.9524281397106855,3.569479510812056,2.1692521492813657,2.8190781176806956,3.2369722628338864,2.9107459174508037
1.07133893925677,1.907583438170688,1.3720867006993913,1.0146764600211118,1.2530470594273042,0.16274566294665788
2.894041705286409,7.895639837701952,4.6862231600539275,2.018110071929609,7.688894376770679,6.262520257121831
4.7380373591398595,7.512423291824411,4.065847248935393,3.2926486111893745,2.5514236299357793,4.361241311317004
1.2701728384029456,0.836335132192761,3.281281735618235,1.4469877991128732,3.0680364447818462,1.242554639048929
0.9137514057529227,8.157133420853514,1.7496504706564049,1.014839977318398,6.779230801937507,6.602360151485052
3.856807792464217,3.462146863294751,2.4438198344277193,1.3185190543762673,6.786489629070629,5.492022410691807
1.032579520626359,1.9887067272447625,1.5405243133600472,0.8724310358327714,2.533470192143732,3.498369075259288
11.528431608537565,10.841427409949604,2.1102378907332153,0.9135969366984745,8.975430054808456,10.088842852102564
2.873142942396827,8.406186144876774,1.6072821674188746,1.1761875116998046,5.052386441344477,5.15327166434096
3.6649527033151394,7.233853428248159,1.6652738072015603,1.109118496439626,1.6447449803619048,5.499213042966859
3.6791969411852516,2.6691846588444594,2.794130997126408,2.070967683698521,1.6640245172119523,3.110810178929959
1.6700443638766795,2.771280494823085,1.540118377671352,0.6854060659340586,1.5982753503574918,1.6280388020034315
1.2453608598360502,3.4654904854553217,2.0261482775219566,0.89914175419651,3.3872300801530826,2.543483275068073
4.1398362821208945,7.098935037632499,5.627024375564961,1.9664899344675988,3.2124211302247523,5.54502493947732
2.0648994794590827,1.2518230624175308,2.0273545501974883,1.2069649033743801,0.07968831947742412,2.0046609184377253
2.9728780153369043,6.1650090056524505,2.4110173211444788,1.0476487316562504,3.9287717977035324,4.714783710671918
3.652342858118774,2.573080111186813,1.86138790492634,0.568872663219158,3.9234940695472784,5.807973375465666
0.4268133447265218,2.240016166241248,1.1025677348884197,0.4919209388709194,1.6718722625574767,2.611823273854124
4.960355943058549,2.533649084618269,1.7536791515995542,1.1254035785333543,1.922503564436199,2.4838220610585475
6.3513408833980876,5.340270109658218,1.5484116509029504,1.1666773332845715,4.414086995064776,6.214671994562545
2.112438750161279,0.7578164123176623,1.1160500336673322,1.3298091383246269,0.9667477494089165,2.12762906092944
2.3678668596940757,4.044948470144457,2.0845510823597517,1.6823271131006465,1.886305389693746,2.0388324340098567
1.2823085184393468,1.7658577647532194,2.2760228255759323,0.7431431830210015,0.5524112454657378,3.1948122746177066
2.1536183142510876,1.143413713508493,0.7384497614827839,0.4297514074522005,2.4239798347814214,0.46971274988968764
5.396099408719165,3.2184662668895734,3.845231482197831,1.375445428411225,4.586610591808143,5.401635763459506
1.7589360045641218,1.912361872160488,2.558860050636539,1.2087009401350257,1.5211835338013426,2.3974357359895304
1.3336993989318038,3.5153917497274914,2.3647760628452543,0.4282278232792299,2.611404842628716,2.4271551230198245
