Gx,Gy,Gz,Ax,Ay,Az
1.036346999999998,14.930067999999999,7.597325999999997,1.0980000000000003,535.42,31.516
9.997851843165277,14.13726992214885,4.381886986626635,5.7233953402552284,1.9966659444462433,3.1521041736442292
7.514664829680567,26.051049019093348,14.076126876211575,5.60058054511811,2.332033588174151,2.761137887253852
7.780200891037005,11.937183428433253,3.3125047703138013,3.6596922992417915,2.7905241175138285,2.203184627920968
7.854798149981898,24.466782152708458,14.351675236837927,1.759475301488765,2.442106585664116,2.7606616861398763
14.988828515959979,81.07514591744582,44.98339480143673,7.375323251250425,1.0042257842315254,3.887820815712309
24.658137609282004,105.60745620004589,17.8890196142316,10.11994098258527,6.525160830832296,0.8283086562703244
16.445591231002496,45.04969953569756,19.920868935786828,7.357774819720185,5.20106139484049,5.8789784359350215
16.152307572314143,6.673111538107996,22.059284642928272,2.7031561715066417,2.8526881969727254,0.9724033080254114
16.031951430142737,31.040782797121082,15.901537452331471,6.16323054099766,15.205370037844888,10.470003191461888
11.928572294279325,33.13118417101383,5.156859857946461,3.992729434663614,23.187872614913545,19.0612517773718
47.3286061051613,66.54573380526794,16.040834551454108,7.231592849960465,64.88834019319849,48.969789063203145
10.984698297168496,34.62587263071029,18.871008501910254,3.0699880100964037,23.53210884923499,15.361833606351029
5.728221486339611,31.611475258827824,4.578995001941497,2.50938683484064,7.855128669050123,6.335470208263658
6.981798019595153,26.85322787563048,15.89767330284938,3.0338781696225046,8.296499295023068,2.1115929196438588
15.664054256027839,28.975638710881068,27.700619533140365,1.4454249308137928,12.872641468853779,9.789593990838414
17.291264938379218,19.91017972610802,87.74714621590877,12.426937216159015,6.672322823734982,8.662928542132562
19.775572106122308,38.65263128923739,38.60927623400889,12.986344836730373,9.577323964502826,7.369571817914821
16.689629391819278,19.907794867822986,19.678314899200938,3.462889705255009,3.088208773646492,4.95647340690099
0.7717856123479391,9.557575983215552,11.0067080661252,2.5478234418995207,8.88761004435338,5.057373785078157
3.7273995614027475,18.778521119143576,5.572961396606792,1.8720919124527473,2.6978728769971387,10.53545617350545
12.14812431177903,36.47881965454327,9.134299815523391,5.682269044644427,8.648280991017199,15.42952275613997
7.952838892600956,27.0807878085797,12.256963870943528,6.166023852766149,20.85587835085202,16.55491059974745
7.435883757067057,18.04475499388246,18.04106569750351,9.323313574795007,15.926509838573812,9.429762574950818
1.4676419904866755,20.493827935188904,3.202828780036461,5.060375678704851,2.799272263019276,3.980187796623919
11.402681453968187,19.92308016475106,15.736456282689595,4.315401844548792,6.618114021153011,2.3191067710668
13.655280938936183,42.59721299496842,26.381563994593897,24.28077097847902,9.378332660100266,4.900980460014547
3.202064987052098,29.27739834270999,16.36866916286807,25.321029192472764,17.058664540914823,13.000754824388556
2.4811006624834295,33.62893828251711,16.24674348024841,21.775217515690784,11.057238806894429,3.19401554569089
6.120144738821902,49.13730642631617,7.3001752812899,24.6923785580569,6.259179973658579,4.513189377338574
7.504896381044324,7.235011049081942,1.366318857007253,4.995349512928838,7.353872950033509,8.002064395859598
2.572211305205162,12.449000715980395,16.17987341190915,13.432398839046318,6.665025181340667,8.702113556153808
20.803531706872686,10.340291996812402,7.487808935214847,2.0732196289526232,13.275109664161636,9.621492576151457
14.23376518087865,20.24845357326651,13.722373896849748,11.920780136111027,24.128231569045752,12.76653774824728
20.808315041017828,22.374437141563945,17.611453840438802,18.16988375833826,23.37462104783527,11.111591458598724
12.581791435751645,23.87037390840984,6.310063109379609,12.23465283639597,13.874034830527473,11.338841566430629
6.699172946045066,4.780164033626264,8.817252328720105,10.293234997190035,3.3424859221303738,1.0376777482464246
9.444238831796648,19.724989573705987,8.950122401327102,16.499031649777137,3.9836995193149574,3.3230085030411023
21.68134092686189,0.9933564151578382,2.814035102124231,5.024489393523341,16.897091865765677,9.318232061714324
19.62776549971768,15.298394227410487,7.469663992143518,19.375373708252976,14.616311122954881,5.265452942720345
7.452811674758754,15.07139959397664,6.324884977125921,11.886836674917411,2.753592258502272,1.399610741736738
8.91050299183481,8.507591106795482,3.4753050654661166,11.85764917253864,8.494995485059594,8.81915690020171
4.905416950688931,8.440614378692098,4.689074657458389,9.585224693434492,14.06181032284958,8.61523791729489
10.645531469855332,6.551029554840112,7.497755514093166,9.75874215024078,6.28594435494671,4.663368510558969
10.914366825121252,6.904548512389879,2.8488584695300654,8.928663995561855,20.919148628366145,10.563646999968395
12.01676543239718,3.2566061003604356,3.941453689039375,9.013836232181536,19.13951169945523,10.6901583878546
11.071583509854303,1.3116412204767733,7.453674202118792,5.126771632477977,17.4684147897765,5.66513090471975
5.836957862868728,14.234712654533613,8.240692913567829,7.460737544751194,7.257519557591254,2.290716793950412
10.020070100180147,9.936200339931862,13.681942871152392,5.082523247833262,14.11135009082855,4.5520307096434385
6.643532906647855,5.564540927137939,8.043204875880791,3.491453931930883,9.90174928884821,4.507497813144797
8.371193417330996,4.704935851359338,16.608417153475916,3.890782784375501,10.425106692723466,4.093682981910971
11.242176222411723,10.57737072339454,13.447342495997898,5.18332849463028,15.578677514082388,6.744612983381919
8.52995334058728,5.715312811936919,8.127055779515882,7.620490773104776,8.1846747224556,6.2299382197834134
1.4665629157990343,3.8395908271190855,14.679618132242009,4.31340591573812,9.2926042425411,3.402337443109489
3.4832936724193964,3.084412143851622,4.2940351991879755,2.981210662990523,8.485055528621533,1.803715426579451
7.754253597279958,3.9264107537776343,6.807116976693068,5.380154873061875,13.795655121357752,7.078659888231657
11.390023169288233,4.9910927296952465,5.626848543670958,5.5411629711283865,17.58510967147985,8.776037036840826
9.324129681286127,2.844888605922129,3.8600984892663623,1.5120520402896427,8.77152021071924,4.603930741628971
4.868190623965824,5.818505900497487,8.59526781052376,5.183069204253251,2.8974615867400786,4.464266997540172
3.8673188665967073,2.4287924337850493,6.051849163396168,2.4973184060371967,7.834831924662142,3.608146665541781
2.5653664286094684,2.523178422095224,11.182005750087871,2.884653156501303,2.4240462455880007,2.1830334636496964
7.135933461671629,3.559956647410045,13.429696457215547,6.020405817940156,2.863662989402345,0.9139817878215307
5.957233569059579,3.2606954071259646,8.315806724707715,6.872837129818678,9.858936098850744,5.470471995658783
1.0338683094099295,2.831033452618481,7.310149939278844,4.216032762058071,4.406696579414056,1.8698095003243143
2.2260205190098437,4.665753872029723,8.048775401996604,2.4919685020773588,3.909114682845895,2.6766820447997994
4.7678771295153854,1.4428992182401386,2.166671071883409,2.2401793422926617,4.556039458479646,3.5828005272078083
8.854378425470331,2.66109782214467,8.728747806511318,4.971300947807651,9.97500618174047,7.617351655180193
6.853502164316821,3.0948264694615077,7.0085839905853975,1.0219886444744255,3.007867359463395,6.4088752115584935
5.925781980570584,4.206225538796004,4.3089725205414915,4.6694738033689145,4.5923095601373705,3.769355590192537
5.265440434409335,2.582413974804007,9.455433851971128,1.143010777879321,1.7538980091598217,2.475626252257454
1.5087422386830924,2.0373676003054135,2.136145235196263,3.6341914428446143,2.0560099203962157,0.5457908457679788
1.932501007586334,2.791996126858879,7.575212558872107,4.072587279008623,0.4957494376377467,0.5222017906532775
6.89032115946907,6.4187197517255985,3.0074516472216275,4.944460470273204,3.024677457800585,1.537532480995203
3.144222094638024,5.381000180030902,6.9207453538618795,1.7638730869942432,3.957109736589078,2.145920049350189
1.497903361591091,3.708605419144612,5.702833611762203,2.168035796270675,4.592654730157106,1.4017331579164185
5.426904379811486,4.051613838609451,5.071980595852447,2.475945258744199,4.817956682146713,3.7869636835675866
4.247858358677745,4.718152091581069,2.9499426686050274,2.6991860083286503,3.0594009325995652,3.6892474681001217
6.390534322268175,4.646548096047033,2.8256758713041044,3.4630749542446635,0.9786269284502858,4.318663314091333
0.41497912699540057,3.867751114076076,2.9173054665152893,2.310573001243786,1.1191299069886527,3.165468124681809
2.6765570954042257,4.51825999662071,2.467817717690986,2.4246395651747426,4.0307310128352904,3.824556018778327
2.755223086576944,1.4769431643995754,5.008939040271862,1.665230721654825,1.1451390512082327,2.054088875467589
2.244093636180645,4.279671117742743,1.556705358105499,3.1826339245435817,2.1795477204091607,0.674408281633802
3.35570694170884,3.8146942911834634,4.906353464537338,2.3812120075993675,0.5676900068112997,0.7603410074079728
3.736808569725443,3.212156571702107,0.9719628889268964,1.4859844244616498,0.6477741330537314,1.8427210568506642
4.417200724864886,4.34933376999814,1.6793071766204195,2.320571093923467,2.4670917223605553,2.3251128504059864
0.36457251495964543,1.8239869475126935,3.9241731189321185,3.4032891061898547,3.281218310165955,2.7061104014389072
4.600401493414036,4.878600616262494,1.2436254346983455,1.8621184964884137,3.2089428351486355,3.7340077877935647
4.357495834578073,4.836239295387957,1.8515797113213417,1.049707201539445,2.0104838788360966,2.1908117072265925
3.820294289481479,0.36437791753373927,1.4477944485099261,2.526882738168739,2.0860811253600766,2.0707265293883412
2.097244297865755,2.257183144818196,2.1385372339885995,2.7510271985012147,2.482206430448806,1.3243117043364165
3.4273363431598636,4.379451598192111,2.359274253030705,1.5647357127521724,1.5551543660515807,3.494619769551889
4.538096634220309,4.433010252708427,1.1354505285178993,1.2531692987730623,0.2777679147078215,1.741145606101463
1.862878630797051,2.7291977540259906,0.6578737627890398,2.948491402213802,2.078950482376248,0.84430721592397
4.523041755200405,5.088218207421547,0.5408504703551031,2.0172051541378364,1.2757117705026555,1.2987885364871599
4.830012361416895,1.7640432632816854,1.733745670285419,1.5351586079399528,0.47930109835973495,1.3232038145170788
4.474839163993559,3.5231750560274393,1.6892360532878565,1.7603537356174026,1.02601508942583,2.5895651732480323
4.201130490981462,3.3163380038989074,1.5114705475111754,1.2184068891329374,1.5082414654943224,2.011582415466367
4.61322523083186,2.870613932437431,0.6668679316344603,0.9523386794410063,1.8719226390625758,3.7595270237359095
2.2153746552411637,3.8148260520619233,0.16801951001243212,1.0262187010683872,1.5579823204045433,1.6107765564029752
