Gx,Gy,Gz,Ax,Ay,Az
12.203247999999999,1.184915999999994,3.014776000000001,5.966000000000004,473.558,23.443999999999996
5.830218987744576,12.173638987325571,3.96377185133495,2.4147795497472058,1.0542887380251402,3.8148789247959036
4.194911425174915,14.592900504064835,1.8767423424199576,1.648083005428681,1.6365866682713595,3.774118638245857
1.210549004821427,4.93141774678034,4.350220109848689,2.8998737457146677,2.0714524693389653,2.337954998862711
1.5002170933626964,12.65071210469144,4.4951727763208975,0.8636613153522229,1.6633888455107653,1.053466290130966
29.202910905383305,105.41854504054164,56.458927131493056,8.27433398583378,5.543940381794656,3.9011922746019736
4.898673042836799,11.818442146872076,11.646485809156841,1.346289645012503,4.379906654528558,2.681901822598591
1.8453265404148005,10.640662950968105,8.903717640159114,1.3396066903004615,4.9340656170755155,2.92899911400481
5.836026313030892,2.208980133277919,1.5407601084265117,1.0380153495867424,3.4833876855417567,3.1895286649860664
7.025567220055753,4.469998433821665,0.6734373722235489,3.074342411365062,3.23487501928666,2.1068833027993583
64.72849702039014,24.26503919313527,8.043644002487435,3.5105712722019025,100.45106512415498,58.111541038837125
4.467704364218357,6.116421289367783,2.737361531215383,0.7570615489240808,8.399888962049932,6.14485096044811
9.250727715804967,8.524171468446383,4.589038513646142,3.161061121021299,4.946700745976983,1.6663277829195782
5.09820221298176,3.188545814198275,1.4562879250516916,2.8703567557070384,6.8955280979074,2.531522642155585
2.061396731794097,5.016026580081724,4.727404492101569,2.0889334970473974,2.8854737136907196,0.19546852977305018
27.067934409025536,130.54114986555768,57.92233876691221,43.53865858130913,2.918205380205981,1.357292731678719
10.26355097951953,42.11365556795881,19.573175438528413,14.932378134570966,3.983181518642653,0.8898521527715101
2.414005604027164,19.069515574483777,6.670103351111831,3.9542994517817402,1.7069497214102507,0.5286069047391724
3.7847502664430603,9.865497931692934,6.634381521129184,1.8234252473605508,7.011855818426016,1.29724648913201
4.49644716440137,5.148263013460344,3.91481422913196,1.2381347682172394,1.5324495034723606,3.719228042517813
12.607611594251024,22.74382260741461,8.641870532766307,15.506801649440709,29.716176398763114,42.30557435302017
11.00677393515504,3.3523198385056587,4.153887923676543,1.7552644029095588,16.12118029596033,11.366885528058331
4.051794866760862,13.17064772913272,1.7198089846786657,6.338499877229588,4.097732718555613,2.8754418214230326
2.6869619335578037,11.717910230725016,4.152871514048774,6.065340881657325,4.142172762368855,4.385036251440899
8.159917899870505,9.92350639533717,3.477870086672512,6.387430973890343,3.2414581991855824,1.6775696074880178
8.803516073393832,56.68425721529644,14.421680335494342,34.26684376712229,5.068661859247697,2.803749305099778
5.485280988576812,17.513376238078628,3.472786661239661,11.291333462680726,2.746387755333325,1.8695541146793297
5.202672724847914,9.559195320239985,3.130291717339166,5.89247904953656,2.0139586109277356,1.5761536717394147
2.3782112032167078,14.963894709314348,3.108814435161682,7.5382100703254435,2.3875686657357797,1.706655772739662
4.455107279034044,12.59418938575971,3.8431546355021844,7.942995206122678,6.666043196148172,4.127535035118965
14.96305325666408,4.12472121423429,6.612470856944691,2.9736437447147877,15.249814744324114,23.790563485745615
7.614844873646362,2.1699782276935005,1.620202889727164,1.847759720413521,6.681058746658064,5.674596281037718
3.4754873728608544,5.2461172737181,1.240329693756223,3.4260002770082703,4.160880316284303,2.6905218143710066
2.1178907821956594,10.54938081014917,3.5744445869343924,4.947094381777858,5.6306790925572905,3.1006320439133233
7.5456097296329,11.268173442759295,2.5341855911134012,6.69295156437324,2.0589273764267997,2.647866805909144
15.326697278012404,13.155494816222596,17.16617997583978,4.2566810275242535,9.763977380561938,0.6784235921680298
2.726876640465333,2.1092385733331773,3.1196608530582455,3.3550228050632263,4.064125915005684,2.0721381994419565
10.050292400027129,10.18497309255778,4.142937202632023,6.757823733890338,7.507309554983517,2.5776957614117064
2.8507090036271046,4.157111876595431,7.003602865663302,5.01151194325423,3.4299010513571293,2.012884042387832
3.689736280753861,1.9244045393316047,2.087980882809397,1.6212259418649113,2.6602254597858956,2.005654428046824
8.261464910658907,11.37962635552259,3.3695821363270264,3.4683053444767458,19.78503051788688,12.540399843607313
5.79943454871379,9.021197856391282,0.2116346849805339,5.108062325351877,11.18832410703428,4.602908499087211
9.027106933069756,6.328362657390581,1.255310118933283,4.215719185325283,6.6221765609295895,2.422021871645408
5.329925852539494,6.574690342892853,1.6384326174804709,2.708226205868994,8.694072854726093,4.131342787995576
3.4541916557268566,2.3653917983783885,2.43699789093514,3.1459518925143306,1.021285565758598,3.0054791054522787
17.018054903364376,12.15878285684988,10.202622467351286,7.271999297503864,7.361886031517833,1.249583536127913
10.96689911230324,8.1722652235172,4.397014576447186,7.23095497665234,10.502641331416774,2.478095704935574
10.547754873127275,9.088002911231744,3.7514848574196122,2.4565415549503675,9.36733307289164,2.2295655846463536
2.298051257397272,3.6674705548733746,2.2583677954229415,2.2521512626491322,3.691950067468009,2.6988501274775714
6.201568475131118,0.5010213237327539,1.5674560986291894,1.6790445509078376,10.174198447466777,0.6090896037459866
11.517835418987335,7.6665429133219964,0.9591680752331154,1.827007075791982,29.239651153464248,7.966605551746509
10.00925199642866,5.180167640701358,1.7886178903496732,2.1255026928132916,18.20663285561014,5.045668173145322
11.241183996618831,3.850906965561876,0.5553021717636367,3.586100385791053,10.583994343083715,2.491244315502307
6.70400486025738,3.7310611482702374,2.2760923083144196,1.7926462113466053,6.279957392036617,3.412051026361808
1.1617611189054708,1.8863659146585416,2.2950354743993477,2.1978328374303864,3.3520911810894,2.9473121213099502
19.430483103548237,9.942897626888332,10.739823442479254,6.21084722758117,7.860543871363267,4.390631197833159
18.39061530018464,2.3919715089285596,4.574209371913738,2.4277840729534095,13.097627480917147,1.686596626421647
7.57920732201614,0.4300374303655001,2.3454940447447514,1.0421628572935595,9.162005098212784,3.1536845764507713
3.0444702242851127,0.6963248355574005,2.3564835502537536,1.4325801071286595,3.9606592768885656,2.705736894548595
3.442519819236201,0.8521159661627783,1.5982548925107103,1.165272152994419,5.330889920109383,1.157134906666233
7.601903481612872,6.214729571074498,2.105583843850859,1.0904846163218267,16.89467830037238,7.119891234377337
7.035785393732775,4.927593704428638,3.9656879668828724,1.9532393352356576,12.489474099168932,5.690221507310054
6.558967285643422,3.456653785228879,2.0926508700389674,2.6037625733331073,6.370918127051336,3.317113072979267
3.9380998106052956,1.5510873929122624,1.625105348553777,1.0405884804057273,4.014017790047588,3.6149386804810852
0.9348272916692612,1.7779404055621613,2.1206277547431927,1.7560638581386916,1.3340880753620872,2.1948219886097835
15.252246124642806,3.154782885802765,8.954558711540114,4.170831321839334,6.57330057814952,3.105329067347783
13.354124712238782,4.8366183596961445,3.6978887850797344,4.805701007957392,7.827851180415431,2.49829958118939
6.710351816888135,1.6864530495074033,1.474377897234071,1.2393534471121173,4.799483157759401,4.295916153228785
2.399764159931564,3.4935795934702325,0.9289358168175259,1.745387175867153,0.3233158008755091,2.35277113301315
4.463446039739331,2.4801359717848714,1.3440890254952143,1.4850981471368885,0.7510854531254563,1.149545279067872
8.081372826875853,4.380340412663885,2.0787587553404654,1.6276390480665557,4.709370732315565,5.414017346720578
8.26084389531846,6.98649710168985,1.8709042960428044,0.8927354206230481,8.476415788881631,5.760983913990319
7.074468751638088,2.895441751618104,3.239200921907724,2.2074068218386014,5.25846675559256,1.8619226820582226
3.1393512407128927,3.4333278807327554,2.1003843247428566,1.7279487036815133,3.002982644908168,1.9138026869056441
1.4464876902444508,2.1495063109657533,0.6840884633998017,1.8350157463377401,2.8771711631261803,1.954976482910486
8.749351777504598,4.463108573031605,4.7374145923527085,4.345599540837989,1.6017908882334453,2.0955460858597927
12.56151399811196,2.7766390201340045,5.04006624465004,3.6926107458454043,1.9492154277781404,0.6195252979749213
4.563829281817964,0.565487102170824,1.718584891097791,0.771122964839475,2.669655538158095,2.413104013013906
3.879433696848582,0.9057386282827818,1.3377964653332082,0.8784702623328008,3.5345170534818817,1.3705712690068694
4.455333262203041,1.5129770866515486,2.5346273867804907,1.354330022310722,2.921809289322767,1.5127017929760198
10.116862009275922,4.90536186545042,1.049705468375563,1.94118778474312,1.2728530661363577,3.727724871665377
13.060975567640266,6.117604644674416,2.9932816907048485,0.7258062055611166,2.4996239539388996,5.007500455413117
5.449073257185525,2.574392211776409,2.475293507525259,1.7995201043844677,0.9892929681787674,2.156441939120046
1.5862164574553208,0.37846111172658975,0.48068234454643666,0.7212841829256564,3.1449528364458863,1.3387483560585716
3.4641672382121853,1.3150900458108667,1.4977805851994699,0.9408089874749486,0.4448071814357132,1.47615159464977
7.262025971362549,2.574004622911928,4.476029556290572,1.136023583862172,2.9137222380885253,1.652381820030953
8.18488335752979,3.8441124960530857,4.287394574298373,2.252696869944045,3.8492702999593047,1.955865385878965
2.8303678206988487,1.7801457312788544,2.2705993656283523,1.3603025002429208,0.9490892211253262,1.708023383649775
4.058715872479357,2.396962621626558,0.72783255239747,0.9830014039133136,1.6528378488330646,0.31005069379330685
4.6600848325739515,0.4148398179115552,1.086451591394314,1.1505845500336351,2.6614230266675576,1.9184441348634844
5.942130874802946,1.6881331695873094,0.9567379018966031,1.3248152325750147,2.407884762082846,1.7323822392741235
13.766284668084067,4.2152389392893514,1.956377527170706,1.2822305047368991,3.2175932203277915,2.9033713041155216
2.3750107169384607,2.602481408344279,1.5747761009456889,0.620466175653118,0.8318126666781275,0.3403753368592576
0.8796672906025235,1.9294960258284244,1.7311107041877762,0.6528718752048694,2.75078712156809,1.695437593526804
3.206569103292015,0.6907106810505745,0.7388437363263815,0.6157850593667518,1.5133866963081877,0.7046266261242359
3.6874441686905466,1.2666928107438011,2.2462630815676716,1.586342681115002,2.581310192862613,0.25980322372317505
8.573089497802059,2.2262837542265177,3.462765921906975,0.412939612006012,3.6125798484291525,0.8050644214982057
1.0754945409888292,0.32552788144379086,0.9406496529632358,0.16851452791594895,1.5825159698252969,1.0874989170046623
3.058789994707449,1.4639159382265954,0.8078398262727846,1.3290027314793527,2.9232377805391763,0.15041669351642925
