Gx,Gy,Gz,Ax,Ay,Az
4.1978480000000005,0.5039239999999998,1.0702019999999997,46.940000000000005,458.47800000000007,63.44800000000001
6.7958863938464615,14.232055587165448,2.1252605469172727,2.0610419293037645,4.937850116721073,1.7370313337597654
4.8223904515341625,22.467467804023542,4.733869993685778,2.302897289913525,4.566580592254514,4.4578800891795405
9.526887527432297,26.23133152405845,16.174107622810226,2.281925383967731,5.699621957382006,5.0429233866307435
5.05757779156887,85.25726665298721,46.64517842081628,8.236337834219773,7.54267732489795,6.226368426955767
8.085466165837099,83.47446351608367,42.137138872390004,3.8161157616182355,1.2514254143636705,5.724691292718708
4.0272282835648205,21.791707186717655,14.055753070137193,1.8365415779296743,2.920244673692038,1.9367088193604527
11.421802711404986,10.58208226337213,4.733360126334488,5.310007811526512,4.182201210078808,2.999220093911796
2.522308402119327,1.2530163723734427,3.0943970956736275,4.711146099168204,11.178318600736977,5.524393397509318
53.817590393132654,15.719323160930193,24.403748889542047,11.746829910739535,81.98597938696668,44.06211814913758
10.321575877236642,0.6380019004869993,14.017672476325128,1.1204293523512883,2.8009293864496754,2.3825827831116055
12.431449639908827,13.483382606727625,19.706787475651478,4.158296303572068,2.8306538033899074,3.254330711692552
8.555463944925704,7.836319385741725,17.605257051958663,3.1629241427960326,5.063015693936521,3.2350499132724924
32.90100327284981,37.077027318584385,47.451029237411944,10.425711964494058,7.064565051184203,4.377409070828541
12.214180236271446,46.511454760446846,44.961178305958725,14.423385572231727,7.1888587331394955,4.299516937377205
8.774185746396522,21.308687254771716,14.78749268292645,7.018813523135844,2.310276186411547,1.2895108532898791
6.9777884547869755,13.281891219011834,11.059512143033077,3.3391175676170617,7.365753257490443,1.4726195348744908
7.108120113236955,20.29891816362294,7.701533611886025,8.050213768132753,8.534283715489611,2.0276184771531067
5.568319331896534,20.13877352950497,20.916609895145555,11.058261592654766,21.145319031112866,21.88985517796337
3.683277564810991,14.79318475580127,8.498421278480423,8.066686712494697,0.4012116256647622,4.056661453262614
10.367337947955015,17.56419274311951,6.842194114383146,7.63203254935319,3.368913934041308,4.312485644849239
4.412493393224173,19.814380528953848,2.7009251069794096,9.001713794063347,1.6575074927263207,4.078501945691791
8.587465155198784,25.216614652779686,4.408723215661529,16.42744131615668,3.817766133212051,6.913721787691894
7.753878806094704,10.88286866264421,3.4259156032230083,9.542641394853465,1.8303121399526328,4.8410748732031825
4.775923831518307,10.078963619759563,2.747055852640334,7.618357362709889,4.165900861017498,2.9670453397923224
10.257055608407276,11.170375729637534,7.046079449149567,2.961632868925967,5.3293798375652734,2.18198641887094
10.971761867270962,2.7083020987016675,5.8866917174927265,1.1537210939566593,11.471528705300523,2.4359086712868665
19.401212476821044,5.906046068295986,11.501554035710056,7.735291482306767,22.674939311593235,6.941148692541532
3.9875178447218524,3.747853299576388,7.7652262342478275,4.744825998790173,4.7826231323287125,0.8752823115371612
4.15768522094202,8.025334917946815,3.8838728076081472,8.289191834060507,4.240873423706354,2.520365101472477
0.8568767056960022,6.562441104678238,1.213557461584019,5.9577945210912535,3.5755106459130506,0.8253991743930056
2.7232674271812636,9.825562505830517,2.789790073743338,7.076471002301412,6.118956888160986,7.5313541058453
3.6685064742147064,10.08419290219333,5.216350978886801,6.699615965740468,6.691525002423077,7.401597155965692
2.2391087715282363,8.920720875732398,2.647214564017354,7.125826048572031,3.7868507096421236,0.06194597959391375
5.416889490234306,2.6911024383961077,2.463218350124811,3.0000563078283835,2.633471279318812,2.3507882577138597
0.30755995745147247,5.918644303044355,8.624707322063584,4.9683918868902,12.885495493536185,4.6643150375102636
7.252069774998515,5.265358843017771,8.235607780275306,3.115543679178922,16.673939312437994,7.03042393588715
1.5557346318892675,5.778729394886935,8.331610095381476,6.030257543899631,4.4987060507665415,3.0777248377914237
2.2552810760604753,2.410309487276622,4.049940833806658,3.260707528871067,0.39427843607535307,1.4586988507146068
3.220782907796458,3.786218656697115,2.685631387149835,3.648053877082307,4.13386449235397,2.3000582681936232
3.8070853525743154,12.664158560486001,11.3607630183027,10.87834220142316,9.84909511928605,2.444475511696688
3.206308578613435,3.8681063266754117,7.166636148562189,4.911816989185403,4.591840417695495,5.91164451754314
1.2275268768836454,6.05088990866076,1.7952580420428919,5.969124929300812,6.195418244311052,1.0418923271514207
3.990898974759815,3.010226933395842,7.389156599999403,1.6161472077912096,9.458003086449787,3.3829263505356084
6.56206787260175,1.1745784120785812,15.486301888963398,1.9869849004307816,16.19010586981296,7.535457511202781
7.92887920303673,3.3818229387372125,8.964971214334637,2.5350179591526634,15.144241585009372,7.085081369768258
5.571451433435595,1.6145971522628155,7.337638348156728,2.555426740062639,4.465582767660459,5.318383115927219
2.9418896952269034,2.0957564784499607,4.158512338778363,1.305923792297105,2.0878506199371936,2.3133601653787133
3.4484962664125853,2.1879314618743626,4.4910627409178865,2.1097020328492144,3.0318987119892515,3.2178806481218327
1.848270089279519,2.919320654345433,6.974933374491657,6.148700920826794,7.028322928527997,2.2584841677101326
1.98112952055362,1.5746673272061238,6.786292659744973,1.0658370892838531,3.2091911024205473,2.5798043189904982
0.9575183145119214,0.8633085375520707,3.9178409844540223,3.210185936855353,4.630163678389527,1.8352875684322305
4.943681400457457,1.6837855591696154,6.679909785109855,2.787937448797249,7.728570487525554,3.7384517957458683
6.982339132633975,2.594278530670018,10.24150654881588,5.125797933347576,12.148113888141983,6.7454429316843205
5.532420213009754,2.6852385521489874,3.2590057000875863,2.6254992921107734,11.881001453061966,5.738981080965786
3.644012009660704,0.6912119554737373,3.0614103115621583,0.908538582147667,5.451650419104431,3.936782977730364
2.196490815603011,1.2648660860166432,1.4848737897500013,0.4314731052166107,1.5756839124998385,1.8251008540823075
3.869026030026319,0.4976922459533768,2.844948506047677,4.373755760906289,2.34098258960009,4.133121367893121
2.7158884205863294,2.0518422819489306,8.018981041589825,4.343642436479835,4.61754637560196,0.15711743634371433
2.9924828905093714,2.0377609265444803,2.24691405952767,2.945804964208142,3.3487343764413304,1.3470801814046345
0.6558843020073085,2.0021592821193814,0.7319055525999227,3.0687714896868457,1.219785743407309,1.0608355823611737
1.7391283747656718,1.6415868285126025,2.070135722418227,2.7282496973662815,7.218931829773681,3.0303323487870473
6.17970284062103,1.868963187660634,5.223576214258572,2.819140701822084,9.28652900274693,5.520339098377576
1.2697561613218111,1.0109419380289681,1.800851439240943,1.0181924615518445,6.2541331346923545,3.6457678095151693
0.6613473053247733,1.9304012455723072,0.37197875449625023,1.3164362101486935,1.893717165159659,2.879954602209766
3.5951174967036175,3.067972654477851,1.6670391757289327,1.8639268618572329,2.201167702938464,1.1486129689463915
0.36279700583462016,2.1763826847949868,2.9345955632904484,2.1252142675384165,1.3482767904253006,2.1698087087210385
2.7004166405302965,1.340179463796277,7.045223235967676,1.2777271628640674,3.3004521217883935,0.8187919009007867
2.8579450786674676,1.5109729190986716,2.3478415532468637,2.573693747462476,1.883118044382889,1.1925924640114263
2.490078792731517,1.845083161282498,1.1804279846631596,1.2379269808863167,1.4614648019508212,0.7505474623404526
0.10688666559941759,2.7165193508636696,2.5030881369446547,1.8129998699830616,3.4617135356212425,1.9096490773588137
5.330625471248197,1.4991550999465215,3.264441230498356,1.4868219135115959,3.699713476512845,4.542282060497021
0.4240340841552639,1.7563768898623038,0.8854340745459736,0.9538227200457907,3.9930784042299896,2.1023684159685794
1.0105063269749295,0.7107685132462066,0.5348087820636936,0.31349778633729825,2.4091476863375183,1.633406409606001
3.272409569500584,0.5730285287461687,2.5178352209052526,0.8853202810282843,1.5166766300039038,1.5225912123744842
1.0021931312591705,0.3998458014989878,1.6706148985257896,0.9947610196068962,1.6966202076458785,0.7743581592092171
1.3617060840406658,0.7637972095413837,4.10274433164322,0.9329440133821767,2.7681803064017063,1.1219884482369358
3.3590325405804204,0.6919686280211879,2.337014021412295,1.4640141266590108,0.39122249257925273,0.896436018781846
0.7290241400866246,1.0444810593563376,1.2762737708279892,1.1533187692762183,2.107831544061266,0.9103710645287952
2.214433477972998,0.9532932677102868,1.1258292735416664,1.0406920375704853,3.2405636545128456,1.5724894069654776
3.207736482949254,1.4973657009912038,1.469656082819785,1.1836156326261165,4.207453858303078,2.989169786140694
1.1076713038484751,0.6450216744823619,1.547737721355154,0.4541875678144577,3.2016685126629345,0.9486425025669845
1.7038132252936022,1.273640878603191,0.9038379082180817,0.42220378334773667,1.7384965871146898,1.6151066938914098
2.52781848993053,1.1241628677427025,2.513655060655506,0.4188228477320971,1.5784516455013304,0.7160146393823751
1.0587896817759634,2.254408334904026,1.6401942533581033,1.2835177378904374,1.4699698794239298,1.273843768503845
2.560097879039113,0.6095092781018177,2.379823331222314,1.0681074775256962,0.7534583758474038,0.7985317506001386
2.293165544583163,0.49509761800417296,0.8881744281252751,1.6284918667122932,0.7404724329780966,0.8184465965005688
0.15953370111777096,1.1251952230821063,2.3225937835280503,0.5074714186729575,0.478731883051858,0.15612470155104702
1.8363616088817014,0.5418446018510841,1.0280170557731174,0.7280703924657403,1.6765827599399548,1.3384945099020316
2.688590115674479,0.3869793201215289,1.2209489858625435,1.3249028501013815,2.8077499903302505,1.2145987965677354
0.6979754701753402,1.0094403861537538,1.6078649583081026,0.6727848777359873,2.4998805613551074,1.1576394410399076
1.933060308872829,0.8977108655732479,1.5268214154583057,0.2724840176609519,0.8560399631674224,1.506148812001314
2.872756784253516,1.6160120534324973,1.3213158524304947,0.8221731801782027,0.44366884900667686,0.32060585304017347
2.1490439565246047,0.9308669268085119,1.1539752089285562,1.4002111355476095,2.635514008075026,1.0892837209264765
3.181300260150648,2.006089789327211,2.466981359912553,0.8488589078320082,1.029207496590928,1.1651297445991462
2.257550214174916,1.1009337732330549,1.4316507261170117,0.6986748526761968,0.25474197945900473,0.7639724453752601
0.5367052463644231,1.4273508027948885,0.7074934915227655,0.6776204775454449,1.6270721209877441,0.5653573164515028
0.8245042589705657,1.3668151355266975,2.0684951762510857,0.6824300476405202,1.3839447308000947,0.9618792521233818
2.5395045878034157,1.502989361341074,1.0113043021236074,1.5312813053236614,2.1367611698220794,0.9092291810261147
