Gx,Gy,Gz,Ax,Ay,Az
9.011936000000002,6.822771999999999,6.814976999999999,122.80000000000001,631.6520000000002,27.81200000000001
8.549864129660142,17.185751481791623,6.782739531711822,11.084870641879766,1.6687975143672182,5.469573509098876
16.02676437804584,7.363547375625248,16.27855225297336,4.949521283305999,1.693170638332755,5.557460161746413
8.655456051801869,21.371040195239118,16.070545933252763,7.9566653670255745,1.399820619023979,2.5863660145740566
16.04270504488653,34.887341922956224,24.809755319292282,6.338222707846996,2.93213253093085,7.038224042577472
8.26014112075144,59.828909843177534,5.1052392589503,10.523676188908755,0.29593226500290487,1.7852552957069094
14.494145186964309,16.41483593630483,21.711784562514463,2.3355792410681744,1.0096173475982242,4.268084377852244
37.57869862607834,218.35911688922383,30.359758154762385,20.68810041334266,10.785117562320353,3.8783451975036267
6.080981319868414,45.024174950070346,23.443696337741603,3.1307753468877078,3.33839833257563,3.0473904367794487
14.075783709205528,25.43824396396538,9.210597888723836,7.379632856745671,11.965851794391465,9.200803032848176
20.573778836090764,24.287994884982798,18.079592676311638,6.064648492241708,10.40106745709047,8.844945161507896
34.36274928061814,38.229764358571956,16.008518038360368,8.457896238083132,23.844136636098767,20.52636058585922
47.16991801216425,36.79861135870043,16.219304651642133,2.0928342789102627,38.151702323108296,24.632909328271335
20.898809486220983,24.201338502411723,10.345759392394719,7.876623796749532,40.260665159040904,21.441199749730437
46.00327293983928,34.28056946786168,18.396390175233666,16.924204660886232,67.11728642923198,52.959730005076786
11.028652288999446,23.34048991928741,24.333340264317616,7.431951551671465,13.64707937229871,11.295137705163
5.804936084969034,23.99463808264495,16.637890885466557,2.5425026165893527,2.520177021961684,4.104602004184449
14.811507351235772,29.160470808147814,17.151690338122865,2.246039707335726,8.277926978451996,8.972751867084275
12.191203273658425,11.989361717412853,38.4786084304336,0.14213314904083588,8.067445049895548,9.24114975288593
5.352945390957956,66.24358280799188,63.826426188268414,11.170836040760943,3.6938231617117574,9.67380157728549
7.989820861101372,34.8047799065261,38.68176564805102,9.48621683235414,5.322729498549446,5.614507665867667
28.961890811972193,86.62563686574599,75.46632915814908,16.172993819111483,15.700858617988711,5.724980556143075
11.984560342968438,30.803798859667104,27.123175678363637,4.753750306963662,11.897973278987232,13.306982403443916
9.433878303125494,5.170114355410882,9.699091499848649,3.9563636827828987,3.5970621109042638,7.982390167449685
10.028351609389544,4.084262337028693,18.571383860319767,5.658478926299456,2.5909291741311877,14.337119396500643
2.930168477642511,19.309685890050527,23.599186987083417,5.39621287665725,11.505197884837385,4.362790253330931
10.740963649309377,22.5393900927388,9.243295816529033,5.86219385568503,4.348454670071551,11.05157006583997
9.800152065080772,6.050658663774781,6.844669577107891,1.8078188621894073,13.317757677688343,10.192737189585635
14.012226176680857,25.885283525132568,10.929217848098357,3.5969866033634266,7.9734963828908025,19.747382761886293
7.300045158853529,17.835277337429524,15.677451913540704,9.000704905982117,3.8609980896306766,4.140684901081792
3.249215960382947,24.530737790218716,5.5777897304258435,4.976887991304974,3.8468893393821806,6.3294081313326584
3.3836877236494485,20.886393330781925,4.847784693863003,8.23133217599347,6.326276037560569,5.551272697576168
14.431274756456709,12.603915772386904,1.8127662018562616,3.016733893900905,3.443587369651621,5.9548782834726275
9.550874862706682,40.78958368002406,13.90977835502519,18.232375068488835,7.739449133457247,7.768461129935585
27.019502027368322,24.11626221238281,7.586966969934895,1.14070860623865,7.8519952243053694,10.48866901857874
3.644537199096076,11.584178344313443,21.487464679435032,17.90179838156494,7.830389408913174,2.414683307335182
7.206681066764402,37.9083825357721,5.379738687990437,14.79283191432201,6.454027428421736,13.440329561953302
6.149128846821564,22.971730751127108,11.938598474526321,16.745023863025406,4.984801805248327,1.6671696414472947
12.437282608708738,20.55708927814569,11.591922700356395,12.635943179244466,4.114865364988941,14.23163637376132
3.465058585622352,14.787048696295226,11.841879206679295,10.887134165821957,8.064312390470727,5.912474536086627
9.834913882692378,13.135302754027538,14.519867875931116,9.045401568120386,10.928083493450908,8.126019314280226
4.534078741549424,17.783158403816383,17.46032775179541,12.609387134379261,13.03124509075696,10.343637827894602
16.649679865516916,26.21954590860098,6.534802544101946,22.928591562792285,18.096907677884612,11.644581423121657
8.45821309048836,12.035094524893326,8.937060397227874,10.044468299243613,9.007913455736647,4.367900068210542
6.766630767777487,4.183710462051811,1.2261874512575166,6.643019389393354,2.7103734420886734,6.627357367662402
12.296102235701754,14.548886276480808,13.471637001948599,5.472880013512451,8.704279117726966,11.876158868370815
3.6451160534159652,20.820243973010683,1.2605980331297866,9.95254587375379,3.2708621399251014,1.5898522971786735
7.059341628533883,20.12776158669211,15.617974565104031,17.16968242937441,17.937671131658618,1.7558552190387255
11.082369632815912,19.4811985530362,18.98048749472478,13.523316276470773,9.228613373826665,8.112349861586548
17.824799531831662,22.82750052493595,9.009682067005535,11.672529229969188,3.039696510455687,6.5694693723211675
5.182285239575631,17.576902214616577,7.932924974503463,14.951574508676337,7.170246958707321,6.940657569638443
17.89690106548771,9.055636953046006,6.923647558308985,1.805630625285388,10.165579174614257,2.2302666945789653
10.49412582794784,11.757319248169193,15.257461670357056,14.668206366094463,9.837506826704937,13.071078906047983
7.466042693848725,9.633230581231034,3.891975186062063,6.216403986861676,3.3051440044660825,2.061683334779683
7.882055433054806,11.107075910412293,10.256249613896582,2.064800686372638,18.457596640791564,11.608073343098004
16.393253511207714,17.312321550066887,20.26718955400987,18.46588752321144,13.270567848547753,11.739169495752458
3.2516515482336557,6.46694352374494,6.341713411796492,13.761436184246339,13.924800641143875,9.359033765662904
18.573922689080884,3.2205161265997027,3.2225866193530734,4.878732453519598,16.818452239108925,12.047662158754688
12.103205753726034,14.490872809656832,3.879816443393747,10.409149751884362,4.051059247096135,5.55567685893223
1.7746614195357562,16.55474950179798,13.923612620104866,15.034148828715676,5.316037917960276,4.5472427151345265
17.994941988910345,7.282501252349678,10.116576678830821,6.0853360904277265,12.530346690084274,7.832046538879262
11.723634150800613,10.585918705859282,12.223457237724364,11.789883914194446,3.8381419505335703,4.653160105673248
14.401569212532811,9.50240357434927,9.033397394246506,17.024778432262224,14.138253003116501,5.035050145415079
7.8490502217730915,8.933001937380748,10.611956149841022,5.690106511594827,11.234177003477264,4.23248836917503
5.420689030553441,3.7578732801783405,1.8611649969332762,11.940771326320757,1.0105806092977867,0.47133021486147464
6.406120271844596,10.39876912739337,13.850766667654744,9.01942499977781,13.779282808391324,2.789837383188791
20.271985815039695,1.0706747625211679,7.0487906664265685,2.7913652393998447,19.090064754883947,11.744134374818621
11.358829402459191,11.788597131636815,12.500031903543196,9.902297125677164,13.440545628129074,4.91756641292222
4.660027604375304,3.181319482102354,4.814924572078501,11.581942293302463,6.204624789441232,9.5640260177116
6.082416349363738,2.7020454557781637,10.252656430686008,6.9288777829785175,3.8411470938618173,8.18683796985096
10.628055259122219,3.0129184658838986,6.554971199584507,5.58401226730941,9.961198866148038,9.867431670111783
12.38214136757276,3.613926732826941,6.869312730309467,4.789824599782234,10.695173863562712,5.663611646751205
14.935099265072237,2.8929085781622508,7.214505202233787,1.764879321128779,5.365790045625468,8.21169433053571
6.587730028004149,8.393196143739353,7.65955680763765,9.797938189587557,5.753746079299813,2.5757148674692503
18.78555729691792,4.725593703676865,4.7159561205615645,7.581829319568982,15.680597333593553,9.040075079065799
5.951006526770991,4.984071875865587,5.882244744945116,1.6418525117196383,8.99350633364177,2.293262255391816
8.72412692540683,1.7115262754978404,9.628591271277356,2.545060663410324,8.302925376141815,5.413230701344612
13.522251944810614,2.794117166893337,4.891286382150773,6.958128744810258,9.691534508110694,8.353603778417764
14.149303231005003,5.840446749634672,6.690898905428366,4.471495339477696,14.490160616196643,7.655368810432195
4.203567065825859,8.352885882480038,7.874030028854814,8.16048152010783,0.47046465723370795,2.070666381216466
6.36891131709538,4.836605131422424,6.3641428599327625,6.315512753189175,5.70092660837436,6.675409063064933
5.682960901184305,4.296807653903835,3.7554454814770692,3.0933801698064993,3.7931067318458664,5.191823096328766
14.385288871864487,3.4102011355332,0.7377034877355239,7.157463497830847,8.611685795305984,7.944928912098958
6.950054204503918,8.899901743433327,8.837860488424502,4.985431414628433,5.855388372591819,7.1478095634965975
1.2016327343896762,1.8992544961599789,3.18958204799892,1.9027731164375592,5.102603313338392,4.118850185866407
15.53003760525611,6.311234020569184,0.9407899179910034,5.833732320272035,9.515541253894261,7.890379476816993
3.1390186200700723,3.6870781983906986,3.4321783287941336,2.9618847266008372,0.3868603915059706,4.456630579227954
7.238513250490242,4.921380560539906,5.021407812113518,2.4894419290265897,8.163660290653171,7.408374694761679
12.90838205258155,4.745330702997677,5.022367684390137,3.0815944182979047,9.698586691904008,8.542637068115948
13.62855439072884,8.048429087663816,4.808148433883953,2.8424751263747807,9.424852550118972,7.548486013114683
1.907150136957232,4.163554038906514,2.594089678919887,1.7562393503376637,6.5584722562751505,4.36282299281893
4.8191993155010096,1.8891232496201449,5.266913491038924,0.9373759809470634,1.489511557639832,2.494623312618778
4.7439039359682775,4.345534519493264,2.52206783141138,1.4227550208583317,4.193587648995967,6.4157899425427
1.2491697589336686,5.941460471194568,3.6766150829823485,2.465714649595611,1.0522295180400478,1.708316733178247
10.302266521228457,2.8247392252087793,2.2835412362595524,3.4196946543314817,6.159337038414969,7.215984551305008
10.442241724244948,9.966813652318894,6.522834274052171,4.23276643524433,7.9963411893388985,10.820737852040196
4.049767507627249,6.545993254255669,2.779195645997963,2.892417462158315,2.9458139727981116,3.0431212743189913
5.898537238733987,2.5891711113284517,4.183668181328417,1.370144554862819,2.761756572344783,1.490887267973575
8.373121691333901,5.444155941060434,5.979975470873346,1.1055625084019725,7.215019648072629,6.851066119839471
4.364715935518899,3.6063428426621513,0.8734761092207914,1.4588176483193542,1.8601592722953255,3.2318362125273343
9.134822419637539,3.7540810399160742,3.705942871038584,0.8018410519832209,4.079725144581648,8.08432844072009
3.398471868260798,6.688401360038758,3.4582419353719365,2.4263796785337117,0.9499510842394243,4.072885552445208
12.399475906774931,9.254481318589468,1.230971239635254,3.111279483999817,7.17912601959732,8.107692371341807
7.7151043543303,2.7691949457227025,3.180926954584291,2.4936662001945296,2.763740541986111,2.729934235723256
3.6350065678605072,0.92305454826927,1.566653618368339,1.0944145314242224,3.7388782653453383,3.091643256750185
2.968438735150841,2.911430995616511,1.2207644887369584,0.2605504979254706,1.2781273307299754,0.5112699021540109
9.055401296743469,3.273780352638812,1.0978476354588687,1.6855171076804791,5.667506012932601,6.158552418582703
3.8152659599645706,7.61207672911229,4.6277537325719305,0.8662094898965091,4.4417161695449385,4.847562311597073
4.935726387755625,1.7110827348612379,3.3465895857595274,3.680146223553021,2.02569118968114,5.357619833744807
4.061719788230373,4.59981823364107,3.0677679649607987,0.7773197956773139,4.015288762380454,4.364593552216734
8.95737183856072,2.5964206722047956,2.8463512260200456,1.4247290605462606,6.38968363516659,6.217695671025381
5.168065097881004,1.86928402581164,3.2029197798649625,1.9536570230182155,1.1292154649233812,3.526567607757844
4.83106855159695,1.4274776864414942,0.25163089456211674,0.8019242300848266,2.9140812495619026,1.342139935828835
7.667408365857189,4.853745457394343,0.138735448946144,0.6129682067753339,4.468063731287075,3.236914377213095
3.3581038081587575,4.566764083169389,2.741387285431141,0.874974843094113,1.8665781281983667,4.774912990869483
6.204949233877072,1.9649574432685513,2.373417537902394,1.0407815760063932,2.072153262142195,5.783174266690023
6.65429443207796,2.4970718035670987,1.6340892946571537,2.933246656974511,2.1358289878617116,3.3032353933885523
8.136592878576502,2.019372067391496,2.422651090566743,2.5025540519499465,2.372687930855212,4.1042060186117695
1.5402527514954445,1.7682597694662596,0.5604186950583321,0.4575741105370203,3.67932791662302,4.655831861010088
3.5170549522475976,2.225396878713826,3.380449438998974,1.492015928012583,1.7690998345161102,4.355272559066053
