Gx,Gy,Gz,Ax,Ay,Az
0.6950839999999976,0.45463799999999954,3.392193000000005,70.586,569.6279999999999,110.68799999999999
5.853454372749966,7.078084050201654,3.157025076976865,2.71638663837777,2.001886137143023,4.625388983030289
10.440789662234272,25.52487956592819,1.2739791950949058,2.4882426579169215,1.8078017540914422,5.07812944356597
1.6787694403406963,14.608647495014647,6.0068266543631506,0.32972356179163126,0.40594313321587616,4.602511600631399
11.75218720581065,15.077113819639418,3.6387904042917865,1.7902481167283741,1.5948283137068526,6.743048412081152
9.439134324897829,14.071378358357713,12.616901655489588,1.8008331825827755,2.182285343243877,1.9546999137268728
24.87855410577019,57.5356616413658,84.84614145932952,9.481843614478057,7.4586680796998905,5.567801392042007
9.91611489396063,17.74583443242462,9.28574059009727,1.3675494298394113,5.832448013431751,6.841013963475414
13.132691268247127,21.035930989743402,3.5335216082577126,3.9762756945473265,4.485751503185102,2.7195096407901764
8.576487866904111,7.392019335513846,12.800629009300817,2.951569102534632,9.129154109193449,9.7337605804306
15.713778550518006,55.11032039048628,15.91097011026854,6.446742450039879,9.318897167894736,11.66062448308614
11.138274906495093,37.13593847983286,5.0131848745966305,5.435334706480078,19.967569929735365,23.91173509517155
47.475997431054886,56.756747356179915,25.734273481402358,15.383888728871566,79.80221974500263,64.15997504642522
13.444295894695582,47.49637061396323,21.884394826895562,7.927035401798831,12.609725286761517,14.908479896012482
7.484927621840911,13.76970146057873,19.60209686375279,2.1320738614321955,7.89410758044653,0.8170539428442838
12.423193279102021,53.063860449024176,33.24150333429476,12.303784653059703,10.70989258289755,6.4542204995430135
3.1237282984265997,32.31370598397242,25.922012746746432,6.311195265229064,7.039601676948456,9.637746327955007
8.409289692272242,74.20137962794908,64.51803854356666,19.42063539580316,4.228046857524422,3.525876032429326
12.158065349406947,123.83363441007282,137.49489244407064,28.785334161433425,10.449931237953468,9.969465723745214
7.428133437126416,46.40328917987572,45.429036300033175,14.519131781158666,13.089464213812782,11.148303852942487
12.372536722409736,23.81696394434673,8.821637171139272,6.498219362058012,1.6047942600715615,5.050699722515623
9.487966863709984,28.10430802654384,14.358482632617127,7.126204104953851,4.3106225149416675,13.083311318815609
5.079331876874009,29.78476661725537,22.002215324776056,10.349864320864125,5.404073847622529,10.626296344582784
15.525612737563014,26.24063281524529,6.680812085481949,7.76214430196663,5.899431341476695,24.117782179210007
22.19672868834531,28.401503940292116,14.955840180454643,7.679207548745183,7.830499751837871,24.84193731752493
7.9005007802653004,28.046272682847203,29.129990246516204,12.94135468669563,5.81074203801241,7.655001584126576
14.5464346441817,11.447291411628267,27.119844231887928,4.390539933011017,7.6479419519072716,2.9187146953677248
12.20850336961371,36.5511524691389,26.733072355314935,17.424521239353126,8.498201167289233,3.6300715279999394
6.8322389033876565,15.942660557801796,30.246017758084935,11.252081819511723,1.9847491518271652,2.893439715953279
14.836487297893191,40.100292939479715,55.35967145946333,29.434696024962527,6.17586150762301,7.63203273994078
21.33815393658025,17.41705486856313,24.9585639150171,14.492605362244719,5.394838796697851,6.953273149901116
18.006929634558457,37.144293009418654,14.060258639990566,24.289060489084108,2.689441201433132,6.371719832500732
4.55384073543009,8.058414205374815,11.04066722654468,5.763849573205035,6.579546851430573,3.882160203726559
21.058671875130624,21.784648924874425,9.008777890875816,12.682879121705557,12.100900568529779,6.3237502424921095
5.121115107628076,4.037061809915968,8.110710740934394,2.8114998687456403,12.120479862278534,7.637766924826028
14.867387267516364,15.634050657693269,13.737441664434257,12.98351641127787,41.89177333110908,15.931252158111288
13.268320646034141,1.2173825434505603,12.824812296490764,4.585012830822495,15.542047527227957,8.346076846380981
6.971028805931559,13.131317624707819,6.9080647538827735,13.005785607551402,17.434547712665207,3.1292819922570545
2.6339277658397227,1.8643784923757858,3.178274840624768,1.4069274315159863,7.789185669124987,3.2859167265119464
7.777314275899837,3.5870768409699996,8.557252981773226,4.631280319857102,7.098777135658421,3.478584377644868
4.585133238085737,11.733487855857168,7.209196842724115,10.968895292736358,6.314644537655917,0.5404190960530246
17.280503282818724,25.254726754968583,17.359151867125572,26.67410784574336,6.883157534798688,8.090004686935274
8.73577243806837,10.98421713711595,5.552219053165606,3.047854345749379,3.3806973215683005,4.882697288276094
9.549497903343884,5.620969637626238,7.542245124892505,11.039406802172627,3.439099727004237,1.2536676442852146
3.4369111022178296,8.039953562036288,5.5567026679720195,10.259479094044604,1.8691884842992077,1.7749317553150077
5.3395047327617675,6.632783118102681,3.1176156098582926,5.195969139703631,9.531840288987139,5.1510160329569485
12.738761308328089,3.916252535526789,1.691927836685027,3.0730739547655403,6.591636489790467,8.837884467349411
15.984542974298845,7.781874711280441,10.542512182667332,18.32555934759043,17.222831853198777,19.25564595579791
7.915766253581311,8.720693168537922,0.4102069210408032,7.245696772009838,3.8045729086267697,4.981711399168431
5.487542244269389,6.688498046942178,9.451808960236518,1.520086857163393,5.529044291827027,4.691433133803691
2.6191218934921343,6.417021050725656,5.885154802962113,7.504294683428765,5.343344084574309,2.4897628612971077
1.4011223067807026,5.257787020960227,3.6061019499772486,8.83612314251165,6.343692512943445,2.258858213406196
11.747352404635663,5.850163129667139,2.9727128254004005,5.350986661745506,6.227182201531144,2.703280144886784
15.03171605358929,20.867699593192473,1.2247187873050949,17.294754042199575,12.136178903389075,12.67158324184726
2.0296106862315004,1.3806374088781475,2.7022024441322032,0.7366970804919634,7.374223719831003,5.602158216470317
11.355632181646348,1.384047836084917,4.8833563125795285,3.499082779891696,8.578956797235879,3.957835344136382
7.001314090730475,4.650762633551009,2.4797772956644857,2.3907326237456608,4.728355177384576,4.6763773095986005
3.32038380210084,7.077498583649952,6.134843562807092,4.756092096758972,7.2887220899327865,6.468901907657421
11.524081706158317,2.0192155873287994,1.3562975000496458,5.082421177836594,7.537046007009161,7.074037536459996
20.675523830132637,5.563089456080598,9.254672900171906,10.578469610152728,21.568923920775127,16.807906684750222
0.9496348102117348,4.5119583692236995,6.490699531104339,4.243941682569433,1.7672279303967937,1.0251120124664945
2.8363001878400826,7.395303833491188,12.15413783299608,8.329958348408134,9.611860351784397,5.328569473036604
6.12424238661591,3.518003659872438,9.203530872155273,3.7056825990902476,3.8528647345655185,2.233199066457534
3.461627639589523,3.1583512680104677,8.690782675360708,8.78693579096522,1.5474885915231946,2.355136894820772
4.954727569238501,7.367626621389498,5.876856065975942,6.282590492347234,1.186613722131513,5.9186996747667155
7.146646225982736,4.555215479614794,14.812435241819276,10.419335969828369,5.726513205525068,6.28436916529941
2.77108723731655,1.8986155761781944,8.612655335007624,1.8418387490542651,4.097516831027829,3.3609694585360246
2.347104893670266,1.0313703859343237,10.769081207759328,3.249406108117639,4.123981916210005,4.783335247220622
7.221663658361386,0.17637751757131706,3.8269175877067196,2.6834960563194525,2.2814860978719826,7.329129227467039
12.395266228227992,1.202905142829362,0.9919553468412659,4.2672459819030335,4.7577419487996835,9.109646121274325
11.633595012327186,1.669248565999397,5.106749591107142,1.972931020692077,7.516162023982447,10.364206294957295
14.484511675841643,3.373747107566712,5.860944382924009,4.048966937507017,8.813750829100563,11.359752089701008
4.201450859811474,1.1716082552914835,4.086475204138197,1.9050446003536046,1.2476182658400186,5.1858452129834145
8.204713309856805,2.062686108463388,5.4956396468076765,3.6119053765876306,5.051322811843156,8.789741426949846
0.6939972167657086,2.2849578547310796,6.416796698237179,4.1163533717919005,2.6109760705312075,1.2129750109354571
7.443665293550008,3.936490713885473,4.660138938282436,3.7756331571744766,3.294455146094744,3.4363894520598968
1.8419136122103796,6.956323794161723,3.9073401178393308,5.260029462304617,1.6931175935381353,3.5120202413578503
3.669833344536024,4.8677987535797556,2.1337719884731605,5.6577755723363685,0.4808479809434719,0.45289010818666636
9.906015210366958,2.9175580815804665,4.405143383631924,0.7148831678254709,4.6809599238852355,7.6613310073377905
4.929962387765204,2.989265668997288,3.60228217198573,3.4739918265899634,4.279318726405488,1.773223059278147
5.113859074567615,1.1232635147865693,3.459149079194999,0.8979800888407576,3.076458432244018,5.593231070008523
9.176527129581652,1.9337019068235415,0.18728163139476348,3.627481147977781,4.562678826497466,5.510863968640505
7.135293930246212,0.5337088629408967,3.6457771305316795,2.414208030710138,5.114096738732843,6.301663024929449
2.1172608970007123,2.185583221023559,1.555671723161172,1.3132641097235402,2.7614822060304487,2.9824165981699946
4.3139343967052985,0.8507268257039718,1.1062019631539917,1.1884739933014663,2.07131209681975,4.093141812148281
5.127880474436473,1.88094660806403,1.7996794643065448,1.7855664108702651,3.641026203266238,3.479149920311437
2.5201282185682774,0.8421917731576957,2.3177174438982093,3.0239431024737105,1.4526706368830773,2.1378782868733874
3.6551027890121555,2.355245955138696,2.7148116266678866,2.851728129413437,1.3690707543834835,1.716095850814633
5.898334438269556,1.9555134930932672,1.7537111374095469,3.3223565719446855,1.7538864364175821,1.9523779994798043
4.770166913852618,1.8922783368746563,2.154847699788492,1.5251337651225287,2.8966113369261435,2.6577586333447343
5.078381876666207,1.8287860369523647,0.973634397369227,2.547317016835954,1.4752575934463659,4.819272967920207
4.241750483607208,1.094503724841356,2.331724610444007,1.137377437145096,2.0236315510500122,1.3100329117796672
1.5083533371747717,1.9258421459134814,2.4467060698856984,3.3072429956015594,2.308846536332118,3.2579990845435125
1.875667112663203,2.2230302263823924,1.5023309261527733,1.6159464236713599,0.8006207127796527,2.338164694308123
6.94045696785153,2.6329864539991927,0.8226650287606504,1.309498712321126,4.461043170061376,3.0629082814889883
2.165713330772539,2.5926981476975937,0.9019904657766012,1.3921918150505357,1.4318957104799708,0.7492887982375016
2.256943459049965,0.6494593532837074,0.8588587859350014,0.8873903974178267,1.5277306394982495,2.5449281678193985
2.93963456350546,1.3898124298124601,1.0317207555510366,0.5340058828811965,3.153470599376681,2.1376276957541434
3.4044623153334435,0.8335604289869887,1.0255347171264497,2.5857789569055933,2.9399631843238234,2.908495485977218
