Gx,Gy,Gz,Ax,Ay,Az
10.674042999999998,4.863208,5.538179999999999,39.17,431.2699999999999,59.29199999999999
2.9976378021115058,13.311599962182148,5.96643686679307,3.6527248590463284,3.0104205498018075,6.43071206289875
5.67747256950909,1.8929883839924353,8.580209981346766,1.1295524247088504,2.0531563650479585,3.0754256056831073
2.715019245984443,20.49060622120594,19.104139070028275,1.484058098516482,2.2661199030463175,1.7170231932931197
14.172752908411477,71.63932965527738,44.31197244324331,9.171064296046257,6.813623254447044,4.320816287324127
9.295354836270523,8.520959605133367,7.227469002836961,1.94535744302068,8.76638540770618,2.997957246580848
11.422865270388415,24.877548238977592,2.1668921310832783,2.8709043167424237,14.194048505153729,9.750757429035929
38.33378895867924,22.085299498716775,3.182568434180012,6.910152307985006,52.67380880611169,33.89991061499949
17.76463287761677,18.941688054877286,15.924881929129649,6.016253027766781,30.564576863592773,31.1780425350449
9.080614812821935,15.407931713396794,10.901509855786378,3.1034504953121553,9.171426287417413,9.201776943492868
3.0254433782869725,12.837519477479063,18.332799849526157,3.86478483451331,6.442709466210593,8.493308209350058
18.995886949724916,30.44168439669575,74.38351151015165,3.561433562035247,13.044773723676167,5.607476422223666
1.6384422231338625,6.365261603190721,24.096808089371347,2.8528725702613715,7.800436048433865,4.699071947630832
7.127688161165754,5.550970000783075,9.636572119606488,2.6600889102617398,8.721451914077917,7.093597391667265
4.0491324380111635,14.11020370716482,2.6996874278656593,6.010080940840086,7.683348770422644,11.80968019276307
22.06385283391648,26.663339273162357,12.251515395662588,9.277177970406886,2.893514648235235,27.1569048623899
9.28085382146474,16.20833126113612,1.945725552154813,6.307335249933204,5.3887853301441835,3.9326163146440467
9.068612964086432,25.39840231451095,3.4966484521159726,7.272871753607988,2.9356612827485713,1.8464360349183766
15.350976762315824,23.127054000721966,4.0356088909345145,14.751588973320265,3.5471023207264434,1.0356282125773777
18.62955000462796,20.798698830462573,12.097398278428868,15.861168835187561,4.125931225653541,0.7926764986261923
8.342873703056934,12.389311001502703,5.129508367959776,5.965111026997536,1.9436310713938554,0.5871106345184055
5.357003688644733,2.4018583528090063,2.9373576213745802,2.917131036321564,6.26490022613284,7.5835055681312395
6.456385811217515,19.506959244564907,7.7102249802222484,1.3614843346517884,12.530855893708997,24.17972715455792
5.75969066222025,11.655587040861137,4.397978154558046,5.818946851716991,10.33598232531484,12.873738352936158
3.617494993114992,10.828468241241456,1.4958938844583447,7.754151270059882,1.675264959313271,5.192882954889801
1.3299774155012374,10.389553548710012,3.0721316271921983,6.418156981052974,2.490760452393203,1.995673164643246
18.33327955431283,26.314843942805354,1.3916602251719898,13.029174372886386,4.568365384370136,3.2083509120540787
3.9764310285876694,2.8897680812673343,5.9337170042147465,2.7021559618144235,2.9071194103570197,3.728699256685852
3.025441453614431,6.683614864700389,1.9092597120529708,0.8655402080202064,2.376656554867125,4.225108544786327
11.735470245629502,5.76727833607411,5.636945566485833,2.025774572198707,6.566845683569324,8.566037649699313
1.9807349609642846,16.40181475462928,7.167777459670758,7.127277681733102,8.224087572505947,13.966290144118656
7.940123263603163,13.887484156046737,3.6896866631482967,8.298296231238066,2.5802464964942,3.7823572260293488
5.978911138425745,13.221760905463842,5.021033750770891,9.961972652945224,0.6860669794413877,2.961847461118635
6.868048651132761,34.60288546043048,13.845294858550984,21.289734106039166,5.086813512889793,5.303939265427695
4.640336901930601,23.418060276042024,13.509305070544654,11.909728119643292,2.9558976119068765,2.887162382367113
4.80358031152643,5.141778740290831,3.516741448199087,3.6508832981889503,1.5816646124809608,2.266948380008224
7.408846150591524,4.363888017523067,6.231518918203028,3.627839354255153,6.745073681796606,4.908408015928711
15.0426974174954,9.252877064036127,6.8073097946416015,7.79035965459987,12.733886036673315,7.340666634077834
2.6620126425127983,4.209437989957884,1.5018598335009683,7.6809848169738855,7.4262317779230305,4.259307897738519
2.866476897755695,7.467546167028425,3.403550275337026,8.123059752888528,1.188117156891668,1.501308138187178
5.77474037124738,6.786600453718084,4.100543625043344,9.97134788214012,1.8008276988764724,2.8128348432360877
4.111351198539022,16.135612644674826,12.771854622748481,16.072166062749826,5.038363380565217,4.035805077797739
5.311500237766736,7.157682982090597,9.01460692587397,5.85151805642909,1.3778909932716383,1.1078459390690432
9.74697585051634,2.917115596239441,5.787258839703856,0.5688382305939671,7.339038464510777,3.124407905564183
17.57143617205862,1.8340394545834182,4.713092187415503,5.419927014040573,10.021855710701834,3.9366008866774935
16.99190019277519,3.5352646786019446,2.4311967133727297,3.210433061396777,11.189242937474935,2.9293811421194857
3.425373194823466,2.298985027576139,2.6880868097828,2.0025130038259613,4.7070220280571,1.8031236472817858
3.506379116986439,2.4374705433166928,1.3056789897996366,2.2884551557670503,0.28854034587665073,0.21753448469409742
8.307309742116683,3.4343991333277297,9.703777273194982,8.290744879750871,4.413350165993268,2.899819183036759
5.66664064588031,0.8132565435342112,7.125799971662302,2.958344382000958,3.826410795973497,1.0424834617526728
3.597810066773077,1.3694238130074288,2.4508571795922482,3.170455094528695,3.5080802340278994,1.6556754889332697
4.7836310657322265,2.1363675050331725,2.376647216528866,1.298930041726145,1.1842778148209008,1.8509501003679079
14.702399923042798,2.1778408224298706,2.0477954199388604,3.8263854262837538,8.580595156785325,1.518597653270877
10.468467047934388,1.794982935903022,1.5809451157057788,1.993273712065882,7.120195427270716,2.962217671348354
1.815341894124673,1.160924603214207,0.5494590800273124,1.5820701274895712,2.017415842230232,1.9124635042842657
5.637150735137228,3.370659176059205,5.148881628562274,2.835616885111166,1.550594379058927,0.8257236189567941
5.086191315128737,3.510228706576627,3.6604992636057743,1.833568829778271,3.773599954914144,0.9374016438365708
1.5629117247222728,0.46333304501152744,2.5264329443928166,3.892156116361687,0.9565032631169823,2.8100898932367424
2.100891252843572,1.224538990319665,2.051672789813407,0.07357475178977341,1.9697524152728347,1.876585252184623
10.268094424664477,2.475684477232923,2.6891606951568447,1.388391847904463,4.328740539297488,3.3662339217582486
6.61196095577366,2.9120212881841603,1.3065747313351075,2.7037109670439436,4.914867826218248,1.6552311296282038
3.896036484891816,1.5189102115111088,1.6024251572641488,0.4488181899842083,2.5544358012607646,1.475389519092021
1.5745512808704767,1.4508653669889562,3.111181310106973,1.499533670326226,0.5246274929497672,1.9451352654463434
5.061424307502732,3.6223925839565787,2.1211520779710735,0.4046802478937161,1.863971645013934,0.9572419891213992
0.8818402288589943,1.2411391487964354,3.211086010722227,3.465372007808409,2.1635869809569663,1.8570215201794362
1.5077445904241378,1.4550499571069067,0.6593056169793235,1.1526639485047783,2.0749031837710055,0.35237893085703115
6.637847183432417,2.450643810463637,0.5823186225180581,0.47227471560193207,2.159744435137334,2.8104246221259297
3.7089960741257344,1.4848969209100955,2.0173282943053548,0.8700669889051146,3.9346558105011784,0.7366452777209279
5.056076955223731,1.5678110079972245,2.2602021044268676,0.7614739655969343,2.4102891678453116,1.8827254755293028
1.1953275277775364,1.3761427260094456,1.6237708482059128,0.7020992147622053,1.5085758689487436,0.5664772098468951
3.8241106533988463,3.597931341789989,0.4302345597951729,0.9306807413228108,0.9927123739485,1.7219544694041546
1.4307245537200362,2.5852373704546894,2.0157826621204067,1.9424681511283641,1.502981004540309,1.2418384525204447
0.3825074840569824,1.0819276314245239,0.12205105180523658,2.1004117118658767,1.6628078401423827,1.4552246974821625
3.38818379681297,0.1749094121538348,0.8470695691405858,0.5257088157127905,1.3866506480390497,1.5832452531839234
3.6923414465152966,1.9106872802269286,0.22463452606771553,0.5415177431849272,2.5537904539577214,0.7929253902578236
4.292539012643684,3.2717393887546913,1.9278780992318612,0.32402405268553075,2.5374730050808765,1.6165891020581356
0.5770462757292408,0.15424791083104655,0.7254526079769208,0.8411416702162948,1.5061403906028994,1.245190814759476
1.339607534487759,1.7175822276541433,1.308938858746409,0.6023630072625441,0.969748746160591,0.5480956042557179
3.3179029820363786,1.4515716834671757,0.8057579640499101,0.885140066839522,1.393671585530743,0.7671861540189965
1.5792606527574302,1.2615602639876093,0.6709573492675933,2.4013936867336385,1.9087769115185564,2.3414569780806396
0.31590114881351916,0.4369916257644079,0.4322462904221152,1.1856460606984947,0.9664965657905851,0.17298638435383135
1.9408198173735929,0.4637636151944504,0.5160113353061049,0.6708384358798709,0.7823573547837017,0.962401668506952
3.6866741778476255,2.2377895466620688,0.40292211875807005,1.4196617601005468,2.3410203574237953,0.6164257566045491
2.304445054010547,0.7194687124363558,0.5013591209615134,0.6387307384255259,2.0141976062089624,1.799747198210424
1.617202060341695,1.0484653806333615,0.51039063190358,0.2994081086056624,0.6053133146816547,0.8442523776247735
2.9997903111617945,1.9215061896078731,0.7025697782985146,0.6176771091222368,0.7233718046797573,0.9362728152350351
2.3933841034553596,0.8796340612913665,0.2835267887308075,1.75064068240855,1.3508293533866265,1.0267594223626693
0.5212263937130045,0.8646341956709857,0.8965299672282742,1.449432910614468,1.0179269501442176,1.2170077044497003
1.071592146916347,0.5106013786836617,0.8711505474133269,0.5231706274528334,1.0946181577904268,0.27756138341570896
1.2927188106955312,1.2188011578218814,0.7197106276076201,0.9140288096779117,0.963784415881467,0.25574006013326184
2.4009820967570343,0.5830107361741953,0.302933886323312,0.5035754026951006,2.2187378790926786,1.5335870074376219
0.3006494852500334,0.46100000316233,0.25811545332644004,0.4978603284458643,0.4076021586663073,0.6211565779558829
1.6809491226129032,1.5905808269869413,1.3174464033935664,0.7446918222198075,0.9943913355141915,0.9150748876529781
2.8884433810506724,1.1872237889222568,0.8977976012193295,0.4044477768363673,0.9432529621849916,1.039681960911782
1.5412126247893747,1.5206116676707375,1.3653148287549803,1.4781920690146175,0.9716068282574896,1.1020154308864278
0.6685647222792219,1.0440113796453028,0.12322258565646875,0.451765603262022,0.8319083260223252,0.5196550729763153
0.5001246502148026,0.9962799744355106,0.2575387088348278,0.21628885239700998,0.28300883256372156,0.2227425100382444
1.0095842443621783,1.2079081199016162,0.9947902374436506,0.7497991861338082,1.549666612492375,0.9808324717482934
0.6935429064841968,0.8319183999771966,0.2188692554785598,0.48775235012623674,0.9033378979748836,0.858890157137556
