Gx,Gy,Gz,Ax,Ay,Az
6.073300999999998,18.579753999999987,14.579200000000004,37.714,737.3879999999998,152.664
5.756238165058572,9.51201214656787,1.6131608893414213,3.977549539641758,2.0012023438675195,2.620400720179561
8.783924910108967,21.33705856959411,5.280969903886562,5.550348015931649,1.9721403768076127,5.381292726323094
16.617135003863762,25.762652556475043,2.28241370830482,4.156240069928165,0.5195757152420463,6.620929583016795
14.341559410441054,18.75040135649065,8.545716705329346,1.1683596692438245,1.161265962598007,3.450060324375591
14.873456890030324,56.80825019924162,4.491918043712948,4.80797389200475,2.321902477738418,4.528801941096553
3.663493204760664,24.94745861368605,11.655945880795143,3.568491969606286,2.2735674551142107,2.6042937460215376
73.96494292841061,201.98219675928206,107.19998675088554,11.911447715455878,6.730883761369421,12.980589221004239
14.375184963206552,49.548993380537674,11.249660582834451,9.928919962396147,5.816027469162344,2.7313147304161403
13.652404159543908,19.62962836513289,16.244523267401814,4.09363249058857,6.396344924916457,3.5369065339489763
12.626858155042024,7.017823471549343,19.54848169488671,0.9141892957057903,3.1809323956307147,4.305366612928776
22.306929927805726,19.473230552759926,12.07745768501756,6.287594120264196,3.7220295820538496,3.7891800398928215
7.475273960555035,29.642111126668052,13.685622661837382,5.534611245361211,8.2217434270346,2.615527245040002
19.27090655711901,42.35910075603585,12.952676738272139,6.805091616741734,16.332667430268522,14.46371053988589
45.93308310754118,23.678394141136486,11.92945635343549,9.008766122332002,44.619784645182136,58.857579480258174
22.477788283879086,16.23263977360028,13.444048540791487,0.4782197892695746,23.941676088035468,26.35263882930332
19.74528319454696,16.206749974456685,13.846317764113927,3.529173371026221,10.466929706719863,9.967867539127015
9.334616136423092,20.340780308239314,5.969026370277282,1.6230636582579132,7.413623717696492,10.88866988031207
23.782145005447767,39.892046034936186,7.883489656250817,3.84273090726326,8.388483574189907,9.859440429277551
27.310644488231574,11.901233491037331,10.157016073210501,4.704231108088507,3.7476564142124515,2.184866819478677
13.364318052720789,21.25788278316895,22.145349986616026,7.5564087970298655,7.229869385581139,7.7071332366010346
30.834291234533914,19.5131308734464,93.58847242172055,7.10682487615594,5.234094922881168,8.565241020405196
23.338455779338954,18.355467428879802,67.95418770091493,7.2452330306767685,9.904836200371495,4.961564610206553
12.735588467453894,15.454624308218534,23.526894295633824,5.90646709746333,5.364374872348256,3.5545389588288008
8.862384813225718,25.077889164498735,31.352989704358645,4.96393210958753,4.3954315640741655,2.6998809259684498
3.7770468830005757,27.198642134238945,9.507304243611348,8.902634918941038,5.1887408779737045,2.0095700910025274
6.012276607023945,9.069336536841137,13.790705149113494,6.269986567417627,7.651946341540671,4.596483803581918
5.801841630726516,27.65577231871703,14.249733732700415,7.7348417825318245,4.4799420782851485,12.327025132786817
10.109592955938886,27.023412004897494,12.669431332127964,5.5118752809068825,13.727112063073413,19.322463934503087
20.93892558057618,18.476894801405557,26.607565186627735,4.31357048861922,22.156939653785805,20.04609199027777
11.217244138393905,53.32153392473931,18.177314164053,15.711784444451476,7.337176754044747,13.985368868921055
9.077753710554909,18.544571249032813,13.610973351201666,6.148875799345234,0.5309398469774412,11.474671241034745
5.21129378789489,33.32140132784674,14.747267111252036,8.706451565532884,6.7734057773537355,4.74398817040539
11.429708819693541,30.023705071904132,20.047235995856813,6.300966969843173,4.744624176791003,2.8460952137540887
18.36942994157439,10.151496790196084,22.695903321788762,4.641975714256549,2.5921547375802696,4.240245356519701
11.71572941085067,28.89889689972403,20.058114230997425,19.44357610768708,9.198351105736291,4.403646698863759
20.76917211271916,67.7901192579462,40.728723877533,40.19790758026922,10.421196367581489,9.055935952139055
9.419653336012727,38.73699700391371,14.252550161475591,18.96069713948396,4.808904166247222,2.211460622813344
3.548299744372636,20.95072301962118,15.090890862624349,10.743512786851955,4.402082917129529,3.6311914860222165
7.663416069010071,2.1735624504748317,9.267101346860517,3.627009436956589,7.211307713106454,5.203002533920892
7.0164948334156225,5.406632133069052,8.200757727083884,2.0517421608287276,9.136249483467031,3.3250161255550594
18.698393713720325,24.936841518565693,15.172262390209696,11.067743488869928,1.4185220578057958,2.0728037820360248
6.288022304374414,7.989350124701973,5.775216876445647,7.857284793848698,1.7326647930265398,5.491000332865172
43.489765445103274,37.47286955210421,12.21979761602765,16.855313623672764,33.10258638302445,31.212113321850804
13.698846639027483,18.306134813363794,10.299255675368002,11.279913679281245,4.466340839152151,8.69924926840982
1.158784137148383,13.117713124896104,3.2439014450109727,7.797730742039421,8.691998134380011,8.395882712498484
16.261683995542516,22.547940379708184,5.214066229712847,10.64249567050178,5.423162126514168,2.3501908777661065
16.143802130751514,6.69394122685501,4.015733250357976,4.975330280033221,7.3843585637708005,4.6748390383384475
6.606718466321262,15.256437601691504,7.296313205681035,10.35174605475893,4.16367033422288,6.265585127168452
5.423278170739773,2.5394807919688627,7.793904907007676,6.923611616189318,11.101064251587369,4.093932459567768
3.347609686884875,53.87063580931817,41.22340391743305,38.79765769388671,4.080757103721422,3.364294244639029
12.169868505375225,19.656602718946576,5.909168063316141,15.508295972856121,3.6255893693139205,1.4319857957011686
8.457426646326319,15.674800252300889,6.137140954719815,6.1494716052354,5.946149008047707,4.45427661874969
10.472748649656515,7.5072823107145,7.5951803107506475,2.555436949426025,9.506517073621108,5.02116584429949
14.863021947280158,16.130305573052027,8.924540177256054,12.619778336637399,2.185175247219984,4.212087664282636
10.401120417319847,2.9475976895489975,14.612138342677593,5.2733552707542675,4.634275293938867,2.980608354679551
15.073009407255624,11.184865809348489,3.8582901180907863,8.230221065712506,4.956232113093049,1.9497313698297378
33.934617374304665,1.834204532776307,8.06967877946104,9.707192892835716,30.92559364453908,17.397917419205804
3.6290693118005195,1.8047491340154127,6.275716309126153,8.8999101767743,11.221907983612354,6.050771277039819
13.232802320449892,12.442753573678138,3.508038820229127,8.93506147508124,5.777759296638427,3.0778659804653135
20.311886083577583,8.476625311146075,3.229567636707175,4.091245559561352,5.618612437062216,3.856849384895625
18.61771440668732,5.923213922721508,3.9309542958421715,4.050606255629385,6.017544310937622,4.777869431119337
6.115151955759174,10.754281487310914,5.795644805304782,6.096876701568887,14.135872331590045,5.459095090044461
9.720900951405538,7.098717367196083,7.406040999614752,1.4156788368941293,4.017469051127773,0.585934536688919
21.587264824867688,24.265802451585003,27.43820689555091,26.547625001428983,19.644165768288378,5.386033246669079
4.966992845422789,23.289192205890508,14.631487117910956,17.158900392419653,11.3915000229436,6.598000941898541
13.635275001430799,4.994807741427238,11.901258754394432,4.758858171146285,13.045554478256987,3.8582585606632787
7.301467130049552,2.1212281123605807,8.739133768290891,5.888232368709394,7.887540024697883,3.377258958994832
6.8479458773129425,6.180469182507176,6.358521284427427,2.8179752893911414,9.799417173498457,1.688581163574844
7.771861863662228,2.4958251754760057,1.1456386268839667,7.199488404279583,3.142033291179991,2.1857268585063987
4.178292504190426,2.794236960897963,2.6123548014381353,3.1841888356763484,5.653081787021861,1.6014487449966988
27.08785341797066,10.024483586923008,13.727857040405752,7.914362867121803,20.11869370169219,7.55584733927892
20.17762504226148,16.215269220835975,17.413127500414568,14.125600835092545,19.506932836293483,7.348719361905819
9.835861334423221,6.738776997420126,12.384817611945804,7.3539178655713755,2.554649502442567,2.918536208270864
8.754184648655343,8.588144984235749,6.590465053083976,5.289476908742292,2.7932085103207176,2.0936814969274935
10.291135775333302,3.6679880833516583,3.560256256942181,1.185161800275746,5.206662612995733,3.4227807286588443
5.896348616605579,4.230046010207631,9.615473654652083,4.453717743333124,6.0111721798880575,1.820003286751612
6.430831396585117,5.9920635525591806,9.29569447841287,2.1482266540572614,3.75792401570392,2.968807345867541
4.675340895759976,5.0188655168672165,9.836610725303323,9.111895275084368,7.8312811428831015,5.761654394883725
14.08739418797449,6.705294318149044,12.835371800804042,10.523018049241122,15.773724278607064,7.901996556171236
8.047686039393538,2.8219769894610587,6.552458911278679,2.813973402830866,8.444849476565771,1.5165227558126217
7.7891180834247695,6.364720853446597,7.2259374260041485,2.700300606108575,6.212051229406602,0.6896897458049247
6.097515449792014,3.818662384978176,6.706939142857401,1.577395384102831,4.422667689489259,2.911638806478512
2.2911228603940037,4.420267205254966,6.557103881198461,1.1123631249108066,5.857694242625752,2.8584863190275414
3.069323165045524,5.009422817569393,3.875618054646609,5.061574186709907,3.3624642496665027,2.1136707052473973
12.775229091312944,5.352908258282255,7.661975409879787,1.8548569144926117,6.436978824953564,1.9894126082288055
20.083725116420258,4.760162307470586,10.991421499780072,7.318559421067489,8.394459359583522,6.5190859459807555
5.836594846744219,3.691336266751157,4.8472765759362675,1.3745404546949491,1.396958506905883,1.446962912407552
7.601965232832748,6.319716151704594,5.55293337234899,4.898127353753594,5.102190092378867,2.575740547666201
2.40642481769689,1.4864083322729686,3.5017410779789953,5.180180817569132,1.9623943337526941,2.4872381262339225
5.234796227747033,1.5966754671133891,2.790643381982219,3.9177335200849726,3.2874817180047895,2.081472959539078
6.25858510931912,1.5378106959909839,1.3401862615908084,0.7271223346947,3.6679516397725767,2.0303445794850257
4.61236917385261,2.7499801242429167,4.658677066375489,1.3903262396218077,1.249097521163606,2.1257657947019277
4.948755578341925,5.180155490968135,5.147608900394138,7.011844308515571,5.320237261948562,4.552377709773675
2.5338269567620553,3.418422962298009,4.2404307791492455,1.153889479470937,2.7032982408954807,2.445252260580355
6.357321563437203,0.3070313484113915,4.680584833598907,2.5813824382067954,4.6479182766652025,2.17679767571785
4.567744302402684,2.353215179448214,1.7618401539712651,2.04698429289606,0.9182894426087417,3.018395280501289
3.904311901801957,3.1933024737307147,1.5726363739585358,2.0828943195035747,4.21867278714053,2.157397986887984
3.9358302771463647,0.4655917696053338,3.720021107061126,2.5558652583640202,2.1064160969772696,1.0472205805766603
8.361622686542606,1.8114591385217553,4.6750979016878365,1.9697707447287025,1.7648348133503373,2.2721337718181904
6.357040809623505,1.9334229123461038,5.8193421124412845,2.2249585481115717,3.145443085710015,3.029430184659381
2.9626936847360756,4.668098901810349,4.3693149707012156,2.56609954291752,2.003468407079295,0.5772421483565089
6.834729988398379,0.7686349837276422,1.056820492831901,1.753889409026113,2.442362735878525,1.1249327018079396
5.195952133398244,2.9660524873990743,3.660101428448551,2.2886606466478736,0.8069854166519914,1.7710531768349786
9.50912438787251,1.6642225997496685,3.8821418825677716,2.541831484706615,3.7307743398506954,2.9682977611871606
3.413366232966718,3.10121212707586,1.3436811798651769,2.2856671486794866,2.378996320633501,2.4116399461092364
4.867034052083374,2.335620765141068,1.3100661390859236,2.7295885190861444,1.8937886887229616,2.5941802029815597
5.612659129674729,3.784590008347122,4.9015408177802495,1.9609182543875623,1.5840730861489551,1.9878320084868282
7.282700706952883,1.8794879895473022,4.965114882324694,0.6950373697581569,4.2568455760578985,3.3031409625334174
3.08512149795935,1.0438071969411002,2.3623358024304784,0.2677899078034155,2.385382409586548,0.8995430194628601
0.7185598361594213,2.592093191702634,1.4864973931054515,1.3589042743529798,0.4572449992870883,2.176740630729433
1.7841555625224816,2.956551649402869,3.1890948354809647,1.9815051497910727,2.7312737506800566,1.3610211029019337
4.220359717183967,0.6115083374862116,2.008843709918911,1.7394879213416459,1.2367310057968346,2.335072014718725
6.808815172932914,2.2052106701145537,4.3809001265415235,1.9513878796275264,0.8903119668292736,1.9605906072183292
1.349259026920623,2.8337967656513046,5.768442763239781,1.7086765134045185,1.5396597517731268,1.8054697643636608
2.4680094787375557,0.12107818451865682,3.5306376959135926,2.676005321386528,1.6018342749365584,1.0404842029793517
3.2947801949702695,2.131591194869391,3.3581111765825504,1.6014106488978388,1.7881283196743019,1.4050407312569435
3.7391973471632065,1.702491982781381,2.381628196528277,1.8648274308905157,2.35994099432586,2.3194900607026057
6.789212770340428,0.830023610085666,1.9312194176454875,1.2920874284244759,2.886128476707489,2.164713090298019
2.599838096316441,0.40668069447009797,0.4897529671887687,2.7456629191732227,2.3694154299630563,1.215277795076143
