Gx,Gy,Gz,Ax,Ay,Az
13.851476000000005,24.941010999999996,8.337023000000002,10.72,442.72800000000007,34.344
6.643054129830385,9.312648575801857,3.393384958812512,1.1989681493988094,0.5873193935805662,1.6493258742203336
0.5211794075287325,6.4893910097353436,11.466219257448893,4.941520577059804,1.497518733341501,0.9790179834921005
4.206261095473345,15.641965739035053,6.098566383571446,3.704643136694588,0.7701557856078602,1.0252859816448776
6.503541128958515,122.38977016007271,66.75969711558558,8.023605089046566,1.2156080951971964,2.5735918925810464
2.4039148603705054,9.131491251344046,10.898064355047259,3.2549356483126775,2.185368081771972,0.9751992967163655
20.412177368846155,4.971551675743435,9.848921294276858,0.9338196313986774,4.392966770254455,0.5425590150681421
13.578390272865809,25.156839807819654,5.272805346768236,4.042076168959526,12.679291234989945,9.638944710804953
72.94514058688463,25.231951581438697,6.136860994605627,5.073253055316638,88.4271052801361,48.12296179857383
8.190565871624953,3.8252457680652308,9.890276830975198,6.318473884975323,21.880369480579024,13.1463755430664
7.078561567128515,9.695699057956872,16.238019456530388,3.5303187578480277,7.098271186420902,0.698672944135759
8.139776922390977,42.91192863894119,14.604001559817888,11.48211716559508,5.614212682290005,5.29867759107385
9.827861530547887,117.21550033516705,86.51419518236933,35.615547943895265,2.0850494766500693,6.3473473189522265
14.282678796269039,91.57072394996328,30.100339229029878,21.962446119909185,9.247041810625241,1.1347625901248584
7.406038441875402,30.522045462917035,13.214864250482785,6.638494824215248,3.7966219592477133,5.357098262324218
3.943346296389895,13.183689657374398,3.6764516609315927,4.697550218020205,3.746081031796644,10.06365574168585
17.64524176645328,29.92963907262483,12.396335130816398,10.41396074515137,9.127241577619838,24.20553229340178
13.157485495464902,14.421196786130512,4.691012373593006,3.7704057818055436,11.621914158352817,14.200438492525626
5.064152548490772,10.996585100413197,8.183559004382575,5.812345950438079,3.6558591247470953,3.614165070402923
3.5758391909566893,12.028616361006982,13.621877832793158,6.2672343914696125,2.410494997648642,0.9123021065118988
7.888238405265709,11.82383968097378,13.449836972957966,11.762529662323685,4.194290976472336,1.949346192160001
13.730627883966406,23.57696113379376,10.785867788311133,16.221279080376867,1.9686343419873202,3.058581672587855
4.774764175275914,18.692420152309047,7.519801303453726,7.837558001676978,2.533091902028561,5.561635446519
3.4347870118479147,19.261612212783167,2.041959480118973,8.538646982748007,3.019850231240866,6.6810400116318105
14.942062874423312,21.470747671990654,9.025276584340505,18.081702003680526,8.312829351257596,10.41397521430612
4.723110198101769,19.30788017478972,5.126911027917888,13.044862125686778,10.478648869695467,13.587010991337236
2.200047760363077,14.928354134755832,2.501428126962229,14.219007182678942,4.920922427138772,5.572242341178259
3.9062987159070177,12.857552633532501,3.6674625556643603,19.572607238763098,3.131350548484583,3.9753729268200573
9.461004574552362,24.262803450825555,13.190144462792002,22.80346845744561,6.606080898126599,1.9297720858399232
8.191617155329457,25.351650987674947,9.883140525321123,22.252645800393893,1.8230499829317985,4.194279717312404
7.658576862738802,6.1813489445700505,3.8067314110163726,8.069192926254587,2.0773646926381377,3.9877956437589344
7.756957932956448,7.237906683410469,4.544262150646706,7.918236624710439,5.213834909892308,6.004785970279542
3.9448664887692786,9.379226170857494,0.5835872822077665,2.9088665978200674,6.987736787832918,4.661720479345303
10.393070761771009,16.09862103938499,9.315314189561516,12.773820979975833,9.04077988667967,8.513958670301976
5.328853105737878,10.434087689481549,0.4366053112295106,10.009466623553728,4.058933474023418,3.0536555841641615
2.648498472673614,4.271034592051634,2.2351982461437925,6.715918331454306,3.75840381634175,4.91212723783016
2.611819847382218,2.082658248637555,10.805644465185534,3.417690801573499,4.784929683554927,1.967218713220489
3.376057335284132,4.419326812585416,11.223360918341847,10.566161418456016,4.676917028892344,4.753615112811907
5.832991245856962,8.504966460773936,6.966647474946182,6.368443620114295,4.295872288853164,2.990213075342113
1.282553844270784,6.121974018112976,3.236402301533465,0.8454783315695067,2.133571441490463,2.67619142972575
3.6447405683749428,3.234790919923094,4.112894202329274,1.8374213479018975,5.27919087885242,1.171310320247172
2.0127440966095356,5.520900717864407,7.596145942010022,6.041968385640216,3.2505530576610955,2.6608405712271734
3.3240629715626624,4.179357529698389,3.4966702170176323,1.6979181937526893,1.0318851287707378,2.0465317166042385
6.668156195969314,6.590633711246901,3.8443460829146296,6.12852123698822,3.003690327224315,1.9746447507087317
4.180412976434094,6.216844446228941,4.104534639629543,3.855500302259078,6.344252685570391,0.9040617029466779
2.0793365854231576,11.785434502515285,1.465816869604748,4.0869300930391095,4.402185785149569,2.154458948295433
2.9465225120295395,2.2810678354612577,2.18376236820127,1.932553317092789,4.876544535253281,1.1629926664296397
2.1605491522782225,3.3865875007350508,1.4323629060340501,2.430242998856137,3.0057537126272433,4.8849697104186625
1.4256596675667719,2.896071067757182,3.140828415267354,1.9978228914074332,4.237615481777665,3.424206082129223
5.238645647220521,3.932265086860914,5.929194917315607,1.0587818585744246,9.231721690381917,5.405791023658816
2.8832404169007697,8.994051841624064,3.715379014237101,3.5791038312591157,3.7426131675385608,2.1333884232140665
1.5837178164636434,2.559658653700737,2.2796010189283544,3.050402109051362,3.0163255795910415,1.8109792537965146
3.798544112433709,6.957887023943471,6.235583150161747,1.5563024448444656,4.259809906084994,3.3875625501824174
1.5586365871001413,6.743066146997295,7.7165766722932725,6.012857282097305,2.2675172921546793,2.129226649846555
2.1391129188844973,5.503468280507181,3.666292526698139,3.2541006989348666,3.0223014075596644,4.431048631959883
0.13934955714344383,3.638942804754736,1.549498399465159,1.8795023204557482,3.995699180449848,3.502995806752168
2.084517976847429,1.3055910029763245,2.7356581234851647,1.0002598193775247,5.108228566496181,3.5578031227902365
3.7883542411199405,1.9497577452917556,2.1607191111073254,0.9919622020444542,4.6271110066587315,8.530030230769244
0.22215443961405815,4.973313528723258,4.101120380822772,1.2852428833959866,4.563656664910793,5.303981037108724
1.365527508405131,4.637377081903598,2.832436173610801,1.09407893414338,1.1874016798676172,2.7673895932739234
1.956755870057171,4.0063682757932435,5.824168848058366,1.568486292082631,1.881931188308339,3.4389284235970243
1.9126914339711891,9.592948635752213,5.274192148376873,1.7090720283953322,0.31461726193229134,0.4435684481664664
0.963395342657269,1.6940491297477938,5.170693314690294,2.1282406081822254,1.1163989027349233,2.826067643425617
1.0559268412024014,0.6369627797144819,0.5200682002437573,0.41735041130409617,2.4195158067664613,4.185535840572144
1.1486178161221117,3.244872186862772,2.172926203414641,1.3439846193236114,4.826739713144481,3.744276808829606
2.2410408569220257,3.6390233165926578,0.31422668949566407,0.6004330952454251,2.70747352256925,3.6787942316358295
2.2364544376598126,3.4972334117776196,1.943683614302654,2.136082136510546,3.2114917407965735,3.3884572192456788
1.2967904667006558,3.581232208493692,2.806072387065754,2.2276840016007924,0.5850019667284461,1.6887908776757459
2.904410227183084,4.18235467831516,1.710837105251298,2.377956668071679,1.0076209404371932,3.6247923279212833
1.6565179330201363,1.7217252816421096,0.3552657271033956,2.176674426781074,0.46931433154449304,1.1315841149092827
2.29083201031585,4.931076669130171,1.5847463515154339,1.7706118240083786,0.7348607249733042,1.7476345536106646
3.653270519678959,3.1197632268392397,2.0059545291573766,0.3962039642844997,3.3395303678950974,2.101342519546024
1.1376752020680359,0.7278651007057906,1.3987232530224571,1.3121127255657203,1.4282976242129846,1.323810682947678
1.4734826893710016,2.3326433654650267,0.183809706890033,1.1545717820906598,0.917263320971684,1.8082687853303228
3.0025737028708104,0.8786336131732533,0.8368638975644669,1.7681585433558822,2.258675755783032,1.7869578254702647
2.6400007938982855,3.1824558175869315,1.5590030243620532,1.291765309180096,0.7053145162224709,2.193653689132225
1.313350016633876,0.5837610671849089,1.1635817550811136,0.5632902581574125,0.5843300092445312,2.0345794867012716
0.9707098522886316,2.3480928831332553,0.3288126003229827,0.0811860411040456,1.0470525811628126,1.1706244705939342
1.6161462368645967,1.8362349133934117,1.1359026291334162,1.5815817237789926,1.777204847903634,1.246606091260859
0.5785910861635241,0.3778294202383924,1.6130146855333576,0.2821868394077426,0.5476060832333854,1.597182845596895
1.3818588935788845,2.771884353280512,0.24032693508992178,0.789047943155062,0.3846672123192015,0.43971078229482347
1.8839627757167212,3.4775957275425404,0.9633215724713066,0.72892922479759,0.5690638399302593,1.0696563441130444
1.6311730254544248,2.6760441634882794,0.6317131377357272,0.5222054007526243,0.45918971641025413,3.097205932073082
1.500300052501325,3.7815891684798717,1.1868221066110551,0.8040346981159905,2.171038450574103,1.4367145719633658
2.0843377347446466,1.772839144404287,1.0955317018105821,0.3832105427005464,1.2709764110107904,0.10313859386170061
1.3409935255670093,2.503793857209742,0.9528746034641477,0.6211753816091471,0.3474498101682015,1.2001275326609488
1.0668948209710543,2.6985184266361673,0.44515187598446754,0.6853799508684824,0.3141102958014388,0.3356652718464738
1.8709405504394605,1.852014321267726,0.485618822897898,0.6638895670208406,0.9590138309541026,0.3327045432913191
1.164535033707351,1.1210153276330688,0.5520986674827996,0.2367879967553489,0.49896893847656193,0.9224959464853738
0.5670791554811839,0.5368557432310023,1.0993344806071665,0.9033875408039315,0.2935093892724475,0.8532389555172876
3.5328819432677214,1.3542111859378512,0.1234459001167212,1.0830058136322063,1.0206078783807915,2.3077502250273056
0.7568777979588391,2.0685504889848825,0.9789931010190462,0.16920129471844497,1.920081154996783,0.5479565260787466
1.782131961376125,1.7091149363634837,0.43979887973414794,0.9263575460994599,0.9772831352233635,0.4252589691391238
2.5979059424636772,1.3699909790774947,1.0499405100484127,0.8596163683601679,1.6300468622941087,1.2329894153817458
0.514135987374109,2.232757478383419,0.6797335970472718,0.540116520984632,0.13614153567942458,0.48875727186198115
2.3190326525792506,1.4094057305936576,0.4590084126777936,0.3013051235259185,1.2637075071779125,1.0210998361754915
0.8730552559006124,1.7338916487908764,0.3440107693632776,0.3425105728195668,1.0828487873960149,0.8981765585604847
1.4078008860785727,1.591445061155882,0.3969089021229193,0.27137970829650737,1.115360015861415,0.9814341277561439
1.543659416025268,1.747773928620547,0.29727013835447047,0.36214146256828955,0.7399677658769995,1.8331383017227123
2.5732242704586588,1.0735157797479158,1.0097239468271015,0.31737424281173554,1.6110469422190932,1.456958123716548
0.9975690032803745,0.9868867422756858,0.5485215578020457,0.26512143062559035,0.682219392163043,0.16541590254479904
2.5125925354837397,2.3714953439607576,1.1403250119190362,0.28601149379536506,0.5611728696236515,1.2441206626616736
0.7162478595757521,1.2391480944499191,0.46591410141642375,0.05804531956683197,0.35650874388629433,0.308736379982941
2.5494828419270013,1.1197499782016191,0.6493743015706026,0.4225344811660477,1.1235337950197577,1.2852093029632814
0.422885681527322,0.5355224237696934,0.3993152784497364,0.1874178600838631,0.18163278768555638,0.4606570361958179
1.3868167239847524,0.9914094879620295,0.12111433971257059,0.17444862141164397,0.27342578831396697,1.1890767850031432
0.3035275795890636,0.531640359895664,0.31813769630054906,0.6125085220218792,0.39316589510131567,0.14979843615700517
2.7685307490759024,1.4457392235474318,0.6436986759430775,0.1523183633815468,1.19168616706487,1.212512657760185
1.2254630632822319,1.1865359295053575,0.731747793863294,0.22502400258352487,0.6900196674465257,0.4246908254437789
1.6811890838069492,1.690040124758599,0.38304832443644854,0.37509232511200763,0.578179935729965,1.384680556260166
0.0,0.0,0.0,0.0,0.0,0.0
0.0,0.0,0.0,0.0,0.0,0.0
0.0,0.0,0.0,0.0,0.0,0.0
0.0,0.0,0.0,0.0,0.0,0.0
0.0,0.0,0.0,0.0,0.0,0.0
0.0,0.0,0.0,0.0,0.0,0.0
0.0,0.0,0.0,0.0,0.0,0.0
0.0,0.0,0.0,0.0,0.0,0.0
0.0,0.0,0.0,0.0,0.0,0.0
0.0,0.0,0.0,0.0,0.0,0.0
