Gx,Gy,Gz,Ax,Ay,Az
3.0082250000000013,7.104338000000001,4.375237,40.192,363.134,88.92200000000003
8.394982102130754,12.043305779317924,6.47638179401174,1.0779944607352776,1.394727505120241,4.190669353996577
5.0362891842397275,20.44905480376876,9.415637567520054,2.739449673042998,2.085007088926099,1.5051311091344937
9.677726863891746,64.29748874656653,33.66776285215082,4.327540553302355,1.7989561403693115,1.5080261510685544
4.079302595445781,68.2746757923718,43.842420150166745,2.487999327855951,0.12471730899700346,4.616265500261313
5.537635757659425,35.44493162909092,18.834181224397934,0.6586037519516971,0.7654961442480751,2.751630682217279
3.9897402648385167,17.95572071530457,7.2816134921642925,1.1899566673704463,3.121715579652377,4.991816990050399
15.931523738939534,38.48594056542439,16.716986681158428,2.028074489667187,61.63882536187298,39.674337931613934
3.4072892761078593,16.56294349158083,9.680535758789912,4.111894408674888,4.978456734742055,5.69740841423789
2.327031130057928,11.121941780528827,6.671441497770445,1.779171300091404,3.0919519465726086,2.681638764469609
6.789044199586849,23.961005156035736,17.229752851363017,7.731382828409253,3.9951277510270113,1.125979949896654
6.239761251399344,91.07811570480459,26.650454160118546,24.157968228362027,5.102791177811254,0.8121341230722167
1.9349837608576506,26.84656434270216,1.7463957352662287,5.0055779939821194,1.8806356915317688,0.9335722238083102
4.843956583002602,14.768536574611755,4.3238992448302245,4.07630295293794,3.8499453146392018,2.951824497396104
6.543782841330902,14.788374129842014,3.947264656112791,3.8330099399938415,14.781850098257646,16.8323245682746
8.937293989104486,20.98628527859905,8.53193826042723,5.981315459920661,8.454105682232042,6.234076294938351
5.4500760531012675,11.52538471442029,3.028103308893456,4.863198049651894,8.7463862538122,1.41467624152425
5.253794419897447,23.420862006347303,5.202498311456651,8.446687233890055,1.1040045651858401,0.2492702000437201
7.781406267085388,12.038980531095566,8.24170242671076,11.516449265726504,4.287494481706089,1.636498369215103
4.688406607423957,6.026668822897989,1.6989660352574916,3.160152328115169,3.6146043616933827,1.7521255288531228
5.25897490809274,7.178784469405451,1.5503254676044185,2.4434659337621865,6.440065332644362,2.959074095762909
14.88868868108751,21.934789277506084,4.104161883747099,10.304547149965298,22.852759893254163,11.373896590991231
8.97229353466347,4.398644712200106,2.33636391172783,4.534363563297749,9.161259516910539,4.885572684665261
4.350935138275136,5.962287699221073,1.121770461774917,5.866659843092614,6.230278206724893,1.320517717443956
0.6170467240649933,13.802492414737387,3.922285320824402,3.432095220358281,3.34235465248007,0.5478911745933034
2.513064803870128,15.938309306513238,11.979442012416879,1.5081478722125439,0.4982190218006208,2.3763966167404247
4.241653969966557,1.9113827272584125,1.6106877762182101,2.415037233998067,2.2640469225870117,1.6176867087980606
1.835524307350708,3.2212099325131773,0.3274816850623675,4.502160115817074,2.9816981198545887,2.679607586745884
17.79690863673072,6.7920372290198605,3.504312551771529,4.163267494984746,12.350533905705262,7.173045489683344
6.979259385717886,4.261912003393688,1.7704104791796509,2.2005721240129414,9.337016401564298,3.4566829578922422
3.6419631072284213,2.6698724864635786,2.758356879012523,1.0558557214361035,4.143865114443002,1.723892528621141
4.277005110902457,2.6523861707916696,1.71553911550881,0.4914123604119648,4.963284000547155,1.6143683712379744
3.1691574290966136,7.60399131104867,7.7002658444388485,1.2676800342784895,2.09363691470205,2.2833775648991104
4.338337115090436,1.97175456404837,3.3671879392615947,0.5976012659140147,2.091002497015035,0.668484928508117
3.4781782309147635,4.154561508523117,1.9510602193930364,1.922429737435024,3.87077297680577,2.537005720794014
14.920397950183053,3.449432080164175,3.0450949421854228,1.0984026426371987,10.22994466293781,4.595825411087791
17.457362638760483,2.299580159841917,1.727728333898025,1.362977151155034,8.90234374360308,3.812472943755143
4.015370171648757,3.424478214575621,1.7176496983662113,0.7094740417281824,2.538786789826281,1.282150613112832
4.606494135512475,3.039584269251772,1.812407808995037,2.036047366667861,2.7875944288572554,2.2753373823204797
1.5442573404777247,5.843493246015724,5.065714770180372,7.549416099410777,3.91206579288954,1.6052761793039187
1.8718720391715467,0.9867421834516894,4.167333637190499,1.244242258695378,0.7735131358369031,0.80642662025202
4.046452597367918,3.7882720675961687,3.2169900186019422,0.42015389260176217,1.6181977758881254,2.7895376252429944
6.561555162750855,5.037062102941738,3.351106140337293,0.07814802143163707,3.6837003330698006,3.853080777146315
11.466263073071097,2.4094910970395698,1.2290956258078216,0.646499399637896,4.425942778850446,3.8819347717362067
1.7848056012748188,3.6706358549791727,1.8146412180275817,1.0885266743977449,0.6416985426635635,1.1666232525992142
2.725617554437781,3.3222643889277617,1.1737281978103487,1.677775666368852,1.3597681195820142,1.6108701347128136
3.5243631561334348,7.2194352519037785,5.268436256576613,6.225295300713199,1.4946728129373463,1.410454626045996
2.427054961498645,2.27459843970786,1.5076185727114395,0.690688888289251,1.606648418147691,1.034265243214975
1.8888067797710852,2.1654402513677895,2.312470740058083,0.12982110932687432,1.4938726626301233,1.6486582209007983
3.982121466759088,1.0480436861102822,1.4823193430115966,0.19437465381609764,1.5189340706224608,2.5721656475243893
9.082558938119137,3.6136375715236086,3.5651664406136883,0.6224943575220717,1.2999966452236547,3.6645924430137815
2.708002134626766,4.059961760980447,2.3202589706467176,1.7078239339775572,0.7062991362217168,1.527985254518562
0.9204511305146108,3.1744006814179375,1.382955424953205,0.5040864578973833,1.0107664595771073,1.6299840279706732
3.2024529699466036,2.629684257085392,3.1912585326848535,3.609255731252351,0.6679332184915979,1.4782375960502967
0.520616234757548,2.2074422994374547,1.3028138107954454,1.0483620707757075,1.3928741355139647,0.33167079971575386
0.7554569121734903,2.3824921112609867,0.6044928273219884,0.9758808502789617,0.3430745932042373,0.993315505448414
3.0625242292226367,3.282536670109409,1.3916536696756596,0.3964218779260211,0.42617136257077237,2.1053632200502426
10.147730133916468,1.1852145805248424,0.42567630287785646,0.5417487355802938,3.8485304751447904,3.4279428644776964
3.384076423370392,2.7337196003583837,1.0935050544676117,0.963105543111459,1.549364955379591,1.958785980560731
1.6441508246924468,2.3025926458923403,1.0613527402391654,0.3453578905852089,0.41380708073034,1.7753172743421122
2.7669826286811783,4.001244440743277,0.8393491552822309,2.083390247962758,0.5136970252004766,0.6481233584664678
1.0375772759739368,1.16251508658687,0.6487011917007813,1.6482723150358658,0.4694087160318745,1.4409721735567407
2.540712846234019,1.1584659588640531,1.0206620804016517,0.3872895999255431,1.3133748065890272,0.8018401922348684
2.733532463402217,1.251383307200134,0.7749923786096223,0.5494842374166182,0.22912487123519967,2.19911204653066
9.54149233816948,3.181096461145629,1.4268832774339835,1.12098216155128,2.101516700030245,3.4910765823076138
3.4982587494848127,1.400548569435303,0.6373980771818826,0.30685760554471236,1.7512178261036373,1.446561930520862
1.2720408993352932,1.415241818711305,1.1723412867422651,0.032115011018851454,0.7886162982315785,1.639666929270536
1.5141765568886731,0.6016766843173423,0.32559658832848637,1.388573927024443,0.4978113417760642,0.39777332655668457
1.8506354265786522,3.499734283416352,1.32480290337802,1.2930694270168388,1.322120566638563,1.3999330485332127
2.176302509080447,2.5177033004442317,1.066414745727513,0.6757941005514823,0.7182914407364377,1.8658853594936882
1.3271586580554453,1.889096030674398,0.8712989464627393,0.7022546383503314,0.7849602577148792,1.4694371035416556
5.971774328971331,2.3690046801569182,0.14688104244446068,0.7288546115638433,1.3100532015107822,2.503462156398948
1.4128588367733952,2.11426022112945,0.8792498491290524,0.11727630462233563,1.371314472587849,1.106651480082636
1.2657077439635531,2.1779087049016153,0.8624968925123895,0.19970009971527805,0.20368196213520623,1.250124281642369
1.19218207769651,2.4190430302634045,1.4888130365622565,1.213844027539548,0.12285016744637198,0.5881312004688639
2.355672666226003,1.0815608462301693,0.7140842209325746,0.4963134941957851,1.2663841366253286,0.5538832793188373
1.162167805031291,1.9756019164104899,0.8198336034000241,0.6420193522969452,0.5954739405914684,1.0764675234705658
1.5028851058563477,1.7341078722483283,0.8105443278673437,0.6188012594025755,0.5267231231686923,0.9078473882666546
5.63194400551454,1.295980179293784,1.1871130372530718,0.44768393139648943,1.6139975267515123,2.197630056125515
1.6746270970619315,1.6185535498164034,0.8551510202025168,0.4146320026605061,1.4099683578530926,1.3429127352782047
1.125205482346934,1.8140809137384335,0.6184310868910651,0.3085587288822838,0.2813719772267424,0.8457337115326223
0.801596091299638,1.9215179226101529,0.4159457851031284,0.6920488951775351,0.13568707236811078,0.8385044107116064
0.9874683172027949,2.6494232625878027,0.3866423768102356,0.28233197300796353,0.7226439651608715,0.4560526763962868
1.482141473666093,1.9286271357502074,0.7051001999714199,0.20373262126487113,0.378198033369243,0.6227643216890546
1.4733459237724995,1.3075160020725358,0.8362442439343717,0.41111565755447826,0.6389752983573852,1.0837303929904183
2.7903688903046953,2.7136200493516918,0.43916746134682316,0.1048699652633776,0.8677422472666227,1.661942086349135
0.4728328750317867,1.2261737007167002,0.8306897367782263,0.20637343967040855,1.4960991718907841,1.0582516323755007
1.0797253954889774,1.790739038401201,0.47689616915847605,0.2683293581390285,0.3749132389332348,0.45486777098298437
0.4121065100101599,1.678608806308737,0.9947512913246782,0.34362410238461216,0.3609989040867304,0.4999261858288254
0.5096256392907915,1.9358297435021055,0.3924020305391242,0.3315021377888799,0.5964142972304318,0.27699730730610533
0.0,0.0,0.0,0.0,0.0,0.0
0.0,0.0,0.0,0.0,0.0,0.0
0.0,0.0,0.0,0.0,0.0,0.0
0.0,0.0,0.0,0.0,0.0,0.0
0.0,0.0,0.0,0.0,0.0,0.0
0.0,0.0,0.0,0.0,0.0,0.0
0.0,0.0,0.0,0.0,0.0,0.0
0.0,0.0,0.0,0.0,0.0,0.0
0.0,0.0,0.0,0.0,0.0,0.0
0.0,0.0,0.0,0.0,0.0,0.0
0.0,0.0,0.0,0.0,0.0,0.0
0.0,0.0,0.0,0.0,0.0,0.0
0.0,0.0,0.0,0.0,0.0,0.0
0.0,0.0,0.0,0.0,0.0,0.0
0.0,0.0,0.0,0.0,0.0,0.0
0.0,0.0,0.0,0.0,0.0,0.0
0.0,0.0,0.0,0.0,0.0,0.0
0.0,0.0,0.0,0.0,0.0,0.0
0.0,0.0,0.0,0.0,0.0,0.0
0.0,0.0,0.0,0.0,0.0,0.0
0.0,0.0,0.0,0.0,0.0,0.0
0.0,0.0,0.0,0.0,0.0,0.0
0.0,0.0,0.0,0.0,0.0,0.0
0.0,0.0,0.0,0.0,0.0,0.0
0.0,0.0,0.0,0.0,0.0,0.0
0.0,0.0,0.0,0.0,0.0,0.0
0.0,0.0,0.0,0.0,0.0,0.0
0.0,0.0,0.0,0.0,0.0,0.0
0.0,0.0,0.0,0.0,0.0,0.0
0.0,0.0,0.0,0.0,0.0,0.0
