Gx,Gy,Gz,Ax,Ay,Az
11.901355999999996,5.423331000000001,6.708226999999999,60.407999999999994,495.1719999999999,109.73799999999997
4.571565874114936,7.678425408603024,3.4262429531798273,1.5075493277404848,0.650669255158081,2.8311426803853066
4.340032021025471,2.1545841845632396,3.1870024960326506,2.747712289810195,0.34074229294201214,2.8842212338243054
10.015152610663804,9.563528848699594,5.827038927082705,0.28822430283572315,0.7271599715299144,1.5520864275233854
15.595656884190639,12.784413099197783,8.065903837685248,0.2240504068942987,1.2560519131683567,2.5937514740386387
22.004788989485444,172.4680592419614,61.24085566964462,17.44375798291271,4.178321374333857,1.0486669816761365
4.596533091016973,12.54757077264367,3.662173730078068,2.2412066826057844,2.413393689514651,1.378543518172764
6.471127901664377,7.9036169528640565,6.016784105381478,1.195324270845925,2.4361766717124964,1.1879379361177147
1.741199434389592,9.96522380981223,5.372691715947514,1.8004328803589553,1.1083341490808722,1.0640527923159209
4.1912745731774015,7.467226393037774,6.114185575696833,1.9944466163538903,5.276634212160601,2.7270455719723263
15.228804364388768,21.560024965792685,18.277703140735753,8.804460878817642,51.801711950684854,44.83060412075865
4.494435910063528,11.920456417088007,7.77629282786617,2.1702579763851633,2.4477589051561037,2.7052078983956007
5.133296177935169,4.462313840848357,6.267934778965222,0.49106734947729747,4.8012738526408505,4.783702688663013
0.47134828762439884,8.195438993975735,3.2102020154988122,2.324946292094732,2.2930619465130446,0.34870360497146863
0.25578466010640155,6.060710450289872,4.354067251423323,0.7756010625845356,1.6790745258507183,1.3027624948536567
6.225601553785694,52.57220698695378,66.4565025686788,21.23545112942444,6.637574928090944,2.7865597666935122
3.688810005059831,5.555103465794522,4.666326864594897,2.330282140317892,5.125074612489937,1.026622945123986
2.8633560124304833,15.137655301372515,3.2333578121492295,4.256282631818427,4.036299771532712,2.337083102228429
5.733859600811512,3.2895672868373333,2.9434814093199537,1.0721085191834328,3.7494259535734145,0.6437403833426038
6.596019791120363,4.4583810545395615,5.0081792765073,2.3432366617692573,2.80545427138527,5.217325812978405
14.598396954185121,13.495072906873256,13.532566409118925,2.866029193096378,3.942307861053122,22.06605887562242
4.772669785823262,8.086537808404866,5.4656851629284136,1.0153675925324397,5.061212362937369,3.3661207496984904
5.045333180240572,9.098998399500493,3.866028346160138,3.930252811766877,2.215603558941521,2.6933110189312264
1.8262432082302773,11.280970525338049,2.0442438675588734,5.818757507126707,3.257231518961684,0.4586298632046946
3.9110024293675325,10.14853894270216,1.2242639667432478,4.720210205070299,2.502432079604098,1.0022074592713173
19.714956898649696,45.28156131890615,7.453716879988136,25.984458042144276,6.8325755474026595,3.4846957102240674
2.048066794341513,6.8614506289885515,3.277745266211647,3.0303623428121593,1.640776154451706,0.9654154617859361
1.748597819619052,4.357282356063384,0.10486535951856765,4.2630815706585015,2.1998226124131546,1.831030138074734
4.127391184718679,1.4135308524918604,2.223342417629661,0.9742296273224059,1.473016847788605,1.2220989536068707
9.183780044162082,5.85347763662352,1.7435920215847858,2.8639527530074624,4.991123561351757,3.92228247792111
38.942184590794085,2.447193481059172,6.769399855600004,2.0970791035460623,18.81412371043176,12.19049756584104
11.718590752923005,5.090065477565163,2.441374678670421,2.019261152934643,1.5986213294166287,1.669533840545064
4.0747401555656175,2.0719102669183713,1.549391587819848,0.44344242727116323,2.991711012890431,2.286595439084361
4.48595533982786,1.5628270823088448,3.460551374780709,3.2450228606773366,2.0323205297218823,0.5242453750669457
5.6332996385574585,4.334998913918834,1.3372180243785474,6.887609060199337,2.617461223516176,1.8556403013729714
6.877938350225968,5.560295859331927,5.027683673948813,4.372300497518614,5.8332668170280195,1.8953042013119534
0.3278273664506421,1.8140720570886908,0.2826984811835003,2.125850384865502,0.4784359169540999,1.0478060232356847
2.637198565703622,4.238720226817532,2.25294310127621,0.9993038289662801,1.8716436723888075,1.0893689114443683
4.5138342787951,0.9891816887601611,1.6590826404446768,1.6813650556407664,1.7565936833383031,1.2494870034060845
8.399230638276114,3.481242020861985,2.31409951527602,1.7741631607085475,1.667073275476153,2.400237210342748
22.099398468403376,1.590316114856308,2.583115169481462,4.419357513224524,9.086757480200516,7.620523884287781
8.524771920343703,2.479046421344468,1.7124527461217407,1.8826714522590269,2.0079576320177828,2.129064532058342
3.6607754990576225,1.5032814250116986,1.7475597439478432,1.8535755648474908,1.3704140204543451,2.136777848536562
4.875266579298082,1.436657748245695,2.9157182732446123,1.8896594804827642,1.4803099975432052,0.42155930517218093
2.0236547000419987,0.7577893055842921,4.460579518976057,1.5629493107315091,1.1428293839009112,1.2662881593636897
0.4713894089044231,2.3079427432723874,16.177040468858493,1.6551892832639354,4.228152124324736,0.29579177256481276
2.642094609400874,1.754062109213082,2.264785465532036,1.6538194139487072,1.0670442091152486,0.36774003110499337
2.017648655813948,1.8122511522642022,3.298352661646324,1.6305255755161787,1.7217644210041212,1.487585533349077
0.5244255464401487,1.5530551477195795,0.4111451015308682,2.4790172178491696,0.8080480097139366,0.9291824270059909
9.65429633699828,1.4797052494960294,1.6372675049376808,0.5315594314471876,2.7245233170623315,3.377321766701547
22.400772170912177,3.810376102265736,4.052665645278787,2.647040351402752,4.386735850691717,6.934489165633686
5.301056577022925,1.8728616768399833,2.989793820970287,1.1551602564588468,2.556614777386745,2.038394242455523
6.726809634427469,1.9995692730686043,2.3385837996128673,1.1053509027149122,1.2469179907877426,2.5211571606345253
5.317179206001198,1.888712412426097,1.4100457999901688,0.5907357380570548,1.286142646135092,0.7775133908656521
2.6084030075290165,3.798721141129753,2.0405795515958847,1.9134665135458768,1.406697802401685,0.7532198323558031
3.5603467893483103,3.961356715990372,0.4860733447009528,2.990418791203052,3.6478730052813977,0.5742028037493146
2.9205526668377972,0.6729889722080123,0.6513224700020115,1.4637722171438643,1.1868016044562366,0.9374617201368198
2.0217792763659337,2.3157851129313527,1.6215421521548856,1.411277889001389,0.945371482548304,1.3166606818086197
0.9685650882153036,0.7794042137752625,0.8042897691962937,1.3470470606255296,1.3814922835640344,0.2397850774753653
5.026698023805298,3.4677216862002194,2.544361950676778,1.9893370896582063,1.0636729069943385,1.5559771847623833
17.57972504987439,3.195281948845224,4.179281498296756,1.91190451343009,1.1956282022095417,5.502492286680275
5.343123135686483,1.4846752833017982,1.6321011063860806,0.67727392946274,1.051543657736065,1.8333198748626411
9.347871465483458,1.6113740640488217,1.735002452047203,0.2204099609002352,3.7424860922847993,2.8205034889092313
3.169153868507046,2.065704630020457,0.5299003043368216,1.271120861639503,0.8575775938259168,0.5375564286202827
3.952961883338315,4.709457672484641,2.160859271297852,1.1654519991829624,0.3959329285206813,1.6796920317823791
7.065352646992455,5.17360909050089,1.5237471588348688,0.5329361237410922,1.5321498770941904,1.5686664846349756
2.7398304199063745,3.375867379045917,1.1343365444419713,0.30072048089038794,1.261061121272281,1.0764144362640602
4.422075578164253,2.4532238936884627,0.5065007930176699,0.4143803386493271,0.8045404041266396,2.001758986657346
0.4140407853570506,0.625101850412683,0.35447659389136843,0.3379108412762729,0.36639967145045516,0.31868219213270704
6.432053591902711,2.1088598656441278,0.5748684641288564,0.6134876278008246,1.7319457153867948,1.447869862932859
15.070907475559354,3.394197442214706,2.8180742403439485,1.3858504518979726,3.893307607618507,4.534686042487203
4.842131885033208,0.40109370859445675,0.4662816727573063,0.5193702188336237,0.6197269216573751,1.201167084405701
3.9612934920647045,0.523321833747103,0.19823939318630351,0.1783305270475062,1.5083896529767176,1.4356413913018131
1.318071388342186,0.3745204908360828,0.8354129041560183,0.5544031721228261,0.3379531707440347,0.6449440000158312
2.103275897471934,1.2490670802252857,0.982042550897225,0.6545247800089292,1.5374075170665644,0.5556199338309312
5.829274094749068,3.863048945717649,0.6000549048183783,1.1097282383165112,2.674648750882505,1.2017893603598708
0.8822186446560962,0.4745536971962292,0.4337945774864501,0.6313394557413977,0.8833368420700665,0.7416144983543216
1.2698432937561415,1.5534257908525002,0.611330410770816,0.39229022802310487,0.9455349340909054,0.9982976949855156
1.1986850713596657,0.23745362417309737,0.36875357998038055,0.27013761470793,0.45581659304248845,0.6177689709772847
5.798471651884329,0.5838879911002822,1.1621218022836934,0.7918211489138233,1.6854528616157753,2.092969028655953
8.341769574650414,2.4132325581431084,1.5886403791765562,0.6808818185291998,2.766027668980986,3.054538193004473
3.519063201108631,1.755926608980142,1.4036731828494364,0.23431574644440528,0.7704659871275147,0.8707420534242467
5.928563838039577,0.7265052154024793,0.6359321785027918,0.43891882568489626,2.4821304807221525,1.8805551848216941
2.232110246048371,0.7707528260023861,1.030585748062901,0.24153092469182721,1.5632433105730381,0.14780213666960337
4.234693482697137,1.8297662213239736,1.5294122791629394,0.5823255414527773,0.6997065741786294,0.8466346873439602
3.1059329077188873,1.6399472852400137,0.4398965127566778,1.159994382577618,1.5340565982365106,0.9683186611792763
0.8652868649241993,1.3798356094689903,0.7238381456393506,0.3283947340204755,0.8177026837163222,0.6105559659250487
2.481841294315036,0.4155021966969219,0.3888770163599263,0.47526251415885207,1.0819798819511277,0.4434532852065677
1.633428940604145,0.7052762540009212,1.0098320517667325,0.34978459349695484,0.10013269887574476,0.1305277654513065
2.713763571743663,2.562667914672838,0.988724893807736,0.4198343074807541,0.7652368602756585,1.4805942040415523
0.9416025271860458,0.6989414806275525,1.3888284924074537,0.3464148073766265,0.32555474435923093,0.587024808830672
2.8365286644012633,1.3017900416216792,0.6599238380036727,0.6916782154947615,0.678921419102041,0.5947390340281725
4.622843058874079,1.1402915893729073,0.5088721246871132,0.16008168744891882,1.4367550576535368,1.5658598059861684
1.1031928830277071,0.5847427915473372,0.5078080266521215,0.4139003660463852,0.8033403854720508,0.24917425484533076
3.6087559667613385,1.5394436948205072,0.7231845194927282,0.24516940763451714,0.6045357728579266,1.1007184377955177
2.0778639534155405,0.464030770068757,0.08852693603869807,0.4817376364839828,0.5027034028682454,0.8618087591668013
1.257388901976118,0.4506191248282618,0.40814381172730996,0.2597799654652967,0.679292863962081,0.2705294282703604
2.8442662408790365,0.8598646525681567,0.5772721065691242,0.44258460106368874,0.7814970557361511,0.25217824416251394
1.2005704137913007,0.5317274121386544,0.13005235142483362,0.18495829911426226,0.49858542916199694,0.20643783856905978
