Gx,Gy,Gz,Ax,Ay,Az
10.109859,14.078456000000001,12.342903999999992,24.028000000000002,580.7479999999999,114.5
7.007704681272413,5.238915468886029,3.6143596896503114,2.677879278994284,1.4872042540328063,4.823750174553414
6.683041651481248,10.445562252905965,8.743667920410664,1.7024233640796906,1.158961929083022,1.6588569507496975
4.322410172409308,26.788887130835384,18.357720305514555,3.4945164530121464,0.6534713707118377,2.9968679493344044
4.974185694202731,31.616239050298873,18.068810014556735,1.6160924899964566,1.5097709815784106,1.1937881730052156
14.81864496559289,64.70226529188209,33.42950250280754,0.7153646264050841,0.4954191770464112,1.47992421274311
8.723211792917818,108.26879701197991,54.55498526552406,10.310576654368019,2.3872047070716462,2.760801555026421
19.893896639994576,36.688563346878624,13.981081548794709,2.1204215641474335,2.8827256628704934,5.673669876793088
6.91599448883623,30.435242061369326,13.889242315274728,6.578119987026028,0.7125598581952001,5.246523895528885
8.334549856340628,28.469214137007867,9.757624907958638,2.6063972197823673,2.612265393578289,4.398876056164088
11.011112944608834,24.23282133051947,8.184156128092962,5.729373766915511,8.709843155480577,13.716207049993754
52.92996959296962,36.73365595438243,9.065983636620272,6.308886365862784,47.03395944058009,58.68571815311171
4.670280136469616,27.876148286245044,8.897652474013602,6.330744265152405,11.310675465062078,20.442804282232228
3.8620135670353206,12.312084240673519,11.835247175550409,4.803238466773979,7.4453941540706,8.569144273979875
3.7003927681155884,22.894305575423402,15.614308897746236,5.522421317944727,3.257399579109159,7.2006446317925885
7.1661948469201,14.418964247674989,22.26328249450547,5.476316619901734,1.4370441336937538,3.4801012130683127
5.2567565965249985,10.787711790655187,39.37475112723338,2.16942976949619,3.748288611307849,2.760621017634043
12.275409546204378,74.80218838297823,95.89822484477159,17.15424431024322,1.7948932939053048,1.8578565815071548
6.713142387321376,32.419240281154806,35.734691526411844,8.687080564971081,0.7489599642400316,4.3200586481355945
7.705324620006673,14.823371414502555,9.150958256010119,5.9429201434873695,2.7615023570989017,4.7409740451155145
3.0472190480891173,8.466599904423619,1.875204518149628,3.1628177904419323,2.154624141449342,7.086230980577413
3.5200874414512096,17.633332967106075,6.636326075191886,7.74351686425298,4.121713691168667,14.532383912801611
3.488932670584013,16.964405934830083,11.3348981237793,4.2699880774808445,7.750132669686744,24.108662870855415
2.893927300454438,11.53632495727492,6.132861320017903,7.12547452352524,7.365534373704095,16.568474674468963
7.112791139289082,8.8184836981281,12.214564575894412,3.616295688473122,2.9513956113473663,8.636177488540744
7.081235790546003,33.498124998347635,7.285119640500607,17.106766054974532,1.523068268161974,8.88114509824776
8.570573522372015,5.621102440320446,6.960151453401132,0.2794162942570682,5.2142484623929235,3.8217680199036037
7.917208563098073,26.499356674556,14.077264704358369,14.869930064868797,6.124867240917131,1.049609042559564
15.045673179822908,71.60343530761469,29.38072293103625,43.216855782999424,5.366169215324054,4.2709371796464115
4.774038200460917,35.00398356637029,11.21024322362846,22.354904338547847,3.366575360895196,4.699087075428298
9.397273244531235,8.65704328960713,4.403707170623587,4.482570445921242,4.504074604941358,7.834608328983064
4.114796312287577,1.264904206982827,4.8190108427509095,2.2055735837150365,5.400289368840868,8.74549039965051
2.3891605425273688,7.810642741049142,4.411285289428882,5.292493035508535,5.709352040352856,12.01095308495469
7.499663042946886,12.3672551960338,13.67222478828103,8.738205081863747,11.324939490361118,14.716933863604732
11.908198507478481,10.724227252126068,2.917846791407328,6.317884547438624,20.33079629981865,13.227580647412678
11.977748237334618,12.658999190935234,7.874491920778714,6.933374578021502,18.21607425848984,7.894186849850888
3.548519233208533,3.6254854118518027,4.819134160644049,3.8581632589311856,1.5443405542748365,6.384832133110526
2.14842183898465,7.612293242281999,6.68353976654637,9.131668534263712,2.319816067329475,2.7055057572814163
3.700197140880517,29.736198008572746,8.743701210800884,22.552091500408583,4.538577816013216,2.5480467531528603
6.336215852699971,27.43091049433893,11.774303430642961,20.348581987747696,6.024163300888022,5.289126679453514
4.349674737268316,14.993662994298953,8.271033376672717,12.205456744922449,7.609723604794365,8.817816084109184
2.097550484221018,3.9776606338987546,3.3434172200771726,6.648897577868502,7.146437954310754,4.6216778715195455
2.4766888384191663,8.425392353305266,7.09246071433665,7.771393782837539,10.727155041180765,7.763914630444705
4.108617725986084,2.592894615952689,2.7997831951774814,2.6731847044593025,5.41560275532714,6.319491092191355
4.234100353068997,9.662492938086757,8.530656982168924,7.590864115726326,14.84509600324261,10.445348204672651
10.276393616802512,6.00534824598004,7.623453862793224,7.405382168480783,16.63955681338359,12.876306119649996
13.710961327912495,6.52290433351926,6.318296254969275,5.4757967404764045,16.176000976471123,10.337503590642068
3.90808525661638,6.626276441737126,8.638791150558461,7.909653364809133,6.291672043685476,4.078433475585617
6.624937757973407,7.92839614230265,8.091812201690088,15.83642960653717,4.922711637655849,0.5761320721690742
8.944030630121318,12.048302955516736,15.644649132178625,20.05259632620045,3.8625613706769455,2.7483463913069186
1.5020983531823684,5.885950400482936,13.780082718366693,13.178436314884129,8.14950263335219,5.38603026134229
3.6503783796881257,5.532189167443556,12.318730788847153,15.172271727809088,7.822187785475215,5.919387346474197
2.0667458809652257,5.36966668691323,6.8562613403961254,12.073695840401877,8.665837087877694,5.384669500132154
6.333589135107287,4.949671017088671,5.076889396082719,7.494734993574522,10.029251287174544,5.482539485432392
4.964431458242325,3.356891669283741,3.6996908991962325,3.1111520147543548,8.970777611854253,2.7712166433153884
4.613422649762428,0.9205900838329554,6.745785031559751,2.2377545574007325,16.45743682064132,11.326641030801303
9.014639420405032,3.7216062662933576,8.031592174482109,9.273112253333062,11.152338122815799,9.046072018338776
4.744565172792466,1.8639569727724608,8.463895246825011,8.23826631014189,14.968417735465712,10.285237811889594
7.927930702741153,0.5679316860139059,1.0722811515547341,5.094898048730553,7.358077089923648,1.4298453108299194
3.6225000727203267,1.6447146039267986,9.990759087051993,11.716217378828913,5.5436271787204054,2.1399819839274237
3.2198294244724353,2.7259676978125635,9.815513752794857,9.978317437767425,3.1253309270602245,1.3362956717111996
3.795429086125129,1.1215114490625762,7.249656751333056,8.585592688972483,6.623086865269182,4.173083355626628
4.094598051217396,1.3872961631725205,7.742431464181761,7.724168242500507,4.727323025380965,2.97280352480696
3.6491366851154803,0.8850888995519806,9.682831569251237,11.017739097185544,6.407396791125614,3.8447858051234887
2.3725271899596048,1.7255590960851526,2.011560675770477,4.702709395820333,4.236937022293604,2.935653234326204
2.961511760998926,0.8962584062601046,1.398510246275866,4.706641103863865,4.137090826356161,1.699741923268328
6.38934839722917,1.6943832884574357,1.0588948939807399,2.3687772267225045,6.780031728575572,7.485331276678881
6.519680881209266,1.6981328719475857,6.200455209530251,3.1681071907551406,2.163874856891898,2.7112690156078254
4.905399399193014,1.6100065443506058,3.810211428909402,0.8758709320309743,4.616709759407603,4.836416027773332
2.212748715860448,1.1057324420310182,6.205909777021462,2.433612448260343,5.410742799482589,3.1228394907719195
2.8093662731688442,2.0828988560346526,7.213743014560544,4.636019955166123,2.0389011447666854,2.5465002764467153
3.407917909272266,1.4379909946800158,5.087609838997566,2.8046407225448857,0.5830489977602538,0.632625677816958
5.980390876283361,1.4573544269261687,5.5740272211435915,4.31481565834744,4.040471911258626,1.9767132621207881
3.5882310700842357,0.9107559680936848,3.205622117306039,1.0406813716706538,3.7600679935492294,2.576320458036169
2.693768394297729,1.954445502177649,10.821024773727366,4.942072270400174,2.4999687464474714,2.1893720492625914
2.451816670141965,0.1876743012676827,3.9643712909717896,0.3578723107519957,1.9784993564587998,2.4693948312290415
2.6855469359245605,1.2602661071215608,4.1301692095621245,2.8775060040208054,5.34211070431795,2.415116447110467
3.3406904362828085,1.038320864234854,0.8774738000608718,0.8149918137919863,4.014256623570235,4.571975425956935
2.9636529501349,0.09606339772869323,2.774551997567883,0.9797805920429594,1.6857141864671232,0.7463536752819534
5.055594322740738,2.034012056384901,2.701248585037006,1.0415493617372829,0.37308813897434184,2.6459868941410383
2.375081451517848,0.6484472722592229,3.754066342324132,1.0056987170073204,3.3912545500253035,4.244266911911121
2.0579952888911834,0.0201906672471266,3.632064400240142,1.3717414124592042,1.662139560869856,0.5158452962071
2.618337018870393,1.061741124969949,0.8851930363677676,0.5913498251577675,1.1885263312030254,1.6374334363937348
4.3670579645644425,0.5262981300745555,4.689948577841459,1.4148996927260384,1.5520151406899638,0.9077636444874359
2.3513561589239402,0.603146807067545,1.0898737799570504,2.3714379757285666,2.686290038208555,2.5085687924226723
4.855883657417033,1.3123627251078227,3.439017416022903,2.980690149222853,2.748873612291355,2.112312811019834
1.1029208375410202,1.3191168057313176,1.0033607651764493,0.7416211537211577,1.9176127172105781,0.7900239507453047
3.5686668322322,1.4806515753843608,2.577189689355778,0.5920683091993635,4.858144138471188,2.4661724584423306
2.6012921887778826,0.9814844838375035,0.9815937266956037,1.1076761809413114,1.6130703900777663,0.6630333364851744
2.2835856972950546,0.7356920298105067,1.947484391302222,0.7463983216216746,1.7581988074745303,0.8981123845072077
4.868993401350454,1.5947539805911595,3.2143491764330414,0.7749244887898741,1.5194501224369221,0.6175943590288309
4.018458402627701,1.8768125799494761,1.719210523201069,1.7120363823145304,1.0248834639974407,3.5885685965847083
1.8779817454261427,0.164070619809412,0.4570425294077114,0.8202646135311337,0.4952104305340536,1.3348181779940036
1.8131355578601762,0.18316481571159288,2.340985202347237,0.78542793066758,0.9693164670075551,0.9425027420496848
2.2302918427659213,1.2413155411160048,2.758729089908701,0.9884997681798366,2.43426566214997,0.4175814095931513
3.9261019339382996,0.12261980641611285,0.7168341471758184,0.2577927895252166,3.4280527815299484,1.1101720515916393
2.6791177206180063,1.4836043840239534,0.4084632030283069,2.30261096003538,0.8647128168744617,2.5648289954165633
3.7295270342506934,3.020795761440013,1.2744466689964753,2.4655903552385348,3.131778026467678,2.228974369677494
5.812360921160018,1.1162891569180078,1.9041663697660764,0.7763810867805792,3.460418562432598,2.016256971465214
