Gx,Gy,Gz,Ax,Ay,Az
11.965194999999996,8.650542999999997,0.38166499999999726,9.123999999999999,545.0919999999999,50.126
1.6186973018719861,6.130457596003306,4.721245763935533,2.351982959362888,0.1120631182300934,2.2587949407744126
3.166796887633339,11.839928122980982,3.635403715787684,3.079738737614261,0.6978216552692091,3.070424761567332
4.811963819104529,8.970895656118685,6.1010078269662635,1.3600589678204913,1.491240735874062,0.8205700692046709
9.427033462396729,8.304881582191133,10.00087361208517,2.124179750134316,1.110490196722895,0.4020628155327056
8.724445602905995,33.60253907016784,19.324639331190685,4.4915965768216735,1.5726386805672181,2.866370501464748
19.599524219730647,91.51877693759103,86.40752901583215,8.435071962810412,5.7984670922397985,6.322122072319841
7.223448510700094,7.241467093090007,14.564299631397882,1.5703121628802088,3.087382294981092,4.410745261261999
4.984242568624081,5.978439009726861,4.94113617675941,0.5163475691585129,4.697210475227531,6.6162593278095905
6.4568087022177085,10.844656386106966,2.45032778044126,0.9868093790451579,6.238204146701234,4.376979439505195
4.735192716220494,4.765704236313987,8.315279625430751,3.2819191488326456,13.248966558974015,10.77659907019667
17.228329927906334,13.85211754346328,6.948710830630014,4.571746884992616,34.85273554008984,24.299390209940302
10.369890783314748,28.16066278565683,6.484702723559603,4.833358034145889,56.18582471652313,50.02827226269497
6.210738151727347,8.26565599203571,8.174360203616784,2.9737152077235085,13.392090623762249,9.74483281348253
8.388989870748734,3.226993780152102,9.533126260121017,2.0863991134580933,6.398286803432077,3.1949309265984254
8.562609419467153,14.910569488265427,13.54136857909024,4.257971963326307,2.9503979457289087,2.348807451920218
3.4066860904370024,10.60358284625179,22.322631694133268,4.614031933092985,1.803360665164447,3.3031113052113326
8.750444747803094,37.271793188157645,50.43007105338916,15.802488491989331,12.859371223701318,2.2232623649878054
3.601924969667268,53.65430715714231,55.65369473132943,21.488205245582847,2.735461105528079,0.3016806026761931
8.035942892371295,18.09322755964691,16.136444815718654,7.736798762477189,5.327825115672686,5.47979457379129
3.9430983714815158,3.435572905695723,5.416648119721555,1.453835262587168,4.083985469008714,3.897073654205626
0.7045106595996324,7.181450787658718,1.4382118990967256,2.1398589185987364,1.169984107461062,2.1933893772423536
1.5544320180099667,9.081774185918249,2.26363908851936,2.339640072984911,4.122755091697266,8.18270394257934
12.332840828415325,8.986997972978738,13.756834293125289,2.229884361727711,10.240516203636119,23.36013799484563
11.826620278344352,6.748903023642309,4.398971324379393,4.649670595335525,2.985121909662074,17.053913990609225
1.4717626527115117,16.576213876593634,4.8231595291552685,8.310667090367255,2.3854225967661575,6.683223696438361
4.796491596355481,4.568136646381811,1.092251530150309,5.230745927692821,1.281776953829154,2.030217176313223
5.89677067631446,5.626901188143496,6.182527692940284,3.5252774439980485,4.157778169209018,1.392745457442698
7.619899454789848,7.96452346881016,10.118645167291971,4.282257368573414,1.861056534158056,1.4289750465304727
7.292694212509222,24.50596428555918,19.336090638760655,24.09890164137873,4.345852547644371,1.3282901576249582
18.579792612838133,7.205022123917481,9.223945559601896,7.884278943807386,2.839671137014595,3.073797164317599
9.871271796711362,1.696392355527937,6.1595503981783715,5.472877118495718,3.8179019338426863,3.2585315757334277
4.479645054822971,2.708200661124214,2.695632851739101,2.1664705515677336,4.234729326524581,2.133416225567934
12.715822842641392,3.825418266614653,0.8478939293004473,3.404219433080342,4.113062593716365,0.6754962260969629
31.121592068352925,4.16745540338242,2.899742416366368,6.669441748275897,14.27113083562652,9.746260128238436
66.71204878969588,3.4922001960299194,7.726318760775117,1.9597988243526125,29.82344977251741,21.416327922087657
7.872498786038913,10.191503016833595,3.840208193636976,5.681327566017515,9.505352560359652,4.230579294510124
31.67207738657055,3.645617504636734,3.4761669274403113,3.8895297781092664,13.371657443646859,7.982790879748623
12.401061246699438,6.890758398719889,5.213420936774595,3.7447876695383506,3.9801341574386955,1.3154697959647546
5.548762897793043,5.461892801211171,1.93361060715608,3.132391824896295,2.849462961590923,1.051118474955326
3.5350399353710844,6.4563961600223525,7.526941751031424,8.405731223487875,4.5824136005549665,1.6252167337238212
7.633243917770167,8.164452419585158,14.092301172352037,9.690889659943624,3.6543906907872534,1.2822066614092715
14.948856130801566,2.4700713070069265,4.0692645047708424,4.786032555157861,3.8369713042822053,2.9872635184887004
10.516835615186197,2.253209021450441,1.3915943417482313,0.30991904771665285,5.995401126060031,1.2227739519997964
8.279269832448952,5.424808394833654,1.8747824497986891,3.597383233763116,4.791371294204107,0.7496295677181026
22.814314957668486,0.20472995341728384,5.864222509599778,4.374004737294883,12.462561434825307,3.92781652135452
24.712345357406722,1.4618209329996648,7.153308369081151,0.7757729932503581,15.569362011617487,6.702152390700314
27.309418046471787,2.3100894209122527,2.0783375369252837,7.2871580321614795,19.87456017331163,7.631958268765546
21.855661098817137,3.7555611769038846,3.3753901234261474,3.0445999306751896,17.061062986294367,4.727637014761022
12.609256476571892,6.352488206880471,3.8407713882131547,2.7486335702850635,3.5701049665817046,3.7821007082239477
15.022449586894078,3.6500193726364283,1.3866424774181318,3.3368857142584507,2.616148062963063,2.717456574114136
9.862452799298897,7.463669226691959,4.303417816202956,4.672051012412684,5.502118185967512,2.7069262414186586
13.383499576195538,5.690480717382362,6.219809881674774,6.473249839436391,4.307961877926169,1.2776529538207362
4.089982458306418,6.090647464878871,2.2619674747881886,2.4731141703727957,6.769002724128259,1.6691813377549745
1.73613100409489,6.045027060433889,5.36751012522747,4.103691256927481,1.0247461825923636,0.33815464427139447
3.901952000797233,4.6322166995492156,1.0503648981467648,2.690037976204178,5.280765267868182,1.2653298829563002
0.14688052042041738,3.3566930927021454,1.419572704538866,1.5751906863723675,4.278415688950866,0.15714532798657294
11.093924720456778,0.8673553062029248,2.9856981163256413,2.0806664212268675,12.99297810957099,3.707026403923745
17.55704430790722,1.7064445718300405,3.3791050442884116,1.6183960199132847,17.364770697073197,5.069422790051532
6.1827801994846086,2.48631968220587,2.2545905671355433,3.2472348804852436,6.443669635171846,3.428632172720573
12.696160533304525,0.7445089801468932,1.6560375480315108,0.8231319320761784,15.131735091569672,2.831753831209011
4.3809670234043905,3.636550840605502,1.8021069628545534,3.3277738634727445,1.527578658143926,1.093935906165208
12.200134610051393,1.7389352500481265,2.745483888273484,1.813201948897448,4.11906808371315,0.33307874856686903
10.893190290206803,2.9635820949301355,10.341563267510992,5.781460500538139,3.611791753281957,3.0240630586958233
3.5564879991343914,3.28750450608162,8.503273903786841,4.9787285560656205,4.6096090617858065,3.2383280388680062
6.369550687184672,3.536313148810422,4.297274719046399,3.250376566559317,5.514090608263828,2.860219121923566
4.546830599034783,2.9671087559245994,2.863199983477625,3.86739568084265,5.514478989552035,1.0988838041149296
3.023853120691695,2.204456432536757,1.9044318809935066,1.5857532671712953,2.6434412123668047,0.8806973944465601
2.41173150043716,1.7499459245043174,2.6608747882520074,0.45731331384546164,6.418134958398569,1.8233427650366605
3.8788536706142973,1.1454588823207807,2.6328156222789847,1.1710228412962334,11.318665678677426,3.3945042145380064
7.332021992610413,0.7752992718591936,1.0058842817214422,0.5293832346872199,9.023044359105892,3.9309410244998575
2.053441097395296,2.747529914394962,2.6885085973578127,2.045045404429323,7.543108074674851,3.0228865519197945
5.166191927620537,0.7782217026251756,2.4357224366757113,2.2583881279010876,7.0630583105767535,1.8154844641237202
2.465677251093038,2.021165990478899,3.6579489611591445,3.1796734937650344,1.0254456592628685,0.9665987643006865
1.1254078651887625,2.427935872055042,2.988827649629726,2.9901147056898916,3.3847631338976036,1.7484974093303796
8.362258666836238,1.12700953302979,5.2839780434498245,2.386703506733064,3.5487371849254816,0.532629746689429
4.215845217962239,2.1351285599219323,4.3938325847059305,2.512729162835333,3.231585027195438,2.7276446532712617
4.68261876634286,1.7863629545853843,3.855300875619694,3.1127212899383006,3.7800781143786826,2.168143105387855
5.087546084268837,0.974176125579345,2.5163125775866892,1.6551050489338925,2.973216041822003,0.8145434173903963
2.8387638251748495,1.1783854511446674,0.9878011645337867,0.8403605413218788,4.994353575044673,2.524364301221043
4.667819139758929,1.487569539458718,1.7016923695957324,1.1612799847058322,5.439440999306587,1.5106804477294589
6.198462905117582,1.3125393213784902,2.0938567604762457,2.008514387886723,6.137689453504128,2.475597180727472
3.1182218889758273,2.097304268603673,2.482176617322091,1.1764903227949035,1.9473311116245786,1.4332265258766668
4.415095031669497,1.9962844628996068,0.6591795353174088,0.08173768540657077,8.042663180112159,3.8991442747838434
2.3698959027735116,1.1830164706198525,2.804425606137481,1.5346220261073142,2.3220150647174473,0.4939733695322213
2.9102136801848006,0.2748556962348243,3.4525731851080628,2.9884757390648278,1.0418683366779478,1.3662140235991735
1.9904741456267403,2.997060684202442,2.8446483758139522,1.7538550776451922,3.4557741797871837,2.3932923109048603
0.8472648212841131,1.5281232683001595,1.101545025398424,1.8354439868437828,2.7358187210039873,2.274746975947362
1.800214817480833,1.553285794197041,1.0046563638022006,0.7189147150056558,4.026263113622072,1.550808231043803
2.96756401123214,1.0530507514079053,2.242846460138364,1.3289992382893747,2.6974498617504037,1.0135407727178793
2.4012203202211575,0.5931114492658349,0.9439006079978709,1.3710343644975755,1.8218916771198377,0.2159351539709141
1.5965078752041935,1.1956892773643453,1.0303677024225448,0.2377607960751396,3.6211035003982226,1.4360378329079446
3.5507611882042434,1.665674757212596,2.079395697557504,1.7503268951682085,4.522569890534512,1.8739903075164392
4.879141445952644,0.5874709476630079,0.8318603733188873,1.5368176913921405,3.4148125390935253,1.3663642056077163
3.010878824745211,1.3802955411072702,1.9190453825141527,1.3607746902517943,2.6510832329953633,1.521247608428746
2.216237882353136,1.312794386417981,1.9149585081575795,1.0138108915484418,4.736870621504789,1.668513274658309
1.7536140553307678,1.5500396474054086,1.5359044117646017,2.7370913105425996,0.26600159927880856,0.34611062956367034
1.1432525867586085,2.238517112067056,2.929447267382008,1.1525578010338797,1.6144516955487422,0.3324314043551509
2.9538441539975877,2.146520173193183,2.0487691572262485,1.134040573518719,1.4839027884821046,0.9353574312672301
0.197985910640066,1.4005189433157994,1.6825806620303239,1.4300927125650094,2.5736294624037592,1.5773892190402836
1.5357819425479629,0.5466388153340576,1.6524429988210123,1.5879032890120077,3.2163692902265395,1.156249850472152
0.4767188186423178,1.1217307997499157,1.4144451454307794,1.8853980769735346,1.6347695032690812,0.27728563760651864
1.6110626482962416,1.0242369516564005,0.12599357809691938,1.2454130575400406,1.4477117717038734,1.1078977986486604
2.350820878891649,0.6066448880528161,2.099086930573902,0.4704722794121208,1.4636734906148487,0.467281088424358
1.0787857035869097,1.532742831634568,0.439551678374771,1.316458977729662,2.7423428738542133,1.4436268184337406
1.5134435661720038,0.7130940016858696,0.19901351695043326,0.3057307741250307,0.939594723915623,0.8277886046490005
1.1356178606898304,1.3547849134039807,0.7983190665296528,0.8328331560424216,3.4139541180602517,1.6543426430136523
1.019456476924876,0.5445061939674424,1.4555301460089405,0.7405600423279194,1.2609647662049255,0.39746329194776664
0.4793402083880199,0.7708231986916003,1.8436997789835385,2.646204251529088,0.03565830427623163,0.351823971134782
0.2967311531056136,2.2918708844049283,0.6491097494640736,0.28507076847125673,1.255513489239216,0.8958540568070987
0.9699314637494515,0.662575150170088,1.4244367367189212,1.2212182663177298,1.5857751814903305,0.276040865011176
1.5181106742273902,0.5816078698618151,0.8853385650299319,0.5947429455995779,1.9915909000488285,0.9081320120267429
1.1278030450485843,0.6112566501214739,0.8603010683384654,1.2872936242911597,1.529883450426545,0.38667284756606796
0.09972953000741354,1.207921265853141,0.546768369098739,1.1771487744785374,0.9452403862931992,0.31582954704835975
3.864701673018144,1.1669484488594173,0.829204552227973,0.7002924989915806,1.242769691304753,0.45392195670902397
1.753268090090203,0.11000156751776764,0.8721350717477594,0.4316830546136261,0.9441297924773623,1.0967627936595625
1.865928640048835,0.487953032891689,0.5404929164744369,0.9606158815152658,1.2602097246094484,0.805820816971278
0.7944364043775989,0.9006386249296109,0.5315675000450526,0.62703526027764,1.2957939492470387,0.2396341254937818
1.4856821655342063,0.8197255287144373,1.1147170705293667,0.8230123911776626,1.2596302156844223,0.3490571024985918
0.0650586856452279,1.0118968930436745,0.5666422075356766,0.4191044858511883,0.25920795569358596,0.40636302584498635
