Gx,Gy,Gz,Ax,Ay,Az
10.660302,14.565214000000001,10.803738,24.279999999999998,653.0020000000001,9.98
7.528884365936346,33.11210728835186,2.738001494264082,6.05874281962,1.8123933280747986,5.887935562342905
6.018260075975638,31.186133807245607,1.4631490359085244,1.9633380686522695,1.8394315542195019,1.6772231191184064
9.759260044757239,19.539341870440126,8.05934145916357,2.348839123143249,1.7952866921607238,3.576093305880521
14.481689068208816,9.122945231463301,3.43773469966893,0.5095467568703406,1.1529798276297318,4.6303487153412615
6.468020725534099,62.124874977996804,6.220692705737599,5.295689177698492,2.0746088164924457,1.5611863558641368
24.879300652086403,190.22052929150118,37.81699168304363,21.544572265704193,8.187104901013086,8.204353734053747
10.53064603652344,22.61904164003579,7.453026057111232,2.505142952006116,6.498042252181331,4.312881298162887
16.291291642563262,18.805328191151006,3.4968039390004435,2.879302270191672,9.593780447894254,7.407857453641984
11.939025622528165,56.502215747202385,9.414254286047978,5.091332175343898,10.747724401399328,6.517629526876855
26.91146615953029,35.72591504520016,3.853984720572696,1.1701869811760701,19.252993157443676,11.843382749703206
50.60693530868202,9.544746246182056,11.28596182137924,2.7475231373638294,47.88300236093322,30.85629250720316
30.28860151155109,55.043368017271504,7.430680993682643,11.616777749532044,55.03981837934037,36.79927102472029
9.000532302840265,19.11509070326713,6.3421819303032505,2.816398741853479,4.47234955580825,7.679516497303124
17.830050337214228,4.929444119178883,10.03086938440437,3.9880458541769337,11.789939222574134,8.999084131378646
8.275192770901942,33.955371485280644,13.423867963345335,6.1052620945672755,3.2225592383174577,3.2124090302907384
3.58287571295014,2.994463974790508,31.802277873761795,5.990149154286928,3.825020471538773,2.2738103424422698
3.2456837420945726,45.46232626970033,84.86923660696591,21.841148105779585,3.8412619450326524,10.073319244290767
3.797964949712939,46.625072148829716,50.55414177349381,14.602262536720604,5.838441203063694,2.2918912164636116
6.770255588610075,28.942638102347882,6.775450473509932,5.568545851537999,8.377443590795018,2.8455902393521413
7.237937393479442,27.74761570882706,7.787537674833301,6.6069571989758895,4.779800145463791,2.920792879894715
2.942676165043661,11.381891480639675,7.934101961462237,4.505423229845127,4.669781095401915,3.4035958899572143
3.1632802461286067,28.043786972755505,4.56746428142435,8.459587806954415,7.107705725428005,2.475512621484707
11.385605340365908,18.93557991184184,3.6494994808985735,1.8585838998603261,19.881660879471447,20.647808793736548
5.478969591791778,5.378295911180194,5.50776915746983,2.647800301546197,5.3801273475920075,5.585260886621016
12.451945432311728,19.927977620462734,4.49216287213046,8.196097922360188,3.755576909393947,6.275630083607155
3.4349948003107977,16.31290303717473,7.154229546287248,1.474929265167339,1.2269434752181896,0.7145160875220145
14.84512061095482,12.222410825150545,2.545491095735524,4.64279861748432,1.8803836140184471,2.4692785492482874
0.9879948997222331,14.444764150062346,3.824850137391589,5.574597484013611,4.194851330994853,0.5718276572197756
11.710439826108775,45.13906933809448,21.18720446768241,26.033104171644634,3.801031771193711,8.43647307762454
16.456525546001,14.646627031031569,6.330115454938303,3.118544836279393,1.0889876076167297,3.5907760619844944
6.390354885828439,7.3891014930005605,4.32791041094345,2.0418435021683363,5.016384039208846,1.0554608417969107
7.720086075015801,10.769664247867144,4.897800913657811,3.335494474707964,4.657851088246401,6.4742298661388675
4.557259396667747,16.570877466719296,8.529874261957012,5.450618699697528,7.810513311804707,2.441764892170852
7.762629001070434,5.083063840659043,3.3358447054392473,1.6034846182997389,8.733914658145165,7.4989072032407575
22.311637372944542,6.732413466475654,11.544477998397907,9.641932035669345,18.657592810636757,18.35101332832341
9.090860364563579,7.311264082142174,3.8349837396611197,7.150627621196764,4.863339649260087,6.081779997119723
3.757224095263325,4.980906322298143,4.697789221952062,2.68569227069169,1.5824351634339229,6.749196789134579
1.9314722260303465,4.264449080570848,2.6774795455207827,5.850203082027008,2.7844837829835933,2.68443872388392
8.399910883939008,2.056881301398633,3.3864146238947965,3.2755844383606556,3.170424671511874,6.104838264713291
9.851112052292457,15.912743093481971,11.729530136052052,9.202479231713284,3.1688330864186205,5.841856713209339
6.63853389487216,15.5607732318597,8.93129609893391,2.93738518307566,1.28698128162754,6.80811630181039
3.8460800348963375,14.623893609137905,8.540278943544921,8.447852678531913,5.289361973306937,5.339455019780495
3.2027307086679255,1.607464505914881,4.2215150061216296,0.939067615104305,4.413329854446989,3.903732358334207
2.684173550527047,10.602431418739199,3.2556279403600565,4.007933827527772,5.3457082192020176,5.393938974070721
4.3858950452255865,9.28820284480011,1.1578024826933386,16.17611052299327,3.3470277377734754,1.4422518836887233
3.2288445564236605,9.867726339853169,2.9295184624540322,3.0015072082655165,6.33219973090463,6.414527652711923
10.230359119334398,5.342223544264139,7.6987351769109384,1.8650501987932009,4.101982705066671,5.804588809474729
6.155862389727458,6.477292924930618,5.7304743599889845,5.735531967534803,1.2453614996336522,1.8727642836326381
3.5405392299997276,2.9757785073483816,2.7339998352844654,8.198539852901064,5.365411630247717,2.0950388698974414
4.637925042310487,1.9072988698745623,2.4903755339244267,1.2224319256680498,3.033412228353049,1.2282564810059282
2.2937035920756474,2.0141046528032938,0.30586476472791263,4.173712776526712,2.1369114655491375,2.4714118461417702
11.503917752432402,27.11251407117906,13.735519200645554,6.501986999116911,4.69933940412763,8.228406744009648
3.6315482064449576,7.308402353893464,4.764677897441049,3.4134254953346157,5.1744003914321155,4.325168551541876
5.050389987695851,5.752469907475216,0.9455214318841305,2.2572708502919845,8.300735886499156,5.093604008739222
13.912403920490545,4.55764114766732,5.448763812422396,3.734793973469506,6.464282883646993,4.490310116273646
4.5293369780545145,1.6145026331700012,3.395215638466236,2.393383865827771,2.2370282316732677,3.7040892045443705
0.8648094915302653,1.6761906586923612,3.727596286688864,1.422947338981413,3.8835360459178765,3.421653889909434
16.247967726886547,5.271939435849323,2.369110266892236,7.317777955074956,14.367595765486495,9.147677979071135
2.4354664336572553,6.028787603731323,1.4167259489585138,2.3944130552901277,7.1147032777382035,2.312847198111725
3.4723278016295245,2.939082980366349,0.7907979628274447,4.090117315866863,2.4080062773805917,1.8529476196252297
9.280545269807057,5.9841696830397035,3.9704014034453174,3.1753514369284006,3.607385495911975,1.4017695095819256
0.8393504193543065,0.657249928678579,2.823056063529143,1.9798277848720034,3.354084215770711,1.5064323895665526
3.074638667646899,2.546020577345834,4.161698462358279,6.57151289852503,2.200639815192834,1.4271529088140582
10.018389295955538,14.79534178861234,4.504346801216018,6.950604026657425,10.388095746774086,2.8182545895556363
5.9682854511648795,5.735304646503803,4.2794132952323505,2.3363805101478987,4.955511927594748,2.4502327876065175
1.8366243864499554,4.779689181339747,3.5231015686495692,2.2012294527082195,1.0276303943338307,0.1353648163741487
5.556968770060003,4.780454496908372,1.6548989029427752,1.4459932781252574,2.702571235325684,1.7621530950692912
10.311614624005049,2.072260046096993,2.0563111743781146,0.7009797423510046,3.081882038314895,1.975804218844683
2.461383690362544,4.27329489154553,1.3186379681448213,1.9610153384818634,10.153711509564015,2.4565082560894913
1.9566771182084208,10.881665175628932,2.7704921978939843,5.118697884188013,15.521955868390565,2.626520619778794
7.6764404950593095,4.1811544689347775,0.2223014138189422,4.393023075431924,2.07163492543131,0.42081043154179343
3.7690235964863192,2.649393451706001,1.8756551115439941,2.3197769850650225,3.810809965868109,0.8620314304219029
4.059115104045482,3.70890473656311,4.658024480644158,2.120300042803119,2.0086069005662566,0.4273559987124285
5.420566585972876,3.0828531451440235,3.2715910896594522,1.7646128051088708,1.1574316356446945,1.2946700792037944
7.68619316871631,6.725843260162769,9.30368276087054,5.487261860598797,2.5266377671710987,2.0180285325981377
10.103192686178684,5.770516322301066,10.631632722053563,4.9165199269962825,7.1421164493565135,2.564216845192507
1.323997206383444,0.3382029545156133,3.2646748364106006,1.6111358715272135,3.3483336250112044,1.0625949580025282
1.1716379042411658,0.8657185772223592,1.9341239205900664,1.287572531283851,3.84816884057591,1.8523356544450718
6.130861132072808,1.5248510692162804,1.96985558449319,1.146613042535228,3.862061929141811,1.3259976970628198
3.1435613538249196,1.4188201351020466,2.133305803269498,1.4767859542867492,2.579717574522373,1.228350772750813
2.3393698786730144,1.0824210482270646,1.6115162744804667,0.46851486276494536,7.813774486881261,2.675485549358267
5.78780120457744,6.84750125858954,2.777404558705354,1.5665368486207365,4.535966556812411,1.672230452102762
4.039665884207758,4.223530589752282,3.56990481702158,2.7067597402359076,3.06774920909607,0.3940447934384876
5.095924387116874,5.928588394728987,3.2177325961561145,2.9280729657048603,1.9154461263756044,0.33737225641751534
3.420403873423671,3.1830934962636857,2.047038301887849,1.7607953543832733,0.882424345319335,1.5389573812658373
1.010011354938321,2.8029339788239516,3.0364802686905565,1.7620628301848449,0.1412895870486889,0.43059408967078777
8.44410650385355,4.770033614452404,7.3773540789750625,2.375565088921916,2.5404690990674257,1.2388431451346396
4.681903226168259,2.716913242926586,3.0357846626049736,0.3981458057799829,0.8772839798899361,0.3388499472071267
3.0039415456230283,2.6220989927266616,2.0850290152804254,0.5628205212267319,2.4904630376806627,0.6634002438616111
2.168799706446332,0.35077320462953904,1.6889748511599858,0.6075714349879257,2.0688522177267963,0.5150171887568219
2.297155079910381,4.255014840895406,0.8123532514424059,0.8194676446592706,2.697905855992381,1.7817898603000706
1.7707091516231406,3.222573003036832,1.5904379000563276,0.5091959825508082,2.171762506530654,1.9403530341455777
8.29017371678295,3.618478719660503,3.2239637024808023,1.8629273015823211,4.238976610741944,3.6193404883018947
3.346390615035207,1.7065817601522348,1.7521584321288863,0.5205476111184919,0.7459756287361327,1.448987396894569
2.775910835160107,1.4843854171586226,1.654069449742703,1.1989466326613285,1.8673520396420826,0.27811494093419137
2.3167028217893617,0.5476923006586296,2.9751403156668763,1.5022489054270478,1.32358856549138,0.45571026642586265
1.4438465502025688,1.8307093789001276,0.9217543534712992,1.0884441371739475,0.6955195859273976,1.4002626571601051
3.834036489189174,2.5105058490783647,1.880407661186738,0.9834128911678586,2.651502533068529,1.5340413327675682
