Gx,Gy,Gz,Ax,Ay,Az
2.8793919999999997,8.595148000000002,2.1186789999999984,19.708,611.3439999999999,163.09799999999998
3.794067533843836,12.011896528420012,2.0066769730360017,1.9323829022924774,1.2690820000239693,1.4566149852026997
2.6526279956209513,14.76428214673103,2.837719059258592,2.2650614278927415,1.5312975523990553,2.921487523969161
2.1783002491830143,21.02095696589523,7.697536782494998,2.0403949468166314,1.1934156318546614,1.039409370492231
6.08662975553903,4.090509491036677,2.998165970964594,0.9683354154949718,2.014509261308952,2.707240953389847
5.589678092552182,1.3553592151520335,10.530353805080123,1.2011320861413364,0.7610801536963031,3.7017563353103835
31.82131657439836,126.62599988755137,94.20439448673706,14.158590200789993,2.9066188286978036,4.721250817200769
6.61485907464609,10.939577616197573,11.841603637496204,1.614943335571815,1.9766530593666336,2.645986850369932
11.166135054131109,3.376354720342055,4.198708060755999,2.074871906399805,2.4469102637576445,3.806333115069771
4.805045771350677,3.6170169782152546,4.782493303187974,0.5844469058325841,5.412659660234698,4.020412402924416
8.492640070735172,3.272715404432506,1.7984485370386019,2.6621887798336505,4.000826385984758,2.801200260721001
17.106425796104283,8.007211391758768,12.453213273740591,2.4203810573475937,6.771764301160614,9.872920916589448
24.024017412711245,26.76786683150316,29.15131204761809,6.335720246405322,44.76265713998908,58.56423273966392
1.457404610137964,0.9416108123854571,7.718311130963853,0.8294640677852907,11.292374186503894,10.004194031805223
1.7149241170109883,9.172129747248961,2.878453942921298,4.073263348048305,6.690496135418926,2.787264610013787
3.8839718217434247,5.405643627299673,12.409699331294693,1.0006405401385583,3.2129746948123006,0.4683542322049925
8.997167937048747,7.720786394275115,10.22830006217715,1.7477324714480669,5.957507761796843,3.088345896765024
12.953783741202693,22.223037951372074,16.30860370160986,10.45072321222929,8.184085836128103,1.5614175312202847
21.47959692797919,115.17507106952579,101.50713024642498,38.61627714694813,13.148901987403958,10.465053109363426
4.014690291945068,34.471262866476025,23.92779740574605,12.557909912351482,6.251727579082982,1.5762551665921218
3.8934962657831074,23.859145960789245,12.27396152032051,9.271301522519215,6.148393923433848,0.19888025261581396
6.153084208876349,14.118572756576066,12.834653821206665,3.4650152288400675,7.87768145458375,6.555136796155416
2.011125182487008,23.52802261135053,8.467189429995022,8.498411246359106,1.007070594050532,2.417195426910213
7.812561508308468,8.44467322104388,1.6553918939092704,4.8712189959562275,5.1433103372821085,7.267527943892497
6.660770286644134,23.277416001290746,6.708916306090788,8.015498639779226,9.388008279593636,21.890388497097067
6.6848418850907185,14.423244264509194,5.077741583371525,8.808177803487359,6.178641496087228,3.7754766627427356
7.062955871268901,8.911454489884246,6.423006745310639,6.7859719718561955,5.777629908714131,2.1769699217051497
3.8707501532814934,13.117317821030415,7.589454947984851,6.534325323111059,0.2772466356398847,1.0472460194252668
5.531845202912919,11.452129551770385,1.0495636656492866,4.16745176034496,1.6802976577044886,1.7403524785428135
11.106674148867116,39.55633011658543,8.567828390537342,21.920566939041404,2.784726508482993,2.2703728774980196
18.661397256959322,109.8038286945966,28.12313111580174,59.88356584130982,2.122358204694453,13.815793749524538
5.569577510353084,27.209328019222784,7.162232008355784,15.609929739356627,3.7872966133231794,4.9511806331054045
1.1172537183219176,32.18068361346192,13.418691905799285,19.477363361532735,5.615785386637967,4.393208075224739
4.124345675157844,8.295355321355714,6.48982135072091,3.655904315381799,3.7456055297919097,4.353882160016883
5.154000873729751,5.972073082486651,5.192387370362352,3.132860236872448,4.707957366132386,4.935911911658811
9.503604980029733,9.301387071561354,6.685933615366444,7.911057282911426,15.619898822477962,5.65996471082404
21.11841035451259,3.9306911378647564,7.689682574732675,5.474388576555756,26.84302328182696,5.9010631020077176
7.481035932040024,14.945066011640602,14.649730255981957,8.17291154243685,10.250854837652602,3.9230244497697098
4.135783027498173,5.326375471390857,5.5437638249258505,1.5311838490562901,7.928109572100605,2.3046143381274793
6.745231346707666,9.534458296028173,7.78774443566155,8.075378687899343,2.5108073516635736,1.7117217623251146
3.090901500393387,5.065580306091617,0.8915265206565269,7.4043781038249925,2.373342979172973,3.5846805115021354
6.40249219942802,11.743555025768355,11.447273331614298,8.160933709215533,10.486346051687688,1.860643167104212
1.347891485805219,20.90750600911669,14.728197902283743,19.06119304917234,6.270662291651751,6.467652021688695
3.140170130681494,10.065217406407292,8.68592953235384,9.793761617922364,7.316534530193571,3.957812806346837
2.0041261322959985,6.507305271491124,9.281876040511321,7.153217417135589,5.656243599296172,1.6326054160792105
4.334005949361869,5.897500883380026,3.021824121832837,5.345292875491057,1.4842471812760543,5.74589275695989
3.9653293802163807,2.2073959487091743,6.741684371426373,1.8142842351109099,3.719005989653566,4.094986236724753
8.486780467029272,9.438061790261695,5.848945864078922,5.012193113210992,8.463203505125612,2.921547394853631
10.153550244351324,4.033856950653377,8.433341274099428,6.597867509324579,14.793343084797975,5.091543606875266
6.423415707041883,5.935922961362393,9.570003594035107,2.3585274730125216,8.562154364690258,1.922712338856047
2.2273056409649623,4.219810024434377,5.43794916952455,4.151062405747284,6.086660271915554,2.0324891177881814
6.674794662499528,6.466386571648894,4.360548721570454,6.637837877123955,4.340337315748591,2.7259634364373984
2.0966857073307144,5.914973752456048,4.102148338286579,8.547653534958608,4.257805574995686,1.6437680947240971
9.05091407266384,3.0407671348967056,8.472765085037251,8.281931768916166,6.909557380660273,2.1597127057984364
9.442804931196715,9.46028242601619,12.69603482715847,17.353354278663637,4.357666314503527,1.6510071960318318
13.23452083527748,4.339189173854157,7.188070464336775,9.432179154054975,6.642993531015281,0.6709312226761388
6.259936258022439,2.060537887528178,6.849808079096321,7.84507155746187,4.248756407140242,2.888031348464695
8.560472785443423,1.86846453890724,3.2893642247215613,4.696605733967103,3.5697681728930837,2.358914053436743
5.808443941299467,3.310943325492193,0.4986549313108805,3.8676199819877586,7.117462398471698,0.5321427996919997
12.278883120903457,3.0752647610524604,4.58580260772114,3.946685678334428,12.953372487247586,2.648539899109837
9.171962937938002,2.985157565251726,7.19218908995758,5.559252405257996,9.541267698030637,1.744952366250172
6.350201141161007,3.1181820255371,5.586017198333912,3.395515977306526,10.07263039957252,2.363733735574026
8.738277027352925,0.8417063761405829,5.366887208834203,1.7011968895233496,8.17053612770796,0.7461795372965381
1.4174920899223697,3.0537901396107867,3.001944438419152,1.427077843852949,1.3981590066995837,2.1489743513684725
7.17377756133308,4.0610377788818575,5.131586592183817,4.725326084873075,4.702570014106887,0.4971890460756699
10.281966725866598,3.6733054044420586,4.954464761665158,5.070419238517604,11.191222239097929,2.9937280417644048
11.240541194071353,6.912908397097267,11.147689193288349,6.6853959773387475,9.468202174381002,2.9041377616741086
7.49024292527935,3.926555511932024,4.352318151147421,8.023094443273589,8.426642295408953,3.639217960439699
8.908238761680845,5.020199632027227,5.583923409423627,6.463154409977975,1.5754298168152339,0.9122926662747237
6.170317152943671,1.7431786514442749,4.744018004388794,0.9603138912059248,5.185329558994561,1.1923491102979518
7.834020341025297,1.171337196843001,1.9971852384224376,4.220981418689285,9.147660578161325,3.5968986272966683
7.4804772504181445,1.6586868901023644,1.8548784137197312,2.414594782797121,10.450421275298204,3.845475586276405
2.0438125202458313,1.2425623081179091,2.856236961063552,3.6542482218494916,9.602326791929329,3.120645208346231
3.273410152347931,3.2447086304093773,3.457565264075479,2.986399536832891,5.867560771827415,2.7177190647161944
2.688289294561414,2.950371583443969,2.006364069156301,2.120923150660985,6.7509947325881505,3.056829958219746
0.9585561464268048,0.7391701069548547,1.4650852470162763,1.6622544727896318,1.8907448490603316,0.7049060560419815
9.371628244979844,3.320516572685405,2.2670355319865254,3.647421640133985,7.212973558680816,1.8854648345471745
6.457384211192372,4.019084496972715,2.4729559203621463,5.078505262341844,6.435043437815044,4.08345912263416
7.728167905121697,4.693373327222773,4.153844323689017,4.595509993269022,4.391720755864107,4.270034225543132
4.775806422763187,0.6383114688882373,2.990131579218098,4.063654114067293,4.901112815064185,2.7515076939808996
9.279504170178386,3.13680741698604,2.999501016799784,4.696117053133169,4.652098869526904,1.4306934998119214
3.438601460001603,1.4264058298236972,1.741779395233713,0.9023989695865051,1.6068743830488739,1.0417484561897283
4.701908458051323,2.7796967371495085,3.268002457428482,3.5807138383327213,4.524416991274805,3.461270763423598
10.522327697834578,0.6125140171939333,1.081572961766116,1.4189827954543615,8.855365224126972,6.571022395244281
4.545899956276629,2.552123727853213,3.350749988399435,3.9518859647281874,6.092810358131795,4.458540845960703
2.2648647789663974,1.390275808064118,1.344678606477435,1.6753465202559608,4.804594583522741,2.5862659066558242
4.6903897174129625,1.8854402792920428,2.0958734941717863,1.8874708852492166,5.639716750400053,3.2309916322757184
4.268987481561058,2.371103679944753,1.9895970847124342,1.2956345588167915,1.618922622852167,0.851541740194858
6.6370760714267965,1.2129565191014038,2.407458003948419,2.697030062756666,6.757008593694582,4.9043397076653665
6.1196867725076665,1.4642547169104376,2.4959883586000355,3.262061252706868,2.7241395728532116,1.334796869366032
7.298650108616568,3.8854157827344196,2.359343261680496,4.387704928483905,1.3196797410585772,4.625683266398476
2.3483267456982246,1.4525019177005443,1.8587179187561709,2.96840117061329,0.5984273266558304,1.5820555814809383
4.925811144066351,2.4869138361975534,2.167657716663376,4.177603336632647,2.766964206641844,1.2518172358246926
6.595340234399043,1.221080743137654,2.0856355668056987,2.9223840139291744,2.727222697803037,1.411079343484781
6.933512469166277,2.557812894244983,1.4967719693985257,3.8960483437394493,3.432936399115006,1.8215895791117638
6.918451974872526,1.3195426591151478,2.331178598149776,0.6272933212772561,5.879371519369507,5.645081782202678
4.4237076796867925,2.6132659442714683,1.932679373485872,3.5063692012388348,1.868128284443269,2.7861531792170195
1.567477192882715,0.19533795777517282,1.1735797413281897,1.3119869088107086,1.7771948425646955,2.497438915120125
1.6226163061924577,1.9718468678843146,0.079084961973773,2.3627312935601887,4.740785443699159,3.4550856755357344
