Gx,Gy,Gz,Ax,Ay,Az
1.922133,10.97291,3.981381000000001,44.06799999999999,372.69199999999995,61.02600000000002
2.941104492416098,14.446605683924714,3.22033937394377,4.641547562011388,0.8000544370059699,1.6632074087324045
4.627173080945952,21.702761593758446,0.4284009103456341,4.12501221122448,0.9143159725679184,2.1817767250931337
5.660684553048528,39.22495265623895,17.561894804554754,6.573301802980355,1.1723147353751775,3.662013583714263
13.910966222677974,39.15882376002115,18.8816033414462,7.688845866069767,4.066911278228436,1.5367245188461467
5.912066712422343,28.232494645700715,6.534381950321863,4.378902398581831,3.4371001134443033,2.4875861359529647
10.25341290370455,15.899072928195409,8.290106563806855,2.180913698547482,8.643092962411105,8.32612342826955
36.52254222406406,27.952491538760103,11.857333965598595,10.708153400608033,52.19932110688513,40.58864878830359
3.7952519906667934,11.43381800412761,8.774196065700533,3.126393750396708,4.880135964913622,2.493169639955894
4.086098787940881,13.249105341424778,19.58528274184466,3.5553057017423058,5.420592365745974,0.6299918056693775
1.536405776127749,27.01326397888444,33.481487361206334,8.270679672595424,2.6455850987678304,3.561965745779353
9.013833879568015,60.31623996306703,44.48097982426694,14.359745122578968,4.075651336814256,3.141033192970634
9.052642966857947,22.97707340963503,8.44540834545655,5.181301140434013,1.2131171303161419,1.9065861403342232
3.1465693625251183,21.330084459687356,9.35933829819072,5.477300924679753,6.53933014565488,5.055282912859486
8.758312191797357,14.651335803841603,3.2547483750027975,10.171857179862386,8.380540037571993,24.686320556904363
8.054094313655808,21.783080986411353,5.434183653315091,7.409226428339005,3.576653200392142,1.5272093042778292
0.3200535492253101,11.78702812959692,8.765590555826538,8.645181335088756,1.7985729253199283,1.1237516688280937
7.784426576701004,35.7154489385467,11.737208082882162,18.27122702150587,3.3636136822751603,2.658686903376934
13.701252515589278,26.5320182228283,4.3185054771512705,18.11824250162635,3.9933690273373057,1.4974040551323071
4.171339499657806,3.622938397380158,2.935360862694588,1.3814744054606176,3.5828838555645675,2.1050198603504398
8.541048134257496,10.430972964059968,5.469685996544595,5.499012488710015,2.6077781181126753,4.233512917442513
8.045983148499584,17.2860334398226,4.648105510361344,9.067112462126136,11.97835488057521,16.7643742423562
7.268151935418444,12.123202004997976,2.551893368940781,5.42791198490141,2.2884667669627117,2.378344479634477
7.368859475220152,10.599815036868186,2.6176631225203097,2.7459416108881407,4.7822538439407625,1.5027807035919214
6.165109370068975,18.82448340633806,3.8244621672602466,12.555998976630544,2.5971882862639895,1.2351860311963756
7.12788606518428,26.700867994177155,3.6323115814593137,23.577643966035865,5.564008554620132,2.6179715288017755
5.36269683041907,4.277682199879959,9.428503188807323,5.777415406550577,6.406999295583211,4.350714958388225
10.38861727653263,9.510711339624242,1.1042275778403028,11.799556406439093,7.098296081321692,5.352393661457926
3.922445199730153,15.052266359274336,2.2322668150778755,14.680467183080529,7.092206213505705,11.30227487365219
6.427279580392162,8.066662422802928,2.423668082384143,7.0363811337293205,2.982339129648269,2.558187519896068
7.7866111961393365,7.464040502673739,6.231267483377832,10.211848454020274,4.541394378898226,0.5735075432107836
6.197344075318367,9.703559531367668,0.808016713014235,7.42597857712866,7.722301520351699,1.0848139116163824
6.822066310003724,18.116845123827343,4.768134360029863,22.36688196383358,1.4970651653602856,1.1152829361059018
9.419794547502319,5.841438773768024,2.0553144608098184,3.0841149281243503,10.07939344440814,3.3840440964955976
8.737833164457742,7.185387068414027,1.6630413450182366,7.3026146355431125,3.7284352009134176,4.461660720369946
16.086922570596062,4.507479812576094,2.7329341413514747,5.125508127969287,5.343532895320921,7.850696365429893
4.385404594265788,7.02433971127808,3.994819666457527,6.946612424549252,3.8272634221339854,1.8573984291056145
7.153880120744988,4.662321933735103,2.6031962654053546,6.904170420860502,1.2804558181445296,1.5498191127530863
6.721694234957503,2.502187561729678,1.2274465862854007,2.63042743422979,3.7115435554289227,0.30604378776485747
3.3793517965728603,4.76635658886639,2.922536367879398,15.358389582615153,1.4045633080446625,0.24386219534042275
12.391322942361526,1.772249116529365,3.342123058090786,2.851864836939393,6.767638662732404,3.3239941107092497
9.913608724725961,1.7282242121262483,3.3893341592697155,2.4553173928876264,4.357078036264913,2.8627328709692974
14.942046757196302,0.5376563462987558,1.8209073886476326,1.6858901132452504,8.035186733076207,4.462283810562464
6.091901802540602,2.933975538151758,1.230991476980612,5.301376429796918,4.172421908056667,1.2557673663632765
9.254357026814729,4.8452066959944595,1.2748133950078961,6.141097854386054,1.9953574746531786,1.6011511428174263
7.71899749332676,3.216480894994031,1.6211202261764102,1.9678735601080015,2.353545651705418,1.0312150913838403
2.7774472643103807,1.9281980768092675,1.2403340094604158,6.595185690618203,0.9694568305409892,1.8524206533611658
10.573988958763222,0.9015211033798017,3.7372457465246254,0.8814338572643736,3.138179865868971,1.1105637266110413
6.194141322094722,0.9820141464122467,1.6718925731367618,3.3410868283803317,0.8582211228280818,1.5635266807472563
8.045397548608726,2.6139933348906004,1.6832943031093244,2.019386343156285,2.2883426072658897,2.5692039465344214
8.184575391787998,3.2104979142054657,2.5065491245705886,2.6113867040489507,0.9218015717239191,2.922208713884104
6.83008968415494,1.3315567385781744,1.6108517428218867,2.5768015891812284,1.9261365024486703,2.7664609419958346
3.6051834166638077,0.7321386778052394,2.319268705972745,0.40644835732889784,2.2967379815844065,0.3869221738379984
1.7026357648074324,1.928580936489082,1.3520537733098215,1.9891578214732164,0.5024729752210934,1.4606572627191698
6.60207702327891,1.3467492874865423,1.8257279069884844,1.7125469627748215,1.3868800535390682,0.09905370762675997
1.104706321750491,1.4285950735146842,0.5576492158721438,1.62253401811057,0.8923572575458656,1.1353447033825854
2.9799680675056885,2.0242710043291514,0.504551432420837,1.7131178870324801,0.3939945714050876,1.8389889127994146
5.902249767057612,0.8183275164422494,1.3621316529194882,0.37293759317305875,1.2598049864114869,1.769693832935684
4.664736424646625,0.21588894961163604,1.0502779168122365,1.6820506728031905,2.6751604454346896,2.012797820050607
1.9647423591494237,1.6964686078542537,1.5455057643368477,0.9918329730745032,1.7114623712925996,0.7080556609652275
1.4119131745373574,2.3184947850080007,1.4046823845833627,0.43299111776662874,1.2951599403146643,0.6998883139293626
2.384660034193961,2.2625105764239186,0.6638524307072294,0.9680051268948832,1.233517713030359,0.4439647488999114
3.5353224916401347,1.387524042031494,0.583490197353152,0.5994980184800259,2.3770932804524882,0.8135956083222223
2.0996886022149823,0.5659388188480698,0.8477436328385001,0.749912590839475,1.6621699485002897,1.418130855235822
2.429583262320124,1.549877317157938,1.060674064205274,1.5486919982917287,0.6682818545325003,0.5244659100576614
0.5681371240853761,2.4821375092903057,0.9041891650346847,2.0204403091171117,0.8653470751127147,1.902940905650521
0.7318954498302519,1.2679489109000168,0.3426296109582551,0.7253513856151422,1.471783182430621,0.8526500831172154
0.7999438165139776,1.6074726525267202,1.1353634537632762,0.82566175967665,0.5579945085598761,0.3067812959145621
1.6288104606274476,0.48720105955555015,1.045768705090471,1.0983540578424917,0.17458627039388763,0.24399470188109074
3.4156472146103374,1.9683314361908852,0.4244433091515381,0.2188278145612881,1.1278794984429934,0.29157013372016055
0.7491525678441258,1.5381983380700852,0.990448475569309,0.867304749292176,1.201518780631164,1.0274634300840937
2.656872867783193,1.8283453549203066,0.7315983188543872,0.999352348572642,0.5090361362695901,0.15087468747058122
1.6264767474596538,1.0573550423737552,0.5546708347265941,0.8059199449775677,1.0201117357220113,1.1812946543996234
1.0426963277157375,1.1666660423986974,0.4856066056192194,0.7879362671059971,1.1215501238330046,0.7237000804589367
0.408879176162832,1.8286058853604126,0.10625097612676701,0.68569878695694,0.3862677818423683,0.18543845176198354
1.769069258384074,1.354565234218965,1.665640092225254,0.779447855495588,0.6665429626565162,0.5872090617546775
1.476835239101622,1.5268756856836998,0.9328987153718962,0.7108555257318111,1.2221056112924227,0.4077170083338874
1.2967579891199712,1.8353349933424694,1.397915759637011,0.03507836990040204,0.7244149821898461,0.9321425954262312
1.412764379787705,0.8516337235715027,0.5803793131148232,0.43389367615930324,0.706836972637847,0.19485137047620368
1.2621839834855046,0.6723597370545225,0.16680816983780303,0.9030213068541844,0.8022637799885485,0.5092933956042476
2.3996312741192503,1.511592175504552,0.5709569314610639,0.34594661988331676,1.5813732485491623,0.5171912694126659
1.0056289111485703,0.51734716157739,0.5091708811265997,0.27581692106794703,0.9009589382946939,0.53492899010931
1.8870959885845542,0.6464566060319992,1.3357224474789402,0.6491270982473506,1.0939605410406636,0.6526069984121936
0.9361223713954571,0.40783286944973074,0.9116475099904353,0.11089300968109042,1.0271190578737714,0.1912749909009738
0.7938083030687676,2.001887727674138,0.661548621921809,0.5728625627963847,0.8613571668151441,0.41536866589705934
1.6570113187632585,1.6898479374136846,0.8146061196278397,0.4975145854430903,1.8573766532180658,0.3135820402689643
0.789926567341267,2.036998756822882,0.6899889544583939,0.8714822146237721,0.8398627818481169,0.3316082803142001
1.3604472708848678,0.8555044608297868,0.5892961966988721,0.15853731499084145,1.692019805176829,0.5288583098443752
1.928443270235471,1.7676721403601794,0.41016287782174554,0.661036634119502,0.559851205808466,0.43099056054834317
1.4572062412702504,0.9720008548350687,1.047215672308921,0.740774247439618,0.5724773886253475,0.7591740226251389
1.9118638241641903,1.7539751923566296,0.6832467701801791,0.5018786296537564,0.27346174629552805,0.48588596938947537
0.0,0.0,0.0,0.0,0.0,0.0
0.0,0.0,0.0,0.0,0.0,0.0
0.0,0.0,0.0,0.0,0.0,0.0
0.0,0.0,0.0,0.0,0.0,0.0
0.0,0.0,0.0,0.0,0.0,0.0
0.0,0.0,0.0,0.0,0.0,0.0
0.0,0.0,0.0,0.0,0.0,0.0
0.0,0.0,0.0,0.0,0.0,0.0
0.0,0.0,0.0,0.0,0.0,0.0
0.0,0.0,0.0,0.0,0.0,0.0
0.0,0.0,0.0,0.0,0.0,0.0
0.0,0.0,0.0,0.0,0.0,0.0
0.0,0.0,0.0,0.0,0.0,0.0
0.0,0.0,0.0,0.0,0.0,0.0
0.0,0.0,0.0,0.0,0.0,0.0
0.0,0.0,0.0,0.0,0.0,0.0
0.0,0.0,0.0,0.0,0.0,0.0
0.0,0.0,0.0,0.0,0.0,0.0
0.0,0.0,0.0,0.0,0.0,0.0
0.0,0.0,0.0,0.0,0.0,0.0
0.0,0.0,0.0,0.0,0.0,0.0
0.0,0.0,0.0,0.0,0.0,0.0
0.0,0.0,0.0,0.0,0.0,0.0
0.0,0.0,0.0,0.0,0.0,0.0
0.0,0.0,0.0,0.0,0.0,0.0
0.0,0.0,0.0,0.0,0.0,0.0
0.0,0.0,0.0,0.0,0.0,0.0
0.0,0.0,0.0,0.0,0.0,0.0
0.0,0.0,0.0,0.0,0.0,0.0
