Gx,Gy,Gz,Ax,Ay,Az
14.910677999999997,31.310243000000003,12.690417999999998,2.347999999999999,576.814,89.582
6.130695672164983,38.212251911413155,8.692295992451383,2.9535545943423314,3.153045516215161,2.0575003580384306
4.79741747078159,34.97750108866898,5.965232809382868,3.793467191224973,2.1817951316820126,3.6596857428653324
7.8865599378861555,39.307940395242404,2.0263328139419343,6.731183080341666,2.1892601039160557,1.596906705955529
21.964385275296518,22.198572482390876,3.7608493178370734,1.5027399660682745,2.9523943075761787,8.465881936927524
14.136907839346199,43.882985687276324,0.9308541404580851,4.316744819017496,3.207109985614109,7.890195544846591
34.84867722222155,142.34689014412987,81.41282287659742,12.773749569790857,4.95034430958995,4.486164196560595
16.082509873875463,58.83862921760989,17.720892476763915,5.887374046039788,5.260280622756308,4.471902385658314
22.592552900028586,50.23771033633943,8.130396180388331,4.137626925972707,7.738686474143485,4.157580563034134
18.498041501113367,28.18607861836775,4.079766151493651,1.5570849821729376,12.425807721843855,5.870284663740986
18.299019714261902,49.17102703210711,13.715965746254504,6.31570352190806,11.747762393344562,0.9765151300483759
13.415919077095857,6.257812558333687,2.5730917181707014,4.187090410896233,7.002436357709331,6.663174218149991
97.57263896171797,17.57083439959589,18.01027784675205,15.695810595173779,123.25488375702336,89.20559421886159
18.914820064913794,3.3190572554235516,11.83011475999656,1.4699859207434678,18.581875712606323,10.86128849275861
16.248592474526372,21.92584377158582,18.161564097269665,3.88096955953317,4.043330761979093,7.845424342149029
8.056353389277549,37.88135970706935,8.805814160980349,5.224250075351404,7.321721138363927,9.543440795863935
18.563980242202373,14.579571589756016,14.447461496315661,6.113253921469195,7.085004060934807,11.424023994558171
10.975972229244194,24.270707020993562,24.951357268140008,7.403918322950764,12.553221419650436,10.11143593406108
128.33834945491031,145.48431749887246,131.30673230978695,46.321933837839936,26.04891382538337,17.165744498476123
44.70212974254629,62.74999843714985,22.781599867064074,20.508564261098577,11.715956704176222,7.891863597263257
7.546996749986726,11.870252061485779,12.910000820365795,4.501321475121971,11.098462764853137,8.037203334599761
16.448350784563008,6.692264251056254,16.201824541847465,4.039100700998758,23.00178622989517,7.415570747697165
14.597430157752978,11.541961022033965,8.268368429135828,3.4586645181186872,10.426844243738113,5.030765908057335
25.77913838712466,25.867966257016644,10.338808298463151,11.46702237132846,8.253840813999032,8.465909124255258
82.41548394585874,41.04245269742079,6.090649420575544,8.63950422988912,13.541296454195573,55.4097256423052
32.49453626348337,39.67902188890014,16.63254995736574,7.531073021188504,9.78130811820093,20.736198832407517
6.7275323590102785,32.860998676644925,15.389908159507812,8.56164748375048,5.6252423505854,5.367144912940719
31.81239100698807,49.007381174998216,8.123861457607903,19.891291146303118,5.346427475687627,13.236825801600041
6.004603883190217,28.894777776261048,1.1343372730791024,8.748927161992691,5.321315544606225,5.3635634854764405
31.15822639247029,20.615384033600513,15.6909894353312,11.82857930678397,6.234859617031339,4.779388141833967
22.698748131373293,99.56442006209798,30.294750338375888,55.40553677190409,11.379885715456473,8.192940164388146
17.16137403389588,26.11007750935673,24.12001638128653,22.292839445990374,8.520861980290949,8.82225818961676
19.949023941241656,2.0285039581139777,17.952750167859953,13.014024014759656,5.337367387128113,7.7337591169917905
15.702552821633368,33.926872673147955,5.771498926933544,17.42936533811431,12.302884377052882,6.044215079113112
18.269428449318433,9.827314200309255,2.005793733116517,6.523070563843018,2.831105206193914,1.2641234205621592
31.849976455450786,26.1078232712504,6.908998293326189,8.307941346014575,18.808864493152537,11.590584595659708
53.88588666741469,27.196000477970806,6.945509115100384,3.776349034909044,46.06061495319583,21.83633861969441
35.74969176381279,7.438126377473655,6.375313657621682,3.783649122624509,30.72112161726505,11.946179639144935
19.41580434225776,11.58640560229144,3.6516591700319205,4.661588615048817,9.26933991582527,3.7580519357285014
28.48278465774146,11.235068061100531,10.52816075373573,12.319745812165868,15.829976222930911,9.703694057494072
19.29267462531727,7.139265421143398,9.330532614342633,1.9917634708609775,9.6258195738821,4.67289714592778
16.768716458663206,11.336733721792122,16.993721215432437,11.152612275347456,8.013552429286484,5.121034435510866
21.418659075742177,40.906493769931764,12.304630144110874,39.36203735910664,11.788458000698565,4.971230283415667
16.291610203256077,15.29353124205501,17.13864061567736,20.61051184127453,13.533877998735509,7.706858134711821
10.021887901044343,11.28716741274418,19.02245463791353,10.52134885471137,2.840088311611588,4.392659161112711
14.457519014090483,10.965769502993542,15.018991159091069,14.008605702062919,16.100133861183807,7.065724052277029
12.60303423641971,17.23907370320756,3.1165637772373818,6.005213811443034,4.987580528813828,1.4681392709091377
14.890577762283925,11.418715084309648,9.101065558840183,5.298171234772433,10.560093511297659,8.135040033818663
33.004594843092434,5.180159429756772,9.61443994789397,3.3566401297292416,33.43197553299268,8.395041599058981
17.907650825978624,10.861985116883783,3.030534544343396,9.950166987386133,19.422922752090145,10.450739481733478
15.396110091179969,10.260802555386261,2.418096654696893,14.479378122167033,10.001993650164312,4.16939155780872
4.758458193170636,11.877611428525906,5.278794891744428,6.741764178386219,8.029726465986469,6.014784078259376
16.004402566569677,6.507321569858805,5.897062144619818,3.607602819194348,13.904919374534504,1.8121498784945047
20.983035566131434,1.9627607284537034,4.957613714479074,8.517864800133557,13.171794146045661,4.814039612443449
32.04448583757289,9.786239899382696,16.691236775653774,17.273439817809887,11.860253117331883,1.3744992176965627
22.907397747572798,20.736962030005763,9.31990859632276,18.174332717645278,17.366324927919337,4.982657847618428
17.323730070313545,3.1273509355573537,2.0745316994882392,9.943643547225143,16.341938793836025,6.735774182822063
1.5022376576501026,4.8142322728523625,10.67814754495261,5.066465709249181,20.841880626825795,9.893946531022044
17.082894732769134,6.484132288445291,7.918715757687357,3.9593538753032207,9.984740985951381,5.530840106873954
24.708786874468647,7.0236883707377915,5.787377876387305,6.949787946053476,17.64081258942959,8.634711846088777
29.35800225212606,7.829255129393788,4.961940166052127,6.286962370639591,32.212332250556166,10.885432740310273
21.893929330628588,10.168233196867062,5.861450469551592,3.1235783259261334,31.278923922952952,15.824877932159373
23.01191979593807,10.004080393991936,10.054406639718652,14.138434251311603,6.094301497311881,5.046462352573481
10.735657169392901,9.717303995714321,15.778121334921797,7.754112649463756,12.794864357767233,9.594813202937877
8.143181177564344,2.4370618398506636,6.105303857380474,1.7063132529285119,12.309623436593615,2.187878984185334
13.188080466058873,2.4490142237567567,10.214541702582258,4.577429365152747,13.340934242433063,5.2790026634522205
19.909699475911463,8.040463455025368,24.74135888643017,10.292867663489684,10.678710625148026,4.9007743419860015
34.7163250392261,14.290997962173794,20.82942824036104,15.567940151185669,10.300897320339711,4.185181773338754
15.32570068270449,7.50524185890092,3.9486394974211576,4.809474329325805,14.383172158246909,10.186000714702331
11.162957336326954,10.388973500368008,9.947107606767077,7.2892618008104835,8.697945498290299,9.719662344085778
17.582201655914172,2.5928995614353916,7.910409938828982,2.324787710421007,9.298751962002285,2.64771120424118
28.479405348229257,10.561527649844916,4.886918573597202,4.581371646167263,16.74014861887818,3.8575203520313113
26.274666417555327,4.523844489357652,3.769544628487719,5.128037167573474,18.294770141286747,6.679818367309796
28.94789602229712,16.381872777634513,7.525666073728005,1.1015086460211576,24.371553490920306,18.664946836189742
28.384844715771553,6.0407618562194845,12.628614539872826,9.018682362900872,6.831599613467519,4.993329426976872
13.34953925034125,7.912658435594874,11.529979110733905,5.07886176143547,8.149229826778297,7.905716427333728
2.6122994993420154,5.615354157032245,3.8364291634262355,0.6836591571304473,6.277601501772443,4.285951304117585
11.9105742622345,7.206395529422014,10.239725366313582,2.8539366022720136,13.031025335064644,4.618102863081646
11.705342113703407,4.9430043819298515,9.916209138262467,3.5686014552045227,6.4123957060929655,4.5598804852050225
36.57242963181247,10.591944027434181,17.35636034085029,10.156554140435464,9.707540729934548,6.46086022146638
12.9199958068696,4.355603515373486,6.826880260789593,2.275947945105109,11.042863624679066,9.419790929019966
4.703385172727436,5.493656028203698,5.350435663678214,4.9212507795820555,5.5378182252031145,8.3598178714568
3.6695429471906795,1.2113558054237974,4.745148201442464,2.816136151578407,6.787972092317219,1.017981418488601
19.753175397638685,7.257168210115524,4.107577170823842,3.6429057663149047,13.191564397081665,0.8948826972013614
8.499385193375119,7.377530365287409,5.064795485225682,3.3308843041514407,7.151608540240089,3.232224420209667
20.068371146860677,11.117514688444352,4.910300298590416,2.2076546698258723,12.621429510036748,14.92543141084324
21.616514216310307,12.226666362774026,6.790173066432097,7.615692097108582,7.286254029438223,4.153904661067065
8.467213227515108,9.231471872006543,3.869543975755552,2.576520417097373,2.603702812188833,3.796330913980339
3.7864865406479264,3.4256400790234847,2.7502797507497903,0.891308294689169,4.860940282736735,6.876344966730694
11.666107404072898,4.468334401267503,7.289904512609723,1.8479184036600147,7.347869144739106,2.358583366704315
8.279017157745056,3.826176458240719,4.278094224997127,2.711515370073004,1.4951116348745306,3.2193330277612073
27.633929874325283,14.684451041492087,9.241109566995199,8.137591803884618,10.806318097117236,6.866170795484105
8.37535555327468,6.6954934826734975,5.714260422975883,2.162738803074699,8.649816239954264,7.853322673660754
3.3640191659670866,3.7470568310752768,4.2827125468166605,1.723747911265703,4.609130433604076,5.835317649359424
4.204712980663062,5.3896477746000455,2.492684166544082,3.352206874935984,2.923218888202892,3.606031150143591
14.469634554325532,2.418221219367228,1.8262310877297336,2.998894813491978,9.79998711737815,2.367284154785654
1.962914285483315,6.935970660662541,2.7212332537253556,0.8626741195785874,2.643288444526691,2.7074306239585777
7.794669917701505,10.967393675497267,4.563227457043011,0.4177900298905391,7.545670625568037,10.222849317170452
19.175334236840673,10.122669787690665,3.8969832962077593,5.1534385296264915,5.916169702289868,3.0429324197810947
