Gx,Gy,Gz,Ax,Ay,Az
18.817911000000002,5.182793,6.928677999999994,17.160000000000004,539.154,97.83800000000001
9.881868013203734,9.886501403788522,0.8011555981506825,4.128048110050729,2.772379323108449,4.031135919118553
13.433505456787605,18.153356204722016,3.581526303242605,4.308283306840113,2.930042553380804,4.018067715951556
12.740857034646389,15.736862276135248,4.466644569415078,4.918703584163317,3.4026608626489736,2.9311013563972215
14.451436622386671,23.417727033257087,13.166080057949733,2.667551027446909,5.496231756722231,2.1526087533639857
20.468144762715777,99.3032935688758,51.850084878204356,6.124110658730534,5.4059205278623805,2.760656925829092
9.803766663267407,85.30809308828057,33.741962553399965,2.5051691149595343,5.227931711821084,2.0283130482685308
9.70598755398578,38.80376083937431,12.14291825814955,1.8193364795075642,8.200167561511385,3.7598465118131106
7.595024857522103,38.84851129895708,6.566393215015458,1.3808635615937814,10.452688326673805,4.344071238354293
1.7761885824709263,37.304583565163206,7.68884666393238,4.319123491424008,12.699508401552041,8.613710034740723
2.3486859426730926,23.055152945575706,8.816678423176489,1.8378639375052994,27.436146136587634,14.55770738508971
17.789614807087304,43.661620673164904,18.582655059155147,4.830285231784619,84.30132363731298,50.7063525485717
4.026933568827068,18.27796418316537,13.204233805466643,2.9807546638879967,12.057166228153422,10.492458843089187
5.88879457176615,9.549589627578587,11.168384571042271,0.6800976734314218,6.718092220405341,5.061392987478266
3.5098604580329478,11.699960956204583,9.324793026656701,4.039502099887983,3.821960906024858,3.9610634964375078
12.68952123677951,8.913868726963745,9.70268632790606,8.498953700185531,9.809627957705379,6.1317616203347605
24.20427804124289,102.8052551631543,68.48833488324374,44.08135084738467,7.356675867585025,2.647949336835767
1.2799174694994395,26.471392775652788,19.07463524342108,11.7890473872833,4.626859502774255,2.8824977766127726
4.699980626353204,21.207844507230437,4.841277883828898,7.028555662720326,5.900459112786307,2.288585317336465
1.3860633444073247,8.848213593194316,6.7259550737012805,4.0727909732061995,7.121971580948788,4.959627050988772
5.373410635691638,8.868972728756015,4.650163432577452,4.495414607166919,0.411725052803517,5.2142127781280365
6.202140872134162,18.03050923612651,1.655796014614304,3.937515102756059,7.1214190406633255,16.03197954249968
2.0702870054566986,9.90123942904786,3.2442258649057494,5.376930585166576,16.866591574303825,21.04949783726838
2.7010468735451196,16.3650029271509,3.8502120148841414,6.027612045453023,3.5963077137753654,5.999539798427378
1.971861363724543,11.982199726241484,3.5749042412546674,4.1194428832674514,6.042916416039972,3.907791867787493
3.3442253336393604,11.285758237579222,2.58097717238674,2.4711935140793564,3.170291235047336,1.9329437850573368
3.3637557043777075,14.550527032966034,3.580811368953432,5.451112248111709,2.3651348693451926,5.118642751715951
13.689012527815485,85.39167311304674,24.153251597273215,54.28640444670909,4.556160803953014,3.947912404110642
3.431219370050682,23.608705913012393,5.05782644883117,12.938402881910413,4.167552742988001,4.5475513879355365
3.0912716472982296,7.033856420568217,0.3080568859868831,3.1637839079271552,3.267980418048606,2.5686050204321305
4.184363015680418,13.494902606152396,2.9308060620574703,2.66208622521756,4.807566927075789,3.7226403964806343
8.531508400210303,4.394962646812437,1.763320740618935,6.949797051484603,9.503445988332867,3.932177797975283
25.654251420065346,12.352490553886678,2.509075378862259,1.3395072988261592,21.122974170531442,8.373132350718752
10.013465533304364,6.043109185578724,3.017228073231032,3.844537154662359,12.941072433085237,8.777978891092344
5.703910825076181,9.897001034071195,3.4875918238351873,7.0042048731270325,2.5057669486538456,2.9517027347116818
1.2843351210957092,3.0133003721779184,1.269443657026912,2.5015046968463106,2.1638298589553293,1.1913103291919136
5.764538850359075,9.068366977289243,0.34052058636197824,4.726543439656165,0.6720350666148965,0.3827121761057618
4.864540077532394,8.804082645598836,3.148532806731964,11.599123103399092,1.9727853817928722,2.282700900461148
4.470611792973748,21.56408950649714,5.194904828772581,23.726311341768138,7.47534240669427,7.19825810815864
7.771442481237784,4.512129324930205,1.3819539563501504,8.612937658634934,2.0544027075158997,2.2527541459936065
7.425138218137955,10.993448313910243,2.833227905366545,5.77824793301525,2.166875785246121,3.093172578870707
1.4955871590031304,4.756970207219657,3.582464893690135,2.819757220526219,2.350259138680961,2.0897147450441547
10.456275522727264,4.10658953903132,2.9447057308485887,6.706134238523899,13.810237914357389,4.70850923977636
21.45877844105298,10.179753250588169,3.1106746387078017,3.9248669811931145,34.22107897527705,8.907903347077031
9.150370128211025,4.510481251467428,4.40365998715151,2.181398012826438,12.803245132351018,4.193782775178972
8.385832844169743,8.548567064961123,3.8461469411977887,3.7694038571195287,7.080239343910334,1.1741302643830422
5.775221098058728,6.627348194977658,0.8691348446878937,4.320486871282923,5.049011905780471,1.7378061695655636
5.142777377550472,7.171367660228862,2.9584448461393253,2.534493852180139,5.394220358003429,1.8163257015873495
8.150210354914867,12.462311061220586,6.8099303472695585,9.522620549187335,2.3593070214997036,2.5475631104300414
9.34340275559717,2.0614900574060675,3.8596126805807702,7.272025074038273,2.689737328502573,3.0395545631785477
10.857417490771859,2.805572556372122,2.2921931257628434,6.0064739683461,7.549725596902535,3.1273142807030156
4.8351377425180075,3.076223347633105,0.3466554726099666,1.0735196238349867,1.934872533316152,0.9361163201574644
1.4379105084660677,5.5569857495859925,3.1585137201884343,1.092670931090276,3.709929835141501,1.3485264016809817
10.861934256556653,4.271533398073627,1.378758650488,1.6311310964655905,8.752936352253737,3.885042532004827
30.85653374275909,4.708371886868115,4.1232690935390615,1.1526230564347852,26.032006944912837,12.482720722426278
12.107048536186328,7.723245593706744,4.64785226975601,0.5527770072223878,8.159563791337066,4.17917875267451
5.510146661512584,2.26765499188513,1.2340665321934396,1.6583760770541738,2.5073204483485294,1.6602701253272236
4.978794867742504,2.513160063210754,0.2666709008345952,1.9432202068238549,1.7784677389026078,0.7906365762063816
8.362475409427766,0.3782824262134895,3.0480685012063815,5.314017023743091,2.8355219136368444,2.1643540357352333
10.127598604246705,4.157886837349813,3.082165610160931,10.172379319330553,4.527634211323486,3.5948053575329144
11.00293891223165,3.016143488427296,5.45166464173531,5.021761493171843,4.787764935820137,1.7084946517553954
11.053420493274043,3.6397510769659918,2.3394675243034726,3.5783532346476505,5.470218420855686,5.6189732368158305
8.068763733713695,1.4460349417566012,2.0535242942510816,2.806377040988625,2.1870855069913095,2.4467937183278514
8.966416488628939,3.5100227674174813,1.7337826382412902,1.752571140117728,5.441501453455863,3.08680318757312
10.173031429626334,2.0943059180719357,2.3660929578314702,2.0137670110583383,3.716935789015942,6.170942115180033
25.10899675599775,5.159897149771612,2.104624180101801,0.7990509783450576,7.424253091410992,11.00841315218651
13.127638902778711,2.692124514577934,1.2466480631483015,1.6455063583856502,2.6009825484623517,4.29306955821177
3.232608977776026,2.4342220398739185,1.3839675856812548,1.9053015263981332,1.9462044795279052,2.275497248446135
2.341654704949337,3.191760729661611,1.9331278400745164,1.4584179826320687,3.036583648153106,1.288951590719738
7.299134535649531,1.7874029347994407,3.9130772646713945,4.157692924966822,5.045311132452318,2.5711619282509903
9.62405925074303,3.6118862016452287,8.792592202116417,4.891968144763541,6.304122866378172,3.0595858964656006
6.964421654756694,0.9389409210793772,5.833846157480352,1.5761849533674246,3.1994531821301373,1.0244784279387005
9.670558794625583,2.8628475058335523,2.3142184558932573,1.0870521367504136,2.882335076066828,3.332615992237337
5.275869176381861,2.422457392032643,1.7703907243512136,1.7897308066312008,0.8595531134336679,0.9549330843276669
13.142445451418618,1.90048723771976,2.6023010639363022,0.9647113275857341,3.5021979527460756,3.5646404745216773
9.129454208073376,3.31208727663242,1.4171776889740895,1.127626642287537,1.2510538331466106,3.8107326132562753
13.554585428211317,3.6102057934595013,0.7013786923451583,1.6192968026717232,2.7732892774323985,4.211309729342296
9.689564467949346,4.131292105682515,0.8673117115077448,1.0089896283066424,1.2260974934979174,3.139896324296618
4.705633064405833,4.006943527286224,2.1245136067653267,0.6640855435487165,1.6428669832698757,1.8425998777424708
6.119821642580866,3.0609138893497043,3.0323692512738845,0.7029582440060675,3.705193640927021,1.6529252617338814
7.280292598919543,3.387070165865063,2.8730861072496365,1.8495055973535215,3.495501976202377,2.7616360252635674
9.748191520062317,2.3084642553223502,7.1049882785986505,2.7994777298318727,6.319828283134697,0.2951801917575597
6.821567750913542,3.385443872988678,2.8085435767036855,1.8294112937227112,2.601720800290285,1.508078912886151
5.918857141194679,4.518839704081478,2.663657678139425,0.7775648214392087,1.8241593893738406,0.6038533825568083
4.5895306255964705,4.858416803273446,1.4194443267101085,1.4255255054555611,1.8577732565550418,0.2659392304878307
14.522846664136955,4.301239952615131,3.5611989319601607,1.5233270380927306,4.656248359428902,4.594474881973728
13.912735118237842,1.8266767405209692,1.2608650075601415,0.9382656099523748,2.9129555083144014,4.091766268428338
11.155884625698452,3.9348535058769527,2.562384230623097,0.1567487983016859,3.862343433287093,3.5262414078765927
9.795661036956862,3.4097142992355916,0.20311523329676542,0.3927239225933458,2.3429239333350727,2.5904777301832644
5.346772678484597,1.444731069611233,1.8182113644934204,0.42913790787626305,0.5589618357238532,1.3542295018416204
6.29598758122534,2.0149977226124367,3.132307697093291,0.5034745293956482,4.106441468547634,1.634093891862502
7.190543273721575,3.1622688768703147,1.7116130945569776,0.42595562678450805,2.882998146707074,2.128529059274978
9.299649668316375,2.225517237455059,5.1137679773602285,0.7569041433787594,4.553811458212096,1.293651867294089
7.652487199946854,3.730405359560716,2.675756676815488,0.8068879149142915,3.74811679525363,1.23186465992591
3.2594661839955994,2.542110537449799,1.6273529618875706,0.1722606336572236,1.644375375950113,0.4240805560944677
4.07880591567376,2.150456517781461,0.3259260322343198,0.6750476349732164,1.5135000776514151,0.6655452668562173
13.411288388722806,5.139307947268437,2.400939582285434,0.5228864162415545,5.176302442960812,4.522246495812828
14.633256469118525,3.7289363075892448,0.506344320474979,1.086838619342129,4.867743272434179,4.558948720216871
11.30277934663959,4.36357998666567,0.4855633104706965,0.9056310881045297,2.439195322434214,2.856628840550839
