Gx,Gy,Gz,Ax,Ay,Az
16.762589000000002,6.986096000000001,0.2159460000000022,4.029999999999999,513.238,27.232
6.811860932001639,13.264506002276196,3.7949610859248457,1.2292696830387948,0.47984321844565064,1.7937942467242867
3.2624751604404456,16.997030369217686,3.1703122432265416,1.912158810480725,0.9873099413371501,3.185698862478901
4.405601981168475,13.12548865699831,3.5674542711167287,1.9890114924038946,0.40030905759550384,1.115312493354509
8.657589957557505,10.88879412870737,4.625926739433517,1.9429378562483666,0.5400845003226165,0.44486235129951074
10.205724470471033,62.24569469442418,58.375387196217666,7.426078176453991,1.6214329912937724,2.807654598108905
10.199567636374576,7.210166086259325,7.859074148433097,0.6289637886864453,0.9286381744638601,0.313201257653926
8.32350071252384,9.53560053705199,4.466775082260378,1.7046326809449084,1.2221899406890322,0.38660859069022313
10.36053066990562,9.708600350488977,4.555199344341544,1.2844679235759033,3.7643235340539594,1.7892246147823705
12.828963717478892,11.707204974205668,1.8195634806555798,2.20069311236711,3.7459709455768753,6.877908029617169
82.04721700341544,24.93726357093118,10.310305889579858,1.0863841782578894,48.52407972829761,44.48897777294599
12.145559651145161,2.112636273072397,4.7517193354700895,1.5472419981842025,3.765838985314258,9.194579185862995
6.4378980197825575,8.05941582024444,6.214589366916821,1.6879991445493667,3.301911387451199,2.310069493681831
3.206561815645858,6.000836954281258,7.806521181218703,2.150297243968158,1.9423867344378296,0.48859491351198747
6.764544584469746,12.08056941822693,13.99248993686533,1.0008233855958206,4.637105366846046,1.67704749898329
8.92738548065959,101.96765128951198,66.27599729218247,28.635935759574668,2.498863049635603,1.7083017432735683
3.798615873350036,31.324861165218007,17.908021387197014,11.650147985327118,4.19631496082726,2.7735026399110656
4.791854745983942,6.33944230442973,3.1438389750222866,4.038006785534435,1.6273149389728252,2.829350768542068
5.461280460790624,4.401947496818974,5.682688462746352,2.504686416196341,1.3211961621156225,2.2969309155796362
10.01280025248854,3.9591266466044175,7.523965995594608,4.4348507358634395,2.510605439938417,6.798418138327242
9.483005399812841,4.7777082322935644,11.10322967857104,6.868801358642298,29.529927109823383,25.894628017766916
12.08020090973794,9.09789922792675,5.519695516191082,4.618958051769435,6.290397488417446,11.139452208544991
5.13190670306089,12.528127758614508,0.8792449514134835,5.209062899024724,3.800111188177194,3.167394128459373
5.953947750895178,22.019748200221333,7.6797551430304445,11.931399348834022,4.510798029488065,3.4128426535151593
7.451760212678141,33.655949788852645,8.651684927186363,17.617629928149423,2.323987834753001,1.8463286051478092
9.636013160453935,121.78822328007075,40.309286451353195,82.92629334863685,2.7985890953334063,3.707733391993755
7.800813752690762,58.724809064602624,15.929135985316442,42.63762218767485,1.3443321052866815,0.7951518585076861
2.8765514239142336,3.428893591068329,5.7027144932108245,3.694112028702586,3.086830822192401,3.66976248787274
11.220403986663198,6.435370297311933,3.662552563207218,7.200940920743087,4.879810908356307,3.1701970601886837
7.007612037692395,9.656190631308144,4.718845911408553,2.010043991462114,2.8465212012821635,6.076648779727202
27.60881958724242,9.863548693695366,9.986719655518542,1.5765070629829958,29.481768074740557,21.94583509260692
12.120086117600168,13.778544516337318,5.870060776208008,4.687099354997766,19.1082711082231,14.853725749728106
4.0558092851562915,6.025375980351739,2.3936607255846405,0.5238384581312286,3.6258167185505896,0.7351589360719981
2.963455649081942,2.3610545580887496,5.226897725363549,5.485035046918751,0.6436912179397432,1.183818715118432
2.1658613738061354,4.959527956432241,4.278782724383904,3.7448642073631984,2.103717541420989,1.4700141967447895
14.782274177936307,35.62952457306419,26.17011758312326,42.256916071393675,3.011860404249167,4.245818688719777
7.561830651803965,21.703655304253015,13.622536598171452,27.368546722817054,4.002658096860445,1.8414722860847061
4.834111968077537,3.2011910381874835,3.198384040207412,6.29468339860334,2.5914424834377185,2.32707535287402
8.10023294598673,2.641855764013715,1.2053259013788162,2.4499411797129564,4.499205556494816,1.0240301192518788
10.231640812323242,8.748238471851787,4.854017316429009,7.180198805452382,4.9511808984094605,2.8727527447056254
28.51470598831709,13.976031954104442,12.000263531840194,5.835666579767456,13.712180445424968,9.344121574227978
19.770450050808606,1.9305177962964746,5.668744577114704,3.2284034831981643,14.540628079484765,9.212358402716971
4.912235599234819,2.6660203033637138,5.2412965643085885,3.697337816602794,1.9905311201372282,1.9190662420669904
4.760630076635155,2.258296591064427,8.815256190427702,3.742630117057835,3.8169251524224315,1.1612013722769694
5.12677593829229,2.2033930176267895,10.772662648603694,7.875354195802748,5.38725254909379,2.1887755928818113
9.362080909962115,7.152720135145474,25.676083336479326,10.45749844754471,2.1053347778528213,3.9145701765434318
5.663553592614704,9.767909219300527,18.53049051268383,6.4043335350384964,1.1889796433068596,4.1509396396084695
2.827361711639604,2.4406134029191593,3.77020470755607,5.227102497848565,2.236003281678927,1.0364797887228703
5.806207569858552,4.352496476408298,4.3831827827764105,2.408959086160719,6.717830385383174,0.8534641556720557
5.079684354370917,2.665727553792572,3.741299978240844,3.375430851442897,6.796790928020628,1.3239504568045188
20.326026813109753,1.078383105817735,0.6148053198223596,3.6022361448983276,3.774746665502569,3.0532910481297493
18.928744382732237,2.78947692312496,2.744312772807327,1.7490922409987195,4.324195727453766,2.5954043777192735
4.846049849446544,2.2113123776349775,7.053945896960305,4.453545714456651,2.624500101947276,2.3641822153372307
6.9460772896325285,1.6534446045304712,9.381708469527581,1.1796659578961262,3.0259975977449605,0.523051085820126
1.475622960192444,1.310064443239148,12.460967576206196,2.768845373934605,4.481880034231417,1.7281034363355339
2.241324027927521,6.247814823434853,19.465913301308156,6.493575863224883,2.402944703866027,1.0708304794352792
4.06857014173491,4.721482174443845,18.482629317475148,5.588371447095709,0.5749871818573232,2.191494623367444
1.6772487513072238,1.3786891703249113,3.7249571671289754,2.356385740018292,1.1341914421822532,1.4286180806924675
6.625261067716969,2.6791311422184507,4.113273442095624,1.4090861661076763,8.27341882449249,2.222796116712201
4.208752023683302,1.8095051227377377,1.6968055937643296,4.51566737490495,8.368465772118368,1.4628741740579025
16.533712492243826,2.8988258876263355,1.5700638035993055,0.4774426672015783,3.386724338399444,3.1663713468139467
13.768416852809036,2.624158544705192,4.486719171717594,2.9495055094657614,6.697348476302617,1.4735961221875429
12.578753597838826,1.4883229538265992,3.8214370044584896,1.4156645537074133,2.7217432197400915,1.2655467307597934
6.698490809429841,2.467936409573322,3.4117692548554768,1.719359163356669,1.3604492457944466,2.0900329567546003
3.1990480493202815,3.4347145694292345,5.733165693436588,0.27904070401303355,4.50712215349422,2.0372155112655634
8.716673944880451,2.745397574518091,6.765995028630118,1.6759164724393956,2.5684938780245368,0.9397213294851189
10.105397281990914,0.1068138715118798,8.364867872725103,1.7561021960585708,0.5806723780115626,2.1366703498414856
5.177585674319131,2.280237984320217,3.3581256935158548,1.6664466954227362,2.5305296719426096,2.237128268351734
6.145887315812122,0.46488808264244746,5.423218324770703,2.1540302128120508,7.57361301261936,1.833191725395641
6.691445099765444,2.3057017766850114,1.9474656339791476,2.230551839884246,4.761271882273538,2.1343788902997756
6.702419774517204,2.5476108892018408,1.1832392242237426,1.8867511886796824,2.4348236928277323,0.44092016270591833
11.382911937670897,4.760935749977602,3.4613846134121715,1.286814042781213,4.933990756358338,3.058287069060088
10.3782045418019,2.64095381763334,0.6364494598700084,1.221523974479061,2.375790747867637,1.9086568799297199
3.792571225178756,2.3781163498290026,1.7651177858146068,1.6776506496197976,0.9042596557328506,1.7647500740297015
1.184607534113409,2.7100725513717254,3.3348309544418995,1.4834141176215867,3.061546910410897,1.1177497899634714
7.9341097175480115,2.1582520919036554,5.261237989069021,1.6058360742350786,2.554104213193064,0.16136748172016233
9.596328830633135,6.2514829314927844,6.990128609260013,5.030680460017892,3.001530318970443,3.686826194923459
6.720367295018439,2.3027548960953292,3.4347017629041687,1.5844329899220295,4.356722784887555,1.7259990395912457
5.828716848281809,3.5930934911386694,2.427841260330222,0.5225078970594914,4.5463992992680495,1.3579568331899146
6.187235476209134,1.877051081552412,0.892098976160313,2.5528413043764195,2.8106880728734547,1.6922100376625917
3.0179698381676596,1.145056118684326,0.40648105778847454,0.28310335030642536,0.6750704187447273,2.196077991070713
10.124951967754301,5.3808620903556585,1.0164517121641858,1.3884304799251133,6.342121002840942,5.385823148823982
6.7030103787538415,1.3367668115422802,0.5274415229928267,0.7592803192329588,2.1158395244698323,2.746440720556821
3.012060446796949,1.3235653054510554,0.8357269166268244,1.9491075850687287,1.2083838573624823,1.790625461175411
2.5354405593346616,1.449512686838303,0.13662542077777842,1.3430824783022246,2.7403075886911106,0.2524852960281693
3.728698559420129,0.8533121550918642,1.4015901778132218,1.8973625334884898,1.261827015427277,0.9978471066322665
1.440736041794162,1.191755519472232,2.3334460657173826,3.774341603437386,1.5936978832383537,1.7362427287873226
2.302603508455909,3.109348506842815,2.288758127470803,1.361930700563558,2.304490423603638,0.6286529115551018
4.997366484641642,1.5721554181344037,1.190429065762375,1.656599847545372,2.411884362857698,0.35996903629174976
2.7107704144930547,0.24928380987535775,0.5769216213975874,2.0484889487426488,1.695436565628286,0.1295649827797818
3.0679186110483347,2.4314613720970297,0.5144401680641216,1.092954567174298,1.3749539130032575,1.6229326885779902
6.936740700043163,3.198767226301679,1.0516655158531858,1.5239733713237542,3.5624569477638004,3.633958172375244
2.8558870178948594,3.3275048018786344,0.6867015429732802,1.1869104041253626,1.2825788271925798,2.313898401367368
4.46090388769112,1.5866606633029863,0.6318213845976213,1.1450596806022142,0.6890315453765964,0.267196680194433
3.24159635657827,0.5806093547343475,1.5751680672303172,0.27915770270983703,1.5763354572919255,0.24930780067503716
3.698182657182171,1.2341823598807713,1.675732652899119,0.08201276825810583,0.9191863911563622,0.5883000621508813
3.471330851867069,2.592784437879625,3.134569741097177,2.568173963994458,2.347541028695618,0.9065670455143732
0.22164233756818927,0.15802059412894973,2.5245620918419505,0.7123914264266689,2.2652466878489865,0.9051125784482607
3.1089715967108047,2.10878574921386,0.7675781004159673,1.3504913358760429,1.601688652480343,0.38887924105690835
