Gx,Gy,Gz,Ax,Ay,Az
16.162121999999997,5.376552,8.171191,31.363999999999997,507.868,28.392000000000003
3.5743856311225466,16.211825135745425,4.3464267862555,0.698024990561121,3.695337569958049,2.0622754749363907
2.952273868565209,18.223676897262706,5.173213297681554,0.9168147043591595,3.8859796804459563,3.4861570918298317
3.1353744157975645,14.461216593482915,8.05604656113887,1.6752934802218211,4.195285843683489,1.3562353759106895
8.29201285118601,18.270280216423558,12.667495138846352,2.1904789844158734,4.900072224339186,0.7727631523562178
22.870966772420115,45.75041908327098,22.1140966162923,15.828693909690228,8.562419690966578,6.227428876679907
9.383006946257062,3.6933130805941667,7.939435697581773,1.4409962541029375,8.729290674456898,4.594366078394148
7.562560909849051,13.525196688953862,2.262712106298509,3.877680934498343,13.4803685683081,6.582382552723799
5.176029395035182,7.8273220202773865,1.5222918031866493,2.6802951411075684,21.32010691422009,12.687271133524971
27.563352373408563,13.12478093974757,3.5437473572731593,3.4666733554608897,47.90586022391955,24.233902926194617
32.5718225857325,3.3675775350881576,7.235084070560401,2.83141845858098,60.89354938540324,33.807211471510556
4.78990829389661,6.54607841749247,8.386477391078849,1.8841861642572075,8.348731940389973,7.465306278435453
7.613801088711778,11.863093739968626,8.37175002743522,3.363267497660483,7.773701028752177,7.413333378782031
8.638534386468475,6.12128302460042,15.62365249733464,3.47841106024115,5.286240460284354,4.783497886320719
10.15832823899789,34.45404660215824,37.09799682921781,9.016711508088715,3.61476722999344,7.046719702514411
5.210746955000743,18.965441835925464,22.452772719714556,6.419996336311808,8.05169254094035,1.3764047194973288
0.571398323258103,7.7427582922037,7.381990626247864,2.0282539568212616,6.049362731228065,3.549222393997436
1.8100606172695448,11.527948702064599,4.1657014231059835,3.973225359743962,2.454027066111291,5.081130730454071
6.160417066769988,7.609625497096195,2.583529880990142,3.887700008931049,6.978181724647877,6.351978855163524
8.213048755112862,9.74964196778371,8.862803170947533,4.083249937437882,28.227716793713704,22.09420611528097
9.751841375854266,12.279632533804028,3.1785434613809467,4.54736649105193,11.075031792187204,11.635920892655514
5.264196670804446,13.296259227377881,4.89258939522409,3.903066442322589,2.699154960888166,1.7803186786644314
3.756190000533718,3.1051477124936904,7.517196833187241,1.2824493355253357,3.570220420272232,2.9341595104590676
1.8691679390490405,13.390175952418954,7.125037166199625,4.754012935349078,1.173724366620049,0.7119310141042204
3.9921157415820443,37.6763801683258,26.797937137523327,28.25227684685993,4.578518054872229,5.653187344056397
2.235633965057683,5.270910701668821,2.34755119706626,6.779751305465312,4.213910060118809,2.226105428199748
3.4272006773373356,12.769098821462547,1.206470833618526,10.303060786358447,5.26252238086658,2.437568420320863
2.176457906981711,4.801289375710289,4.03355657337327,7.444936051455052,9.037365535815304,9.932183157170488
5.110000205782632,6.17759044311001,2.654301190478885,7.223941006139889,6.581432763157004,8.016270154314434
15.180420985669656,11.634783200435209,8.862847366343733,5.216348266854558,15.71500382447169,17.864795571486646
2.7855372148524093,2.6066147245402247,0.7972771531194354,5.780102237134292,5.168669363355331,4.397539317904017
3.900290747283377,9.24440560770908,1.9575942911074278,7.393915434616525,3.5078614420867256,2.194237085880427
1.6499397373288893,16.12253414216744,8.590075505160417,15.658775403480455,2.510855711131455,1.9720807524453152
2.7055129040501775,12.583453085430753,7.011821054709878,15.231251676198795,2.2197698081346355,2.462237751613429
6.012375765050369,21.501135560232935,13.638016349674855,21.312827459012865,0.6404004603224227,1.9179489500735
2.6634615300600806,3.1986704963743384,6.146281669042599,5.7072437026994365,2.289484803112672,2.5813125251671205
2.3540108873192906,1.7428658469622424,4.021785960995998,2.4029349515336356,7.188171068162703,2.9642778231513285
7.090748116692319,8.073648268713757,3.9752117962374918,1.4532505114661416,19.686379702143174,10.012326788414741
5.320268922859459,15.54319598301151,5.9811053803382865,7.838374122039963,28.867162468231946,14.72058466055677
7.497547506945593,9.35711084117264,3.0157247338394724,6.533579016174591,27.045491352898395,13.443805013559228
3.0240294370976315,4.959273872390419,5.320906491812566,1.5820847633237596,8.715084715634564,4.850883846987131
2.855597928129407,6.3803173886762465,1.757226128547378,8.286080183173723,5.455125576399618,2.904602336638588
5.490736815296998,12.5586176089867,9.760529290167453,5.1463863964673395,4.348604994496818,0.3887530594424937
8.534168709634057,17.790826597679114,20.336366177445896,13.960862422196218,9.426117697387795,0.4011524671689541
3.460682957096758,12.705737653981746,16.78006831846689,5.214523989028036,7.589955709576308,2.237923962791058
9.823824697006783,1.9637324592830043,2.979172381074995,2.0917990659851373,15.356257488855729,4.826985455532041
5.202951027958454,3.219657824861982,2.13053148095533,4.583390088251923,11.422529932604547,3.9806486160008023
6.241631523547753,2.68379084871254,7.79676245755317,3.3946874203455346,8.94980354453432,1.7437379458610953
15.26932448395767,10.63798726551684,8.472377049972254,4.189088626278518,31.094391544799585,9.568083580963473
7.4756573743566594,4.666982844981462,5.572520947515359,2.6479627991330164,19.75544837213252,4.61114713073241
3.0896895585009267,4.451609226443779,8.690879309102488,2.51182253588891,5.566625590648077,2.121796185585131
3.6552657869687475,5.175118005033597,2.966425985281332,7.950361920121464,1.4747402069492654,2.3486659493621977
4.337601415448158,5.433819664445293,1.4845180741854112,3.1699928396050834,1.752834686271241,0.21728714600238536
3.364766545050617,12.179385219879391,4.4531333789419305,10.36100221597955,2.310127812615875,0.783734087233063
2.521594020437422,10.006098620904925,3.4983167652066394,7.32520673156609,0.49022431970035074,0.5403624233764772
4.238897786007553,3.2726427080702636,2.9364214144107157,4.2424264364815425,4.854432575126232,3.1310277196846195
2.7533609272627997,5.756644792508211,6.445623064936819,1.9218675868318305,10.059841421308061,5.197919812733323
3.9649905353411277,3.0976616380583786,1.7763507537950292,1.923911402056186,2.9328816157870534,0.8339552976359315
2.2612144447907983,5.6903362201528775,7.518014060323249,2.4723002169075796,11.931866212434219,3.899314528479741
1.582510487525061,7.603752906303993,5.733077523002546,3.2779964463363345,9.199073674514072,4.464291393347539
2.9556334288048203,3.0017039781319146,2.2647277916582906,1.7892709074420925,4.617200514572678,2.17153098033222
1.7451085618349969,2.5918876373351294,1.9277694399703689,4.90764756971774,1.7141667060231411,1.868730649896766
2.0132896905012325,2.6961791245743827,4.067228363641265,4.394324767527632,1.073578303176947,0.5398586711220458
3.2723602007811534,6.844804066818938,4.319999872924854,5.458717830665163,2.981878980260349,1.5021959563394638
2.9629655134911266,1.8651995706837452,2.8645758764889906,3.322069437873336,4.2410341285719095,0.8210996394660779
1.9381995120148194,4.579445473345655,0.7601600576152677,1.2358460671914782,1.8072466333105326,0.7365866634723504
4.703634439980713,5.468974454581781,1.9046077202596832,1.2188264175555201,4.391181253055235,3.5988498317556408
2.358095259385686,3.5142859600678737,1.159613741685532,3.5025859961358186,2.803485533565453,2.5521579649043002
3.490519655449524,4.642970492033038,2.2891483919613034,0.8948270526462514,6.343301375929658,2.51420685203813
2.9030337157761643,7.609581409412166,0.9116716752623766,4.118405535281515,5.043391625452342,2.651616698493723
3.6320526189329505,2.149363712167299,2.8068629971935013,3.4291961462854847,1.8104471069914931,2.008772144202048
1.4048514447127223,2.2775575290318435,0.12864508731465857,1.813553987277943,0.6948823400796752,1.1241266228517484
2.548104536316684,2.747582300174183,0.8062058423520052,3.3825215128438466,1.8879424845299961,1.0720783074925104
3.237308505029313,3.4088861944669344,1.8919481769551036,3.8243699993450435,2.588757331841014,2.0584100896926696
1.2103878562998238,2.3566114500495017,1.1419056470198838,0.5545721314100298,1.5168818037739724,3.0249080199695166
2.1767199542276994,3.3058378447483707,1.2380605514542402,2.4000156354609428,2.5648609308378987,1.1660831367873639
0.9809087765063961,2.3177306432329696,1.7216111825004436,1.367838302709578,0.6610240627038749,2.2207722216061785
3.332563461314312,3.309204479390815,1.6125668576690193,1.7670377945085007,0.3916247024833847,2.279164521073898
4.582466509376278,3.9245748799035742,1.4909898027765505,1.551287893253598,3.0737255437470163,2.087862694419954
1.7665787629934702,2.2176402185395174,1.2120663299825807,3.0893727858048026,3.2497887807073393,1.297368636153173
4.94142446611873,2.97254346545138,3.375920740367702,2.4079936544924228,1.3491680989618242,0.8062369523402705
0.6817658765190637,1.4834938262079744,0.572558174272433,0.4664637089641145,1.2661134258543878,0.6452796590261011
3.3187774035411275,4.578653470213672,3.0269936266504187,2.134844821266831,1.7790029177564677,1.3087389379557277
5.602542547970502,2.990978115902027,1.96854325712679,2.4169733372313162,0.27154987327917135,1.5286695381752153
1.6473253483298556,2.7862912198733056,1.3600966147131688,1.5108796431449856,0.41713481885720455,1.2182392684844905
1.6214279936593161,1.812847785419001,0.8658688949063847,1.871643320079115,1.2359408609945581,0.6980356739878809
2.7008039973461524,0.8110106327742431,1.5429045316185572,1.079819488504178,0.865165180365949,1.5356803184928134
3.4304883543155507,1.842006680336233,1.4172086526425163,0.8371781246985076,2.4942326295402046,2.1596360429512944
0.74653319986166,4.842805473359584,1.1388070770170562,2.6053466027429604,1.0540564031394268,1.5343403019898203
2.2459883859119363,2.1508528814133046,0.21638321656629447,0.8995682120634139,1.0596498366883926,0.8924561776825592
2.1170500038591142,1.4510855822104776,1.6578548825087565,0.40371375287264616,0.5244850746771132,0.5940630167397779
2.1458310349009557,1.6896729907524288,0.9723957106401417,0.6162142782091896,0.017497907484889264,0.6667312534382894
2.5786446731341224,2.5545525445035064,1.9917365143712913,0.6451562286626346,1.2011811381668847,1.3821533834089617
3.3528363925002305,3.058125214649681,0.6565466684886938,0.8625417808762316,2.005650795588054,1.070899776143477
2.3286143929976277,2.1998188207832916,0.8838641094268752,1.339024561932679,0.5293914290307989,1.1286902843035858
1.9379012826464381,1.4261800534282216,0.5520180590656744,0.9105730421040731,0.496937640038143,0.9404043920093378
2.323784110415852,0.5903442411530108,0.5887805225763031,0.4963255517985069,1.8034144274977628,1.7272483111739598
3.0716929717393224,1.803126571299246,1.9030111031142687,0.36253574875962996,1.9230880865460944,1.7297262059790903
0.6817749427668388,1.9657209059429501,0.9915632596331186,0.9874735316764824,0.6883744861264132,0.5053458507644618
