Gx,Gy,Gz,Ax,Ay,Az
7.4400319999999995,0.44551499999999944,1.2413779999999996,2.5100000000000007,568.8799999999999,32.364000000000004
5.57387210823213,1.9023781264240378,2.002725604718952,3.3430952654590396,3.530409263476954,4.815474541438372
1.8020708285621971,13.336412095205429,5.027201425705658,0.884128508941014,1.9534285801439535,1.4119234684108473
7.577886127737941,27.926162933133764,6.7648753380357425,0.9986723089154408,2.6920085812808052,0.8765473092260494
11.502108590330586,18.247233651556407,10.222794034590244,4.010317173982034,4.143230638489916,3.6089955508482365
20.182750401415355,124.90939228466824,56.195136643890926,5.495008177601583,5.310203115683152,2.17275678665529
11.682260842056388,75.69154344254197,31.255716361474892,5.102378119475123,4.027221797008493,3.561889324050206
15.936352928455007,17.220217707078397,16.537989915637567,3.309693155519388,5.93415761566284,4.249629515728026
11.120902731219296,14.627770263555494,4.379833535270689,2.3802782257675186,5.982099754511739,4.327315220927624
13.678874984382908,7.757899164641358,1.07459909590135,1.3115567188159332,12.55969095661717,6.934270045520343
52.17712909885141,23.224929071845004,15.564277563968226,1.9672758021796999,27.81555884237769,18.67404077613119
105.1904627166678,17.221134712145407,7.961953613502637,4.3582065364363975,80.95672631580143,64.13779499540698
27.51160346060923,8.66072444273569,2.6804198544056557,2.7894868452535233,15.065849955686376,12.261371270172987
10.1033036110555,16.877631650021737,8.335348719875787,4.765882611661203,7.9441790130535175,6.111907141551754
9.681336282634122,20.523176860016395,12.166947794577384,6.818137448480464,4.005651762618704,5.263111878345571
4.0487467338451095,11.384065495459062,12.102755496175993,4.413088369877119,6.194213118822753,3.7094446856459755
9.20684625023453,115.39113246538024,75.30044485052825,37.552555980441284,10.176985819108896,1.0281019872878159
3.2094275880723497,23.244668123866855,15.899950497665134,6.356647237956913,7.844387653331271,5.9822255355145275
3.3628898705728947,29.700417483802656,7.915289954091478,6.299052732710002,4.059076545859691,3.903324952883627
6.217029107832003,32.526422776785296,2.8246912022539648,8.726547589359141,8.415178985334206,6.268552223244237
5.405203113472673,7.036402632017292,2.1116848412240246,0.6853650847327336,3.656684664466286,3.9407619325245347
16.229930139769575,32.68579786773106,16.145760190850858,9.742154647204286,8.862807280621748,23.613482116252626
12.945348297955837,4.380128549906522,16.539822099954698,3.709495917067492,17.12627635971145,31.286648003319698
4.977869525508536,8.446350082128566,2.841350195021533,2.2800074998602016,16.23909740303661,14.600946625733236
7.706982973140991,2.9303899236969166,2.821642955731208,3.8004904499380294,5.25435228282196,4.235885542262572
8.726764123633995,13.047270399516917,1.419437829687986,2.968088270051273,6.926233949079932,6.125358040963611
4.563441628312612,6.063659190270843,10.559879682625319,2.283941904482075,3.5750711354480353,4.78107424549357
7.337627447358413,47.68669754392916,34.67635002486334,31.90045935339038,6.832259749557992,5.474873969211321
9.262120917451895,3.6876966973385654,3.635446837974677,3.3563111215358057,3.650883224726269,4.077488956748663
8.544014560972197,5.523513505265998,8.679319424368089,2.2882526764097846,4.357405845631178,5.523521745337673
7.755703209053598,8.19910686237476,5.142776967187436,3.3661543197434245,9.486110570126508,6.302057006747036
3.01087464908962,9.627678931709134,1.3813569574375588,5.041269771513393,11.645316044103827,7.0763613443987055
22.434380620363378,18.089320894357222,10.905580433350982,7.404630582966979,21.388064174075296,22.940743392060998
13.629390315582746,3.047634706727097,10.503453770216964,7.405271501742736,8.208532298037552,15.159601882279743
13.180249944221892,4.889466841477489,1.535052115868626,0.13320978326215416,8.590604633980123,5.610539812268509
5.753915223726755,10.769658853308027,1.6857348353841453,5.414408886449077,2.878772744823447,1.5363151298338338
4.70372791310491,9.83169646239002,1.1021962637401093,7.179426561423334,2.409042011918079,0.8631965074696268
4.59262727920237,5.352417332108969,12.801123721431253,5.080314781917021,4.935703886926993,3.522614839276268
10.531847324051604,13.54788866243572,22.725465631421347,10.710704097808472,7.378976025124453,2.815157701184323
4.601855185292521,10.460609283639835,9.75624993078986,2.2626399108625703,3.087897994137082,1.843189851462023
4.918565530175694,9.526262943266808,5.574133785009586,7.486407303172926,5.339982253678823,2.514684086616719
1.7170510346455643,3.5769752864653768,7.321661457811212,1.6188243655340184,5.609702546600963,2.1002686646057835
6.559188117609408,1.550033037675433,3.9849621054082447,1.1513785898222217,4.16241385224107,4.487199083027143
24.383550355576794,12.76409374051307,6.632390730020497,10.671848300401582,32.5431905598999,14.008532110930053
6.026594412037735,2.9023132245484313,2.881768909071185,5.119322221666491,1.0051205043605371,5.111469565032362
2.6535711500893573,2.767405707665113,3.5733112587581175,3.5883494246955343,6.533717895225237,1.562908251011589
6.035065615162482,1.9672017438051919,2.1690292645054727,0.683574692779331,5.922316921158504,1.5616630431576466
2.094286470188893,2.6954220776030047,7.203557509319442,5.597288438458222,2.647705949901574,0.36869059935162274
3.11505460423185,10.702215146639004,5.226140954132318,13.218983761387976,4.238188324385062,3.5777004994051422
8.026131152958298,9.352663958592599,7.70954974196337,9.581406366692883,4.3621031173440965,4.106558009605406
3.5360302528570426,2.08103943413857,3.3815255052337574,3.959459905257385,4.6953792425943846,2.057064215686142
8.542925545578564,1.974050300291905,3.730172436756623,1.8941669446634055,5.190416973843903,1.8705564149184188
2.1801179884596458,1.777043295446949,6.069448791943247,1.4268189151701314,1.1206169224943432,2.071768630670186
10.512222774363456,4.365320564929305,9.440951946892707,2.1046666526036524,3.084111547486323,0.9766076210351785
29.132155461485947,6.663182464705814,15.148243220599289,1.9340293575130119,16.604565030757072,7.196990665558061
4.549016592648245,1.9753544327821204,6.403225149962865,2.4824396153842367,3.4880218897944175,3.355832730488823
2.270369810179319,1.6974188835768313,4.075696885829705,2.737912016438928,2.8503107768040823,2.483224723281645
1.6585533136985418,4.447422968328655,1.146918945097358,0.604183464371326,3.9069527530655677,1.5905292173865218
0.5220150959595549,2.344164126673228,5.324619145345246,3.3372957009783697,4.216505793617627,0.8648785524030242
6.756292917154454,10.673866382739494,6.138919102241321,6.114967143542283,2.7673550423060194,3.26359917147622
2.848592140159873,1.4466539102545979,1.8412574782933882,3.0846903169531434,0.6144791841228878,4.701083825534063
1.459380760755734,5.840105890327252,0.3429699661982639,2.476948394666592,1.2165932935796189,1.3992984979669727
4.970399463226625,2.5646320974689916,3.2759711322600475,2.509118585523905,4.584501468352284,4.114468569989388
0.9137908875940841,4.834804897148771,1.6954913362950272,1.0889477855030487,3.1943051964787945,3.9142608035986
6.2673297056640065,1.851052926116195,4.95695509400084,3.2616033225973315,6.426835611696139,2.635701072141917
11.209814878115225,5.129116073068667,4.586266157123928,1.128717453274662,3.463676760289193,1.4521695036119402
3.3259144089322827,1.1025487100504756,2.022327217283387,3.105943162349852,1.630052775072023,1.0170166665553955
3.9666122477562484,1.563447327262846,5.7241551740237275,4.006635579439005,3.985627919814275,0.5867592725813352
0.9240120346361933,2.313797903111106,4.1334007098012675,1.4620204664070344,0.974976978397395,1.199227842236043
2.010874549435768,6.437915484071393,3.689131245321398,1.2069682620178104,1.4599411674789209,0.6329522647847222
3.33548702851634,9.309685807835196,4.880104454600148,2.6105497520907837,3.1653263532400797,3.586913141821966
2.0943179294471186,1.629674986885021,1.448031064266184,2.1224750325324715,1.7554128133782458,1.9392865169929134
3.075523548388896,5.028655934016028,0.7705563966453121,1.8542856358260782,1.4430156562661596,1.7002508651445802
3.9846588891057544,2.47659992268893,2.8477801558179667,1.5613477013415975,3.138249918942939,3.330080262677124
3.0535906422044836,5.66269995851009,2.9418505050612946,0.9097539356049708,2.065057866155415,1.2793726784257409
4.714818835925626,1.73240865067305,4.485786358780988,1.5168297204940218,3.104254285762339,3.5708556807676386
3.2707501923106066,1.9989526084153906,3.13448580246534,0.30328998352133263,0.8868548745598924,0.5899918963553382
2.730187781332595,2.265633206529213,2.6694933741066844,0.5765653457893603,1.9423649700022758,3.6595625526900615
2.179951726935003,3.6353064520898033,4.1090899839486665,0.8174903838120633,2.199154233046229,2.068834082634878
1.0385275749483964,1.4343584435020673,2.566278721738255,0.5216307186764206,1.661517330416568,1.6120912105467096
0.2957142812800613,3.4388258371706177,2.8845878031411036,0.9414927510894626,2.7645464459327154,1.4559780183946016
0.7920819956521241,8.402841269734257,2.4646368727065515,0.8860888724741756,0.9965768007514321,2.8242189106803663
2.5852796383564423,1.3306123262947551,1.759691929800542,2.2349233374184765,1.1056569591492966,4.809950662290068
2.515295536358948,3.149187822144397,1.431983554457486,0.37587008708527464,3.639835144062199,3.8429185736569007
2.695612777146911,1.1136697425188509,1.6802085984627382,1.867103423947349,3.368401532029264,1.7633402018251743
3.00220636725952,0.49231532587302185,2.4686063696138363,1.7297033513086926,1.5141808868912237,3.3459421295523897
5.168127206925449,2.73487451378888,4.298661145017815,1.3417471933294665,1.2258914416731557,5.313871034034322
2.5401124323781437,0.4750899512362112,2.2171718216821614,1.7602450318818916,1.9351388586176774,3.955749475254264
1.9582083668668413,1.9644827247655878,2.0732404343972046,1.545557378851218,0.6287347794299443,2.397579016759202
2.9053399483220193,1.888998005707196,2.669796149790031,0.27042036419835547,1.7403142261846392,1.1960454644543002
1.0388501478881038,1.149553200796611,0.5794439349472401,0.7899069571175313,2.5516162663336224,1.7479410405745293
3.303963038415037,4.6096725552508,2.0845727159541405,1.1223228946103094,1.1713615131115378,2.7317373501317537
0.888697050204457,4.966611629790038,2.7599372204472243,1.2478045821377042,1.8623019240355918,2.418799918127121
1.856803956809702,1.660175887475455,2.324147757725288,0.35570365367985063,1.0243177299811173,1.570872355864804
4.46723725733879,2.2469343825487855,1.2700295381184332,0.17731747625631475,0.3742598604098167,3.814537045076749
2.2985204832216506,2.2110224517209978,1.400527013049041,0.15446012184155852,1.6099011589803922,2.408485778029993
4.539866923372251,2.7806299086166435,0.7879484198691046,2.3424180791722025,0.2567336042658645,4.208602945822982
8.325175941219067,1.9262714862483925,2.717990506933086,0.9877504750009892,1.9336134961167544,5.586759473699421
4.1336948691182185,2.5694526335753025,0.9674504519688043,0.7726860726425648,0.8996443265590507,3.604847158707001
