Gx,Gy,Gz,Ax,Ay,Az
6.651702999999998,21.400958000000003,6.833979,48.166,484.77200000000005,31.563999999999997
2.0774252147317513,32.01612542679491,4.738718869981456,1.5927517898230183,1.0894678166166782,1.2931620865387947
7.785192996967722,25.40625451547742,5.128440354648939,1.8734923184469872,0.9109824199409068,4.082366167174329
5.915331710422793,42.36111346826701,9.466315590273922,2.8021827938418182,1.2314729104534028,2.279842870591161
4.32292136626198,126.00777038215446,37.44133692907652,6.698871881080989,2.7862893505007045,4.202324519973209
8.592281522691495,180.06840507920535,64.96484712497548,7.539318908819242,3.3761978012805476,6.22589602598554
6.0023248401395275,72.37855985789284,13.072968207949728,4.529237396566447,1.0553050510823547,3.3017180322995414
12.988967953048117,46.48930065488362,7.0360604191744045,1.5598416169336646,2.912443821870757,4.299006143163638
5.746238575471361,37.11654860201789,9.595083588610583,2.613581061098895,8.2576994422499,7.479868427733391
15.43814551263469,40.15281269257432,2.5019257346133115,3.265570940209944,66.58906544605617,40.84643774989227
3.550474125122183,50.37017028138332,18.129130912817722,6.556770594764411,19.063836752001247,8.004660796066245
7.3308287964566885,24.10008882691964,17.751587794126408,3.1600558164034624,3.9423403414983675,5.090325009219342
6.271052862280473,24.637418411676904,9.81145906306009,3.971756539786394,3.3214432489698167,3.0313379819191173
8.051902800232014,13.397978079184519,24.87740865193494,2.0918567205608976,2.630724281461371,3.04034079679956
28.4783666092103,144.6606936467002,84.39989308930694,20.441853894746803,13.322054129291029,1.1872674237500516
12.753387461478841,24.085880344590713,16.78842815479087,3.66169150738155,6.342585954035722,3.347070777575681
7.761707429985365,12.179814995359097,10.455995389603544,2.985201185898929,5.551507100718697,5.741122058708944
5.102389442632573,20.070369032073653,13.074279856591556,5.968803851619691,3.8720853630396794,7.605874144072478
10.556408052343835,14.87862971847642,13.982286835464139,5.084638857613605,13.15837610208779,18.467978022761887
9.445273672764264,31.648474700960058,2.657051805773621,2.3272063310575333,11.534951964956388,8.725121433283025
7.13417654103845,37.028339132423596,4.145138170748059,7.737111893782208,5.006955637574976,4.129091155546917
2.5632855559031062,11.191828135148624,8.479687456435814,2.739407965744603,5.321127197278827,3.993727082161822
7.900137639731325,39.51045047414312,2.255756698223637,8.004289091696217,5.298630269592314,2.8236626827692457
29.399865562941507,108.67762952757377,14.704534674783446,29.387643363899365,4.4326689405469795,4.355738720219494
1.2382196818564877,36.82834270318343,11.950661764754047,7.07974411374397,6.527385482935246,5.801146364279783
12.942658695017748,17.251251517839968,5.990199557692053,1.3505325514782203,11.234829599597866,7.266318595136192
15.427929078958273,28.626098361813433,11.643732692405443,0.9825420290797888,11.219509066837919,10.693420331352806
20.16800017851296,25.617095061674195,10.073756429804623,4.454984297504838,24.396007274668413,10.639885633638693
14.539179166378524,7.698267870491916,3.647123017626174,4.737384362186002,19.38064911667782,11.201345303039538
3.8787103187589778,8.025151231582383,3.9264813313317486,4.717118721406435,4.208371813923428,4.095262710227576
7.1181386799646456,12.949612320555877,2.7259572088375625,3.0681457772613805,4.823366191157511,4.994442526246232
5.496671013075637,23.888999069174414,1.6915920737574712,7.118723596649348,2.6523212771435363,2.934166122386152
7.974695520851113,56.980071583153354,18.637020583855545,28.49859653797821,6.209028220251647,1.83653618305296
5.726784657978398,24.822839990306377,4.0879332734115374,9.04274153983546,4.220790107725883,5.72174347683395
2.616827546398504,15.943892925553392,5.687116479927244,0.7471652856809954,3.27789535068133,5.056473619431035
7.535519857987814,16.915206764901903,3.556885037604208,3.403934657845401,6.6266087625617525,7.146121833655992
7.409507869306085,3.821054455594221,4.591239259206549,10.24381070000365,10.82004238431163,7.881710420189857
12.32464689202595,17.76856200164274,4.355353861650933,6.37495365621369,6.244794158711541,13.26008172408638
8.544104745311717,15.065433205582217,2.3370025117815385,4.536994107179662,2.7447956969692116,4.55675744144384
3.9021347462622975,28.103827791537032,7.4980598174556405,8.084186823781403,4.842557566908186,1.844339826244236
12.382203686619416,20.67342722792474,10.94734251290702,15.509417562396179,2.579134707494583,5.248802693227957
9.31361825222828,35.911856814199524,18.703753281108973,26.089629222603765,4.075549033153734,4.506690639631756
8.56223842030565,11.535562390605019,4.339861297938649,9.999529001497935,9.360309543243993,7.3844587339590335
4.539890104282509,12.53176014332683,5.53005320011874,4.706068617382418,5.105470655858187,5.238091138586472
1.6463413563329676,5.821913677490099,8.294611313319809,1.9320999122233307,3.8501377691405114,4.95728234374429
4.562522365782621,5.577546018412647,9.474658750201739,0.834901728592738,2.153900927208998,4.607160903530821
17.18625405841048,1.8882253128474222,3.0317044100490387,1.5495071474930142,16.709037738085016,11.911699624584925
4.357417717688416,3.4495338315225403,3.487745921564182,3.0393405560028257,0.8253340271235979,1.7159055723340078
4.44637386230767,12.476323409745902,3.146192407130128,2.4453179598336328,2.3899719935238886,3.3846902189689407
7.961895436253573,16.93225872241682,12.637145990794354,13.458404504941095,2.3450152315549886,3.1702250590772127
6.191026883512729,23.19284718829273,19.93801401165477,18.576228843097944,3.6130201955392134,1.5837457985018475
10.946698115803668,27.379301996172845,7.3337663596087035,14.475459936939004,5.771851384287793,3.737799682410861
7.297987191393633,13.010714139042358,3.4058027101192874,9.240149909561394,1.919008152563406,2.80792176502819
5.390683413928561,2.784963117932691,6.7227471822610525,5.403635525089993,2.428979188675001,3.567700931800769
4.354702800233988,7.698075983772149,3.8251992860723396,2.094787540250254,3.108330303007788,2.1112951944138323
20.468208705433476,15.37006208821118,8.0172423448848,4.366754849963778,12.942736569008652,9.409345434754032
4.408272022235498,16.303656166235335,4.310833921267826,6.061624865815311,4.43728624920642,1.1960873126131841
8.468334362004954,11.730396652700824,7.17742370994603,7.158907614528365,3.2723303679446993,4.346844377264299
6.379993354089812,2.2004118076812835,7.62042472805248,5.9718002131756,3.7986578685252645,3.840105818428634
6.092252614724721,15.504228265381602,6.3680476364769145,7.219869786697178,2.2715672530323734,1.4235212738763197
11.867354610554637,13.910211133067882,8.411525964543152,3.4899610662411993,3.8973443029361383,4.461346557310651
10.959768087512817,4.2092733672614475,5.102890114684773,2.756746525412691,5.645038227599699,2.760540815407333
11.001632382136927,6.845018730998667,10.308952884737907,1.5159039841120119,2.8349314280725455,0.8496795679374632
4.0463445047371325,9.077280416031211,3.0155634966258744,5.057452048492426,4.8872351923145425,2.2007178969779218
13.717099765870413,8.357224385130749,2.3708197282223575,2.861933164626913,3.7786015619505524,2.639350832971744
6.6512435883824095,4.556223172850588,5.088198831503822,2.121186940771649,1.7125580833942124,2.0394762387540624
7.100772051213346,10.172236405192987,2.9459767592014297,2.206574985517045,2.6025909350579908,2.802379373642253
5.805929239283983,14.569226456763216,4.239452377074485,6.595488574068016,4.936826906865629,2.41907554085694
5.291815978281527,10.793789000732396,7.904932766328162,2.4483218535615023,3.4746768191799275,1.339567795190209
4.7127176930033645,19.312069389164915,3.6009029566934703,5.873591527628034,2.4915171490176125,0.3426594114904471
9.111928044222916,8.423095187968226,3.7009524790130315,4.898292045207517,5.252443342819747,0.6736269488327691
5.224630623111225,9.052098541386707,3.972253198758795,2.7174364465979064,1.8043901096120614,1.231821965831625
2.2374155166924146,10.283977298072525,3.065868700231682,1.580056053891068,2.0070206123966656,2.5863314463968528
9.015316925779727,9.277328500317752,0.6421473634746847,4.434159559288819,5.911307165350369,1.0617612437531445
6.25377000168549,9.543236989622347,2.9148822974824786,4.474515419915751,1.1574421886883999,1.2743398317554335
5.019461348322872,9.432691480172878,6.5830953146753,2.083454044123176,3.3930318686160073,2.132975407836721
5.146694518437191,6.050215021880109,5.203394883489041,2.049783118871271,2.3561447180213273,1.8116892822457475
2.2357489147070466,7.714081515846065,1.807722904487893,1.161327797597684,2.2242834352452867,0.17141071702449948
5.884122048933938,10.30770509290969,8.430186145470596,1.2964691046409373,2.513158553707678,1.6562970908534411
12.586498850469027,4.606725907021274,7.434852498243787,2.806853739754316,8.120161907389107,1.1800695857841574
4.517510772390067,7.0708700061285565,3.438717128142476,1.9823975219368477,2.5401437110892315,0.5413739126629024
3.9859883882160383,4.7594488405079876,5.221201493370391,2.159014520508712,4.560509709788357,2.0013676321666076
2.4903729371575487,5.7607548621066735,5.470216560049201,1.3138035195418563,3.666251558852839,0.745526240063537
3.5090018877853875,8.935583216433503,2.865884997396855,1.0151293072785597,3.580699227507611,1.656769467534107
2.5997808095117017,8.884835193126417,1.3751810222815035,2.2327810738634373,4.321989587800056,0.6647737963850912
4.637646744107558,9.493257186459854,0.784327270012725,0.8430572691635815,3.368534845068212,0.8836779325028711
6.3178884640028175,6.499011866046934,7.175589847933708,3.938417207901511,3.8265904276394824,1.706340184397826
8.489628938132068,10.39340030392202,6.512687967316387,1.9337697264260862,2.91286705735402,0.6825629335590937
6.303215773956878,7.447430940470428,2.0099455271406685,1.3963668675656673,3.5507903400664547,1.055625746914363
2.138752177182017,7.548155466829328,3.3651578319388475,0.3666573584909231,3.0011767010242933,1.2148703513304728
6.101321958282437,5.682533591785565,2.2563696074819517,0.6498637858168036,4.2611259773460795,2.049717204620188
5.650410264765338,7.9273445495057775,0.9788714100806969,1.585947496387998,3.985126548153947,1.4699783411419123
0.9477657658572213,5.485821779534037,1.4737604248123701,1.4386736652286831,1.1535804743281115,0.769127709039092
2.074619087850324,7.236069343742238,3.54244170875813,1.403920465075353,1.661138424450479,0.8424993849596489
1.386951682938616,1.6602614423046027,1.4607292105225769,1.602656574748937,1.1355630453437318,0.7936160777320991
4.286541498034496,1.7574626073160147,4.578707528676439,3.9712008445858804,3.6996825647350557,0.9658988890178356
4.286042996760589,10.778132624282234,7.276036236288417,0.8149286060491618,2.576788668376489,0.8351658625545831
3.293804460682454,2.6932359019477166,6.1090146767377265,1.7647658100322536,2.315184076861802,1.106410083345339
3.420064086656508,3.9292839780344764,2.6185326684558268,1.356295635059969,1.4364947413172482,0.6021365616743667
