Gx,Gy,Gz,Ax,Ay,Az
4.831482999999998,1.5096779999999987,4.263446,32.99,444.826,78.506
6.865584073698387,2.3518171737491755,4.03033392923333,4.49563676080477,0.8618556090462136,10.085565300457047
10.298135348951632,8.953067898846783,2.36220780430687,3.162553904139981,0.7194706314446816,8.284449779294299
13.856693276902186,18.653226281040716,8.767204293268904,3.193558694550712,0.7543820327876677,7.316798991310252
27.68991741873662,44.12930991834638,28.287976073438944,6.095584517464576,3.217144454257478,9.846013420441954
19.134954963898114,44.55922620619485,33.099286367126446,10.6159665918648,3.129450568104238,7.13593976681868
2.8281352909058843,9.268106651320847,9.945541397897875,4.967980783496303,3.4648341491564225,8.123224702835069
3.4572323567340244,4.234035021956582,4.0211377297290705,4.624372674867724,2.8246968984196084,7.184024979181952
2.9357264254181827,14.032705134153627,6.185311249123032,2.924935882898738,6.673389745149787,8.343457249269186
25.080535145590087,20.953846864406373,4.6949889829728875,12.464964785094253,72.37191595096878,35.363754330710016
5.316500250306904,12.42154810166071,9.451890358462766,4.281295169906623,11.121603732355362,15.929230548821769
4.354451739697352,12.317287667054105,6.209119429941432,4.700910716643385,5.4288089610751955,10.90941078795862
6.71806909511834,11.127042978846529,8.628964142856502,4.855883213926664,4.471218233497741,10.632613002882856
12.031534929296967,22.296989769712162,25.601822764991795,8.148582313033563,1.9807916649675024,10.81807660815107
20.352996532187955,60.82825160288848,49.59078617443079,29.96435783718863,9.70381491033739,9.93523701940244
10.177685107022393,9.083119323277622,8.76967114061192,6.915275881841163,2.4624754533777957,11.78492822415732
5.557405840057685,7.63649423925168,2.296101383422885,5.175832421676325,3.917994017383568,11.107944360458948
5.148523996356606,3.0420030097589823,3.1643769264388064,2.8975062893563064,3.0065314468758904,13.864297839551545
20.18257344583404,15.093378038877008,4.371803654764446,7.274034375194344,12.503854342375279,30.802466986153846
6.642487151555433,10.365911318027825,9.876346823693494,9.867617115915987,8.318170729840507,7.549678448348517
3.160076748427148,11.85705627347723,3.2811668681204424,10.01979216697896,1.2801737180793495,6.814131582357657
4.590673019947907,1.7236435316395509,2.0237636278757116,3.8235604799831493,1.506741294088007,8.586381703853133
2.569702075732626,11.548828840898755,2.3592499172112187,10.706945990883982,1.516351693280215,7.947488622658696
11.660586571660954,21.8028561699995,3.6183372031532954,21.028582401704757,2.2257187312355415,5.103733932548852
6.072027447354347,8.631782044607636,1.4550935728161472,8.432407304639472,4.882633590514287,8.504503615607272
2.6518225024273443,0.6477849082260136,2.828044291952605,4.105465057711591,4.384462823177688,9.640386568253257
0.760739905675451,5.239941452371814,2.656084608578101,7.132693846741404,3.3839380401029358,4.8925738862925945
16.68165728772131,10.51734917376419,5.083655708904064,9.940050174285927,17.96062828778452,10.115075415992665
9.681704121013555,0.5818089091901627,1.6966561035720655,1.6363380532005272,9.06363616636477,10.189307189934945
5.195512308394602,1.1049922996573827,3.5402810755641334,2.1056027840961975,6.461007734097273,7.217803099598206
3.879540941766483,2.1881590216282603,2.8766736660290158,3.9236285393325776,3.0149253121571813,6.553065064776553
3.878143553138869,5.172818703431453,4.737090773564135,1.899978642459548,1.7245752142740627,8.246435725322904
6.830855949596369,4.277645828074602,8.822222616469803,13.317252212659954,2.034614994260497,6.689047696761921
10.74612097713967,3.2421633729267656,2.0469106507864328,5.8886277260591795,3.824058991750555,4.269742260176509
7.266656903076214,0.7995829008932954,1.0371206908108916,0.6142232136219339,4.180484237482364,6.489448454338215
4.1409873406427264,0.6950214181381036,3.5211606591925575,2.4787822173300755,6.031423847733366,7.9678682219193435
14.735112716255776,2.366960120033403,3.1068316719096405,4.942461687977917,12.117077969525274,2.6807287465217335
15.641875382022498,1.7790943290137888,3.217869185124984,6.117626952432816,11.252095641008133,9.532565838228672
6.991735088457283,1.7831841997557136,3.884695796293382,3.6349546936678276,6.315866341758184,8.539165173321898
2.174057749427463,1.6555623083156197,3.4300422792382728,0.4397657136646938,2.192089218134148,5.903517136131508
1.1997497335634872,2.321500189896425,2.0486333687258638,5.277141058017184,2.192373224836858,6.7768896631843525
3.3645665540921197,7.190911770270884,8.754076675527173,12.00472749490867,4.566999316957162,5.002821366591847
10.988867621057867,2.701963407649906,3.087363753887155,4.176753264121252,6.070984188216937,7.998949829028681
2.910107117264203,2.7560628263741678,1.7203726560990193,4.152050074080835,3.382086533882657,6.494044883670989
7.065847881701004,2.805688916080469,1.913548596200314,5.571356312428158,4.593061491601954,7.208063387712212
12.160555041620926,1.863505138377045,3.766050083176621,2.224830873975991,10.414065618037146,5.972994311657706
18.541249415944492,1.118252044496971,3.602273174493089,4.274099719731383,13.443383173252002,8.15060020529844
7.7669921583809645,4.149322551895063,1.938892341643879,7.10982573751397,5.88152468885093,7.411935832897426
3.982388783870785,2.587121290331806,2.862155238446114,5.459922838458336,1.5195085393349126,6.924570646590271
3.3241152924926727,1.842363924695211,1.0400766132043031,2.6934420427746852,2.875714789254004,3.8508516897089553
6.985510844621937,6.508777387667366,7.7017091384164305,12.21320406203568,5.195980982103363,7.5490848085249995
7.719175694997365,0.35823609501143033,2.8971763398624146,3.495678547921463,5.086543125656662,5.539946126217799
2.122195053596598,0.668352209557596,3.0492769606465333,1.2055961479737978,0.8822276890985672,4.556765421582935
5.43093666294481,1.0570082962101044,1.7196093885183927,3.2025529845590466,3.2104375105319964,4.479815338378698
5.722811497436479,1.5120133011643964,0.7930198913861138,3.2486535056511654,6.020062224901952,6.234508345462504
11.62685734063961,0.6933459275309095,1.6493726030236417,1.4878174707604093,9.137494820055062,1.024426146815123
7.530040103076708,1.750527633966327,3.5242052506603536,1.4226217860439485,5.730722228536563,1.7336652658313674
2.799062285632426,1.3718809150599403,1.8360206089866626,2.3815016351156957,1.4045760647008878,4.55222651168483
3.3147260829405765,1.0767614996472712,2.227356152647887,0.5073836394778068,1.7780515025232984,4.023688115503025
4.649206800524225,2.085251894332277,3.4999584409967572,6.095567480629349,3.4380066471315125,2.7403486876568093
6.800461235076463,2.4676454531441614,3.0145024820550557,3.4781313803516993,3.714161396169857,1.933682849666044
2.420348080959873,2.1012706690263365,2.312526429613819,4.63377231955791,1.2305363753031189,4.415955996896438
3.338943735737793,2.870299835140836,1.5107346787776375,1.1977357994716495,2.3313375455869845,3.265566182343332
5.101819079656337,0.25296101461015214,1.528212667945279,1.3104211713653364,2.8871677881501085,3.7038324907329767
5.460050634727665,1.6347642960350093,0.9766523619078833,2.138749970399187,5.7743041193516085,5.968626393971847
6.564947696408199,2.458510344788565,0.9448502868840829,3.537383072377017,4.171051457437756,3.77170238721137
1.9831667391625014,1.6279463130117988,1.611910643154762,0.9603995772025569,1.0579841811742272,1.723213002444155
3.020597298953308,1.8855441490171654,0.5995473840092471,2.1320830047290387,1.8553847719060694,3.4890771668270477
2.808140118151098,2.8779656553537762,2.012134045419893,3.8241267232223524,0.8975370716281096,2.179349342587684
1.317665251005912,2.322894978072603,1.884881185312063,4.548240387987854,1.8322761212680967,4.27768906473864
3.9091421029015483,0.8627826602436325,1.6930404330875393,4.230883436052662,2.1182021343803807,2.841574604753197
3.538626604677423,0.17839865522555035,0.6906691146241764,2.1290040585085346,2.046903778618117,2.5871621571441232
2.882021692701732,1.9586550431623568,0.9802454570364985,0.5465445994001781,1.623655479705976,1.3843409451202648
6.9236762667961465,1.33232445159416,1.461501063785674,1.1199628117248746,4.595609503866481,2.7913519935417286
4.381226506754055,0.4877521731667365,0.8414451959365756,2.6803313465596292,2.26436236508188,2.1077056837220707
3.605177099172886,1.8695629105895546,0.46703032860500127,1.243830241063809,0.40610890785458204,1.8925286755496462
3.0673987508000984,0.6371584714881803,1.0405051913042822,0.9043326009363499,1.2041915353289836,0.7125928486735722
1.9658750660770643,0.620953902631299,0.14393785938768194,2.7098285681669165,0.4351131105046482,1.9563385448169084
1.1556998276309758,1.3340768892222745,1.9180003702931774,2.7006457457041693,2.1515612732394724,1.192655611625557
4.313411589138945,3.153351434437875,1.2588026116091109,3.002393935362544,1.0954011327874038,0.9541812098920972
2.9241310364913082,0.4586006972150503,0.4646670991281351,1.056443389420184,1.5103844011472662,0.9761150262260252
1.7056329676679902,0.8026082843715555,0.5758690249136291,0.8885628882983225,0.812863966176504,0.7218978799832955
5.855663829701928,2.032808841317577,1.0620099191780699,0.5391846433357944,1.4883732753968195,1.0509003848033276
2.2864458805508967,1.841235881261128,1.2259181620094564,2.3279335415453954,1.1143653593437677,0.1664391102603649
3.831365165178025,0.7397549773198051,0.8744994656986256,0.7900624505330706,0.30816957085571295,0.6939505434290976
2.0049700008150233,1.1147146453896786,0.33466806020584394,1.248758661385033,0.28279503701472053,0.13408701764156641
1.1923853959756014,0.9363534096372889,0.7123750219986521,1.4797531162066286,0.6523490719952725,0.8166002045018262
2.1712576601625164,0.7801812374225957,0.3473989174241521,2.1897925675809584,1.0647031377635694,0.8878439104246729
5.136684577034925,0.8723265537684638,0.2803935048434286,2.539448771921138,0.7198040327265731,1.3392758456910188
1.7076352794958343,1.1822741097346139,0.9160233601454981,0.9540818967744662,0.26774084603076875,0.5075588427135441
1.930476126193693,1.0923164585619691,0.3554993770170499,0.7033809254194966,0.7556405490876524,0.4219283812354625
4.90194570855553,0.3720243565839674,0.6033434738728989,0.6975707455072401,0.5191259398592987,1.5375439626518645
1.0832456140786193,0.45569930330619624,0.6001220402811305,1.220896016446414,0.8149085702163084,0.7654894755560914
4.067535146762255,1.6005782090624812,0.35278089920313754,1.287940026418201,0.22365289779049358,1.2709595583576732
1.307367465336449,0.6151716808520307,0.22904859034084807,0.7251908182442104,0.45166789487922465,0.6090644913420021
0.8512980867699951,0.4161803521456252,0.7029333859847025,0.859715089878631,0.654557954110295,1.39240902750234
1.4691341157330808,0.2503509722086911,0.8203316584358831,1.654659575965561,0.2686260274545702,0.1433653479174833
5.108621720869989,1.3056379037215506,0.8435435878108586,2.0804693066821516,1.4910716688678698,1.9977017310322003
0.6947095770196748,0.12042788771532024,0.2520269223451634,0.39000439630729605,0.3633607614230597,0.797693379011275
1.076905463944009,1.3225750987762936,0.6421309487301412,0.8200066395558242,0.6884230072703362,1.465803993415282
2.821002200840557,0.8661147616693352,0.9131017791437165,1.2115562532373738,0.7775273340163523,0.04038591268969106
1.1390238037671707,1.002225368338798,0.3218181463420394,1.0802299639122572,0.779705340013289,1.3605245323015724
2.8485881194485487,0.45988841183186085,0.5114269784029232,0.7756938966436855,0.6702427177877401,2.6009519398106247
1.2240692446499397,1.3131011848596423,0.32797771269475445,0.7227025580915551,0.987662115183494,1.3649391104083703
1.0950757516132335,0.6783334541021786,0.41885875676508344,0.4612310503860539,0.4098877672567376,1.616431965249271
1.623125478186487,0.712939442417514,0.6393642175515309,1.3231796849154944,0.826535135116497,2.3207697553164257
4.027066463029855,0.6513216269063643,0.7379697268691212,1.1220797340254076,1.5606012776192062,2.4475582393192887
0.784518820817607,0.7566013828153562,0.6706052221315557,1.1288797346192372,0.6079380713168396,1.3370397152259672
0.0,0.0,0.0,0.0,0.0,0.0
0.0,0.0,0.0,0.0,0.0,0.0
0.0,0.0,0.0,0.0,0.0,0.0
0.0,0.0,0.0,0.0,0.0,0.0
0.0,0.0,0.0,0.0,0.0,0.0
0.0,0.0,0.0,0.0,0.0,0.0
0.0,0.0,0.0,0.0,0.0,0.0
0.0,0.0,0.0,0.0,0.0,0.0
0.0,0.0,0.0,0.0,0.0,0.0
0.0,0.0,0.0,0.0,0.0,0.0
0.0,0.0,0.0,0.0,0.0,0.0
0.0,0.0,0.0,0.0,0.0,0.0
