Gx,Gy,Gz,Ax,Ay,Az
5.672957000000004,13.187855999999998,29.69629600000001,36.467999999999996,569.7919999999999,38.79600000000001
12.991475511545719,32.34861294098694,15.719971763929587,2.613094161219599,1.7904144964680806,7.000674646929949
7.624663959166654,33.97119705905929,16.220376036467155,3.850975553547068,2.4643390334872826,3.0077472100704807
14.295216213292449,46.29373315154422,26.85182175995805,5.91228426895349,2.2699503542395005,1.366502698591561
17.904545339407353,89.65386374643666,20.11791827521706,7.39065708926418,3.3810823790017643,4.8940957109622545
33.07173133682853,63.82156118944078,31.012571370673164,3.778124296833422,2.993056678163122,7.5350553658234265
40.71418496081783,159.75911945551292,42.4017232654882,7.366683456289932,5.263908080761745,3.974060935877062
37.98763612297434,352.1627450685973,73.86057026503858,30.80802422469024,5.889076378380985,11.718524452879317
7.000710457073502,39.34414506060232,12.700391816630498,8.056526964031725,2.8419356990793982,1.9973965316507143
5.277423405966927,49.79485402715353,1.1546910514480218,13.19319029552655,6.4260881646404915,2.4374926917115527
12.372869479642919,41.66468052915241,23.476030409628695,13.054326736873083,8.226686036491088,1.8031956067337864
24.589505867681243,11.766686964034609,5.460347959505591,11.588566052545687,17.50338093638509,5.564980713524233
14.130008335786213,24.618335459769842,25.327060296713366,17.958126338244355,26.828858426416577,12.650440439611662
36.34983588172302,89.78019039937904,49.7043430528156,64.61137853999617,123.34028531137751,36.166472346166174
10.902913873279918,124.545098040275,41.88051839135921,51.974929647612036,86.99704511508483,32.50996743757579
18.72365209271733,93.20228673015312,6.140045876233772,28.792090380378454,29.832406071726727,18.09563317900111
17.909166214258544,29.64979892904046,11.84822061764469,11.292728551397916,13.288502497822979,5.075746892433061
13.05441887285831,35.74081403236811,7.65995145573517,18.971459707741143,11.325952095395207,4.755955215443056
7.214697543183421,23.796838178833355,24.25801522765721,7.847832094667185,6.243639024702171,8.089574577473822
2.2828992043981864,40.095857809635234,24.593443277793877,15.741833391524343,2.2100349186050643,7.164130820742616
69.10812807968601,132.16805903066444,68.42128810681407,51.4623545423387,37.17559399881334,3.749562144907827
24.547546507518028,71.03936797924953,9.551526106631105,20.19046045051476,24.411372252119147,4.973554966136055
16.474271316920113,81.42431750825902,34.02385162473231,23.356632079313574,12.547607794881637,3.2698267622122126
2.6563365317665775,41.32169582555798,17.894007840975302,8.710334639262458,12.846639256560065,2.84864954938836
13.763418355710046,31.048779317850265,11.335158146028222,10.684820427167836,3.825104907267364,9.910860735573394
29.077344875927203,22.33449281650853,12.569902865106917,16.140227831466905,7.059127728591146,10.026659875074923
39.981417958673994,21.85440690767123,16.909452133430428,12.911720926680301,15.739850466353287,7.947692088119377
58.327196133236164,93.65539822252829,33.92470897019437,4.167329171862328,47.13309163888998,20.493549761044992
25.820413947564845,17.787541439036215,6.563690610881669,9.520327320144919,6.365692039637711,4.507024049890875
24.35293648293647,30.052649166790648,17.37468379102642,22.068545547139323,17.708076511770475,9.846994385394103
10.342465027344003,47.35523281263111,11.051172351339757,26.370741870077715,4.338586468704824,5.813149428134964
8.19308874381634,12.790740369714008,12.213893579906042,6.083108295755597,8.42690203710476,2.083347786216672
15.852295634878562,23.44442480897246,13.54045260896583,14.33981771517658,5.200881322072832,5.4016529726017515
12.713263599781287,22.652422014790865,19.72192525844342,15.755739226863316,7.746161594448077,2.904641865829075
28.54846553884858,33.40639302409869,60.837538737860214,19.733943308324488,20.242390145528436,13.235771296021312
4.000470920770143,42.41485370039778,17.248600753687764,18.278621577452373,2.654269804129203,1.4521029456371446
11.059922812313243,13.313300015545233,25.327087147428795,10.2451368683681,2.286638214514465,7.368121031135525
6.075484363863342,32.61619470348893,7.268019389772611,19.442764216867467,20.515927304913564,2.4509800866421085
5.1133890071077195,12.980907951427033,14.306596842108105,6.448020980369104,6.1039480960676915,4.713256559265435
35.277776533774784,15.930878601662958,20.701747592694197,8.313359933220672,25.295412047633768,5.313812628736644
24.055853853399967,6.861287936780383,21.564815580646858,7.456640446123764,33.539124596734844,11.755382488340974
36.95115407749979,10.034983578270515,36.579578139956155,7.953071806585822,27.592732311698807,10.720669676225453
40.42669856734678,22.153495649885546,41.46263390029523,19.506486807905315,22.915184637229537,10.733233783911961
9.764744379297575,8.146881960480265,7.116729805079334,9.22493926686553,7.835653493542727,3.7089580894593843
4.381188589489847,23.80830277481741,5.83014971405336,4.290289078364601,4.183097744398292,5.562076175969661
11.68878636312754,6.586803430826106,1.1254612016136125,4.498765256909888,11.312925296934853,4.77956559504075
7.260696940866188,14.278267677713377,13.153714314344706,14.937963800861802,4.038432871614632,4.661731803494811
6.694487746924434,3.7250132687443345,28.16499826952819,11.431101429665372,13.544930323999345,8.402906095710556
19.46084622501384,10.179102576552248,25.8422550788529,5.777961661349003,6.291104522017959,3.899375838951225
17.561006048227565,15.729079397956411,7.656820597804574,13.255621690239575,16.946674882879368,9.847335540408636
5.434680855684905,2.9305433035678674,7.243882460010445,4.411990612782015,15.219958858388242,2.5457491472003086
14.218321337554533,10.221336054762336,9.052474379964766,4.248426081745519,2.641426377991913,5.793036786530802
26.976798434846696,7.260376421527878,13.780488045001912,2.4638620024754716,14.72426202694309,5.952128845737241
15.463543252466856,12.94024297808099,14.309415115966331,11.557003382250484,14.53933020280115,1.8059586401861516
43.329973936007136,17.7830790669982,36.78366541985569,14.884260160893177,33.06596201648419,12.481554581968394
8.32454182982609,7.889924345788769,13.44220845954906,10.596762698280683,9.924152347093537,3.856473548468969
13.221902916041245,6.83900030751724,16.21559017625777,6.121371605226639,13.574644974165842,4.712542890343107
7.364264028015948,2.5757383493270716,6.435393875555665,1.5875773147974142,5.8173686490290395,1.8740648256829446
9.766649020185788,8.188490653041429,8.898363231101042,4.997255316318222,2.776493358380174,4.919047605059052
21.2991906046283,19.671754563532712,15.102008526438201,14.97322791278637,8.207449847601278,6.3355018122470455
18.784629782564267,14.767503093248079,5.973072116705652,6.92850276043233,11.342821254357984,5.872803262602106
29.326855814021343,18.707993299305848,5.739991847985643,13.401166920519945,10.642359630539703,5.067613249570469
16.428992447750904,10.18535933237687,5.868759039894144,8.907747444869607,10.830365492533865,4.341026419501214
7.758901216243765,2.5932286621081033,6.187699078757337,7.931873243407222,7.955190861030804,2.259983519749732
15.494400831995552,9.108344824485435,7.1117675808041545,4.86715312034204,5.64136031894648,3.4659215034282447
11.61137584369743,8.63882651399063,4.698727250788861,6.254656575673355,10.608779607143257,4.583553516047518
22.655295195527597,13.613582986883138,16.41815495372302,9.827270431989524,13.15159266935613,5.885276869676352
26.146570723533525,22.61784536989304,15.706366672564155,11.433521060076119,21.789275383938122,10.545931184081466
7.722485754546423,5.132494336193866,4.792498238892862,3.1202113970933394,12.013701421235353,5.2675049409108405
9.447798472811305,14.859863797950647,8.818814097232309,8.13166853391777,14.851297928985012,7.297476547700144
6.743251550459374,6.22304565769077,6.066516602405005,1.0306383726306365,7.942199510119149,1.084268334470928
16.676956445042382,10.119781325775486,8.462072362939182,1.3804407543904513,5.74728871670681,2.5384705457609873
14.823036132752996,8.961120849142844,3.6078268651856797,7.206275683218283,3.2520971454787815,3.807554877059928
20.601142474855067,7.900092635885149,3.9964866132505006,3.720847784879331,13.903936770804767,4.021884812844855
19.9422672375918,5.577713228001186,3.8576034496462115,10.886346991540698,7.640238095933934,5.721131809111756
3.388874813095595,6.02650102030203,2.6698525490248985,2.268231371414944,3.1805073675970914,1.4303332271982203
22.575095649771853,10.040421949284871,5.981128326475804,10.022983979173802,13.552042815125692,2.9166799322745485
13.881194722799739,5.866690580956955,0.7207967136787062,1.1236340901976045,9.68796763748125,5.790120547944703
6.205087784857869,5.807479224157026,4.337169725362656,3.3043828072807453,4.3120668583984605,5.112886981530388
18.386536704018507,11.627786365381478,6.818402458508276,1.359232725067351,11.47984110793258,4.439669217376911
14.551495186196947,5.400676209664352,4.331449751923779,5.30586915211015,5.414497904267178,3.982486145330775
21.023402006804083,11.323085622839264,5.4268545889840665,3.697299123330789,14.788133873509656,8.630601822359965
7.448592607421954,3.3529512259958794,8.456936679750862,4.808585099378691,8.368135330241357,2.2853489515017236
12.364542154588406,10.965719518112147,8.74320933336106,4.661987247544029,13.436445164638268,8.203621347825095
10.06365809309774,1.5436690380295572,3.078941008228578,5.299138139346169,2.275669396610795,2.317900447760703
2.580591908232699,2.713041917085282,4.231528873410631,2.8045278283482173,3.9671893773303832,1.669173216467705
21.783171870150692,4.452724300933119,3.874930519838922,4.792706787501442,8.974749095872895,0.8252377173046035
8.907145235800714,7.066873812954399,1.5483223382641411,3.010692618470596,6.693397893933255,4.813382947512381
10.788995313780244,4.447665070827011,2.322610819674911,4.062210367296303,5.230636307988597,1.561643935417202
19.581073267872785,9.32374174624791,1.2571627532402547,4.6597971421337006,12.26290331778485,1.6595610226340256
5.6478188523463055,4.935923543276617,1.8973850519040487,1.535816582606099,0.7623308414996278,4.729381685797625
3.164153052608704,2.982273678451239,3.1623017928862196,1.7506125760486742,4.878264802556439,1.426257677596962
10.999067732917286,6.415448233584923,2.254406360994795,1.1208848633425335,4.873048675354406,1.991058894128756
16.800681635038817,8.037321968442834,2.9581469795835926,1.1647893654628527,9.072600355975606,2.4101470952127504
7.896644105715472,4.332288648770917,3.57827025494851,0.1426445810014892,3.1253516124584992,2.8555206807710065
8.243457542645691,2.9425575469939544,3.667820371767247,1.7368455881331086,4.313801296384172,2.26192251816414
16.89678359823013,6.23234040990923,5.416043378062646,4.132472345071279,12.38246719756518,6.651742125090405
13.190168435086964,7.888400294440956,2.64743618834124,3.0869167257072725,5.577744727878671,5.66829757013631
2.1998158114897928,3.2607900072263134,2.3513097794682123,2.6736295589913595,5.126592933782103,2.854897669055931
