Gx,Gy,Gz,Ax,Ay,Az
14.636121,8.026263,12.053441,29.602,734.9839999999999,17.314
4.684619813599674,10.299664105762625,3.366970529906513,5.812515465009065,1.7550317665948665,1.6660341682665392
4.784673029178569,16.040537005276278,3.33677108435979,1.510785684747547,1.2113036499977534,1.1482988976425412
5.895955229460147,17.216058368466012,5.617850155860461,1.7738211713849625,1.405125072646855,0.6487791631146733
3.765091790366989,19.84361721374213,7.964108209208124,1.1976320696112124,1.4026342492516142,1.6324401235762969
3.5828411305259458,49.59262476944349,15.957596368082475,3.294769497189045,1.823515409683589,4.234654772006715
9.326471365508507,53.17026119275606,32.82153388845755,4.724651100703915,1.3048677534997162,5.12247103086666
19.44863309408811,91.33882803331464,44.525628276444856,9.775707562630599,5.85676726694197,4.405844839169685
8.293101488719643,28.14816595274479,7.1657247822723384,2.7109351782862436,0.6640318615698904,1.0926293293575662
15.263557743237188,22.686780734300683,9.10803278611609,2.149682481479821,0.9050674457366042,3.0194863434204238
2.4843260434412966,8.308322474847722,8.52206663352531,0.2948281742019217,3.7469571841860003,4.145706287622417
7.6212735077352765,29.158524368205473,4.595866356793298,3.939146384886999,4.897579653909238,4.58493478048785
5.107308549334729,19.34886356647016,4.439233540523579,3.356554820483729,13.65613978159753,9.311248426873789
17.048314713223178,45.61418716387932,4.957532797704013,9.07732961734409,75.56603275292919,57.490169370715435
13.72804686912225,14.097209224197053,7.20611695354249,1.0757951008612672,32.01611124493814,24.326402427466295
2.0648897836201927,12.572380803742385,13.520819279769803,3.231081133330172,7.376406112234691,8.3215281399598
15.410776712380887,17.441617587038984,6.1241559373338355,2.4044235632603033,3.736967667599124,3.924854443551728
6.065047094109924,15.801267799904908,7.942554454782368,3.8037252017022984,4.060339895045017,3.994561330472368
6.989757748764879,19.192978431117957,10.82357668151349,6.5301111654567,3.494485945270132,0.8569116567471778
3.8752671607389892,14.289541446210126,16.389758035203236,5.749055687199944,7.3820384133647075,0.554775824323564
18.63391430185399,126.60663643145242,99.48347041914624,37.8159029307998,12.196120126979457,6.098716459457157
9.226676048956968,23.76240252194939,17.97012501176305,8.947359538796285,4.944599752348929,4.574834675744729
6.398224310038222,13.232133776388375,6.477071120824875,1.2698028138002373,5.159993679753836,3.6296694572293555
7.252720425895531,11.04179865130809,12.489025932216041,2.6874852609777737,5.991763427829334,3.202922695233961
6.928483428823425,22.647373287272057,5.211735086777871,5.587693885233249,5.4842702881952405,6.847684546488565
15.758171479367403,18.82912327057557,4.93001604566067,4.361501456329632,12.961371014147549,11.383946969477204
5.134208994356119,18.970345503435215,6.842558517643816,3.6784492694872064,15.763693271920804,21.64635332687143
9.11594054161197,37.18231735427274,7.563398215905469,8.220648990928584,11.562888424123543,24.41915269988524
9.307636374430627,25.442933229322513,5.6069319899659344,8.753741606669204,1.7373024126591774,3.8202107852661316
0.3095191039083985,17.2527402149855,2.547499849190068,4.895734540238963,9.642202963508453,5.592887994940956
11.432452359662545,6.281040369958071,4.690969240693227,1.5431167847501992,4.264319868110227,3.702330664779599
5.8013448935309135,6.90756612996732,11.946558172089706,4.260064918223108,4.713442034920187,3.910097798992519
2.654926697535116,30.670696340907387,3.414822677794124,12.148443569493722,2.289333358723482,2.1991137226628372
12.976603750233226,31.46142256435576,31.547633201488143,13.542224792662271,7.3785702253420835,0.8809091122226861
5.842807865099017,10.554196484132412,15.148897462900633,4.781490087234106,2.9949787106381,3.0876535122186555
8.868063723258267,4.016682479034415,6.183878107458578,5.295302421823994,7.662652991267899,2.3903763993383116
8.86373142955589,13.051988874825641,6.811979053767962,5.611495350654821,4.296781988488738,4.826648472364354
13.427112496883044,8.074795606291307,6.772856569194179,2.0805180383965287,5.065684815541058,4.22156315071286
22.48739877648431,9.846884134956086,7.85686643951218,9.783467581226367,14.078676027045384,12.28379116791197
4.142078792304295,7.380720447857585,2.938461370783178,2.2499510358082877,12.636627380151259,6.072920150639377
42.91142070749394,25.57836687416458,1.5696041315907356,6.533133688671144,39.8694013934213,30.641097934545023
19.494324915788543,11.060364255808885,9.73359036648873,8.100000357931574,17.100228641242573,11.15813511716461
8.461646610467122,13.499707951579072,1.866431498918702,9.102929221831127,8.639218750293685,5.328540641222384
18.549407835332474,5.937517624854195,4.036246441932785,3.067228186672062,6.565984556909479,5.532058645085723
4.6977068762474525,8.881278943959355,2.747731726241485,8.102749498406682,4.255229229602862,4.707943954897545
10.342663286740361,6.197672947369119,4.7699525527862034,4.544858047511021,1.8301472594836894,3.8076615696051985
15.393821843351793,7.8321516118917875,1.2274282612035345,5.745882766071971,6.686881728535859,2.8814070240166445
17.885773684951058,21.42027089723359,8.933096526344034,20.422664817228835,3.442908432720451,8.245364065287275
15.454312100011917,10.341382883002492,1.420300650655417,12.803837444621436,5.790658280835609,4.005996069790141
11.678877418418333,8.956077992279058,4.80111215824514,10.007798365862463,3.5407043467582793,4.646979182058645
14.792619334098001,1.4810972235416155,5.427700088773266,4.275913918985866,8.126883223567642,4.925460815249777
10.04038080681241,2.5447073123921373,3.1466171061235433,3.679258605683618,9.509225873959545,2.3998286260737625
9.333297834083014,2.5533499398135975,5.719605396724556,2.520598777165779,5.849482533132077,3.86647979839077
39.25762553632206,20.54757796045187,7.090008412140633,11.863939259449305,37.09259192383693,13.438907210647232
25.991297153056554,9.690733268300594,8.371876041714449,3.532922001520152,18.64965837370051,8.108322236679212
2.0770343810606815,1.0287670326300247,2.7413049998262733,3.2643868702428316,5.871662145197157,0.7108931903816451
13.043563817354467,2.029606335015858,5.252077213325941,3.125318954157623,6.006942463655686,3.6074483806337936
11.135356781082905,3.292804083878608,2.4300099847113996,3.100644947964082,9.004771941445423,1.8993346523181287
6.495269055810343,2.718508266694198,3.100721370529654,4.267314170289827,5.9954901960920735,2.333466058281742
8.56925939486772,5.028859959679794,8.371850965333666,3.3345925058398733,5.292501057803014,2.3886884690641224
11.43609216014182,0.557549134773327,6.922819205483763,10.14823998936068,8.36276671075231,6.256053236374167
5.1358093474501665,2.2755291579430654,5.851969827369658,2.6279692875934964,2.8170372001004336,3.942007445503281
7.961234407057367,1.5846437058478338,2.1507716048157706,1.3291174592232087,5.135532559449792,1.5598157915242743
2.81824407650107,2.17445636807112,4.533060653482325,1.7928515358555004,5.334699882951226,2.0620302982838288
1.705911114372908,4.7663019308356835,0.6202488076770163,6.510480413072806,8.425364339994989,0.6584458749487597
8.040361740860181,2.447389656614248,7.096032294577395,1.9821469795983007,6.401550993227534,3.0425244739784536
6.362024150758764,8.57181549255749,4.059647770024719,5.1125646524363955,15.537602216219295,1.5269117312027483
7.950639666768139,2.1815854259469663,6.424966046199507,1.782313112478591,11.88496668188362,1.8362512060668514
4.674335860192519,4.088917261284709,2.2989724332512806,2.1815938430847868,7.350531987643014,2.9053545986836973
4.258075809361286,0.7741744212668972,3.7531852039770834,1.312744933324105,4.8713412751421945,1.5214071648620706
12.051645028206032,1.6484408014077372,2.053973759157373,2.4432559531726112,1.3831563527742365,2.596103682352901
7.341361395288286,1.1676134264578333,5.0192683832098,4.6207089481182955,1.2059936988231257,3.107500357235805
6.5876413163982,2.5241692171348866,5.243398399720614,1.4409151118462307,1.5745906566025518,1.705000475200973
17.152027952105573,1.3688970899316704,8.732449198650318,1.4863258811278435,4.685671611114062,6.684110532354742
10.502905833724546,5.147844871207218,8.36018957464236,1.9118112315729214,5.090387936879102,3.307924962070713
2.3969362709580637,2.8721123971905826,1.6934118661094157,2.0939690168059513,2.269667803898173,0.7551551971223237
10.403456161947494,3.957908581221935,7.668846043904829,1.8681592436085754,7.126501287430474,1.4293096152990763
10.349543172079018,1.9032513201001258,1.3394880619698049,1.8312615440137856,2.725806478606556,2.260343362578195
13.890428320300945,4.930025598267916,0.40614920542490807,1.6794407542552037,4.351235169839821,1.0554109656201724
6.857565275792763,3.0013443689653414,3.809639725683689,0.6324063537068018,4.014587837305963,2.832838379863183
8.221966782863445,4.0083632535581915,2.460054866113588,1.0310502884784312,9.040889585228323,6.047934120465504
8.062173173695003,2.091473852828273,1.1832611375833642,0.7459132882564689,6.633899820038974,2.783012345643164
3.6046595141477678,0.7955239342719017,2.001193037222018,1.0696642745570812,3.676349299549656,0.919753207924291
9.2127188304899,6.865632742362177,3.3746355789789844,1.064697515664298,4.448342909510503,1.565491725833136
3.7906051662658298,1.255243480029763,0.8261654977210884,3.031478621540515,2.3420026854609977,1.4731381448827154
3.1124342794409317,3.3907609481557697,4.186795048561574,0.9493561770909796,4.304163089101802,2.898096672681
15.271073882701865,2.5936807289770347,9.427242212605796,1.459261441069603,6.017746392103976,1.939570235980314
8.863051144654593,4.96952448136289,8.324760137156343,2.506231568024801,7.288269780540684,0.19301302317330316
3.1701858131154155,0.2248105304881117,5.818418628790708,1.7033599148579208,1.7083838039762942,0.9267344987195257
6.8201510945570805,4.283656669386961,2.620983639712151,0.3899563804089014,3.4395166026007105,0.6495466485272957
6.3696393222353604,1.8744434916525834,3.9346447994861045,0.5992225864288537,2.3329549994559247,1.8084651288245468
7.884053769243015,1.2702004575141579,2.443417777252545,0.23091589438841478,3.2969788507241087,1.310722321306692
3.153991840032447,1.9763315097629168,5.016756964752865,1.50982904848553,2.898283802625986,3.254148227849642
2.4126892635612043,4.143133530061226,2.3602243122443167,0.39585271445294884,6.233065681730081,5.525919367353299
8.202557845069059,5.5816392818871945,0.7041017490851054,1.0048899062460317,6.6661658700469335,2.7192024878043126
5.162485034901773,1.6025185977158214,1.3529552369859823,1.4292210826786305,1.6598543978963138,0.5109010125956475
4.774910719119897,5.328886902858543,2.930758616196903,0.4810353073755049,2.724690357685817,2.300730569030396
0.7673011101905248,1.7643576629304545,3.5085855038765814,2.1636074837638626,1.4955063645289695,0.8482590892820566
4.736049832444839,0.2966186220053992,5.310269207516162,2.1537844134201745,0.7380381808427127,0.7545535943191714
3.667556297354275,2.783915851895524,4.343632535840859,1.6039456083901114,3.1500091105473373,1.388321171134493
3.200886785935715,2.9017640194196526,7.984135119916897,2.8466233511373646,5.182638732334595,3.031367067546333
2.2199431542542936,4.643518955794206,4.5665299539692805,0.7513195030805099,1.1306020115924813,1.16429279630252
1.8801672699797305,0.772604066128531,1.3550196332967774,1.0405340181707368,1.4320095542765248,1.3304221775609089
1.6560961324018995,2.9208555797585234,2.6064855808284664,1.7783528658337584,1.4617090548479301,1.2277628706046104
5.0463787085546965,3.7278933291402176,2.119668075399095,0.30753410947141363,2.316798351982868,2.0673164445745407
4.739108064346884,2.505051306365366,2.8386958361077546,1.7245762149868737,1.1250169168270279,2.5888976332484974
3.02814126151115,2.510264785893326,0.6889344769960889,0.7819212194988251,1.8958456858346961,0.29512486973208296
5.318900664331579,7.525655762429888,0.9882854905616216,0.7771723119766708,2.714762531519246,1.425684069749202
5.77642726956185,4.161502740406784,1.3466603712168388,0.8593297421880577,0.17250909569950543,0.8812568991507606
4.642190301645564,3.5394389628909173,1.3889700971368664,0.7826307802490591,2.174578204739584,1.685804093480263
3.7487049662581136,1.8526069820320605,1.0430025487650543,1.0184472927743045,0.7546478686997009,1.3095790590809928
3.3253773999245326,3.1844250154936358,0.3589254474323994,1.5044675711596625,0.5853823158867233,1.1976447712998082
0.7114303738051738,2.9252411672190908,3.0727159225685496,0.6795013597797698,0.895544927661575,0.5118768436949814
3.203751038037056,2.7258601170077004,4.120731629693142,2.442813739252898,1.8723694087092366,2.866836093823571
5.735483298957204,4.821188650691979,5.710592888497306,2.8798670568591396,1.447283973857617,2.8738183987866086
3.589118604124834,2.6996909979564836,1.054270320647051,0.5674939492144986,0.6912263793195685,0.9568546586364585
6.446525625881114,2.0073900597959513,2.162447114132274,1.6359467245127655,2.1399748355943915,1.9775874464205327
2.739205181310762,2.555680856464025,0.9351748419374882,0.2633673292419161,0.9635792464697743,0.29339679255237583
1.8180518441832687,0.9850711685010773,0.9781533775676992,0.8982723351575924,0.7000669658299915,1.1334490951292417
1.3769654860143847,1.9913161102544263,1.2313879211203687,0.8785020708520861,1.3436210028970688,0.6816792449718491
