Gx,Gy,Gz,Ax,Ay,Az
26.294425999999998,6.991779000000002,3.121089999999999,3.5599999999999996,526.112,5.130000000000002
7.953744857765274,10.485044102099742,6.108493629795204,7.254291717140332,1.6072204618418926,3.6418462958568183
3.292468266501216,22.966597204840905,1.9522945814563026,2.8818902541698366,2.344633460281449,2.855547679402955
8.316545498575111,36.95389389469273,6.7550755496018775,2.0282241337224645,1.8471640237806093,3.3294073119844496
16.827010896756807,21.779360883852725,8.887998767528037,2.1868725774057176,2.946719046857677,4.8367257607300855
8.391738806501259,86.1181348071645,60.59433423081017,3.8243304851602993,3.313563849146302,3.796449233499919
10.820876878235449,38.82919446617481,12.326027928535034,0.7497315204772206,2.9685969422699676,3.34199030630916
2.0128507473259143,24.865775537696464,5.591718868508543,0.48281349977012605,3.819971615779124,2.9098593417271275
4.102769394879556,18.918115496618864,6.6262165350423645,1.7901858832289161,6.579543578632665,3.6217243747293324
7.50118181945644,13.22561847225457,7.942384093344808,1.1476959001552618,23.84350436115322,14.723865671569127
36.49513179808897,21.67238120704088,13.56789037583711,5.961933505388825,82.76135330867378,43.228243687142616
26.86233939077379,11.377543187887504,11.539466812982946,0.10281562403947629,61.327483278572196,35.40348041824728
4.392883395111959,11.83073104469147,3.069426101274705,2.814796475065455,9.991831365849793,7.249175178162431
3.300508638810407,8.155285855902374,7.752855869958247,4.210796578920698,9.556457338792551,4.586017693881318
1.2903399303375154,24.825358481881967,14.271305679514183,5.919609298840259,10.772489746109851,6.444198279317503
11.335921178181046,52.344509584769355,23.793371365407992,18.897477842081567,7.829523936748012,10.772885739163286
14.559820562250655,75.45800675543857,61.58034456654197,23.629664934657352,3.6466341264709965,8.580957272575018
5.726894516163169,23.72421618169893,18.00708735283267,9.439925385609264,7.739824252421122,7.922004917452699
5.62188169729113,12.864336197388239,8.903315166190895,3.987075326912936,7.863355951069707,6.78979267452916
12.265826412697566,11.804606062781524,8.315078177832872,3.1699207007363395,6.046929168628657,17.42717516460628
11.887593897866774,14.212305553151618,2.735889114953824,3.513828211516318,7.489775223313931,12.051909729050138
33.911822191945475,20.900198406672633,2.4137357967435285,1.6800902132080207,9.853288169449554,45.28057754974474
15.634154112802202,11.03526516266793,1.3456693662246242,4.894171817444577,4.971647510362503,17.334179753852975
8.767519393818473,9.990768674342974,5.171640598481799,1.1233420021621834,2.179215985279329,2.863911356026137
11.067733610560287,10.6773391277129,7.586607211773676,5.358691819054263,3.1046944016823748,10.149266106400523
6.109318996411974,18.232132469557104,13.990291597094062,6.436270491508755,0.5167532592357459,4.344084873046216
6.04094062678068,3.685732333624298,15.397626832446768,15.877511269085344,3.0307965934827266,5.855011820692314
5.5682686749932735,12.054447849435373,14.391102056416893,8.70478698566697,2.8773663946709487,0.89460136489529
1.5444596319240023,11.382136595799295,2.684633410206028,1.4077475422682222,1.6676205819795684,4.921261167827792
6.225575806941627,14.622923134159818,8.09860607337054,4.156139760493764,0.8472754727470573,9.009308705291913
7.535280449388112,7.450639883505014,1.621497300236793,6.463824171079228,4.56639197476934,9.656106072221183
9.68909249882903,8.828658118646695,6.704998367034975,2.328216597964574,6.474823928007415,20.61131203857933
16.191071722424685,8.882250866784567,4.718906982631996,3.419159519067116,5.06152323520779,24.75790643858299
3.0287963816628745,1.1863307358890092,4.511558570919399,5.306424411127346,1.2189567035643945,4.821893105951501
3.215049592229072,10.051311298479135,5.346103057003272,5.853068385625431,0.904759686384702,3.4594397784149757
7.053477929165268,9.56806866303943,6.465884603392812,2.628181871862056,3.2424935838080873,4.842625337819758
2.437720149906518,9.27326562740145,2.7869164311262886,6.429145843712688,1.1325714400013995,2.7362482615466552
2.1710493599105773,20.59979384359752,2.531942920178433,11.934374151509193,1.897247567802493,1.856417629785532
4.573707505988737,5.88253563122488,1.5441810023974578,3.5901852440868627,0.49110875123471076,3.497461191727888
2.90397475135331,8.11203978496521,0.5646017941757923,3.719214171076359,3.300520704262273,3.6819625244265883
7.251040164762264,5.798285788257754,3.3741673058328385,8.194359173375078,3.960105370743408,9.91235435161035
3.62873811452762,6.07401146352786,2.8512591617926235,6.038289742698946,3.848448937637561,4.984848131306442
9.84409925586229,8.23574532855266,5.327631685372089,7.9089178422272655,7.595848599679506,12.622074624356314
9.002095272027468,2.9347416584106187,3.6702567645284643,3.720733127824118,6.5660055120806184,9.30638252276958
1.0315128227393413,4.3715612978111595,4.438970334797516,4.729667462733179,2.60945809533238,2.3124539925000938
3.6176382317745794,4.150276378055407,5.526264524222845,4.971631681269036,4.890597516299474,4.562634227767365
2.2309087990595335,2.805159866385803,2.8031557141496486,0.6981393915654533,1.6099288424315334,1.197874785204527
4.366581413235971,0.7025808623815312,7.613228627965338,11.871848721462666,1.8274999029912122,2.7330228872447897
2.3636948450322386,5.8579844078858265,4.594478851037556,8.70746374365757,1.5101857168014283,2.8359193481217786
4.548885694074939,8.976082003387324,1.6642729566268024,3.0074216271549137,2.7686926434755508,3.272491176928027
1.4956533991448888,3.394346533324159,2.4188106557579117,3.242606036398404,8.747451710355145,5.069148869466056
0.763974688958898,0.2855970644965095,2.2382169001610612,2.603762516765252,5.525052153986469,4.730807426622599
3.3603144167909456,4.951360141787425,4.451096008188112,4.8310504506925325,13.538492362139152,8.898929357239856
5.97188892521042,3.7621104955585425,3.9289286511506534,4.901058470878115,17.433890977331238,12.741376411907774
0.7520238267367153,9.658300884464124,4.375910352996234,3.48694308745735,4.877707668755005,6.494343526150554
2.41821001431302,3.5181652972698823,1.077452085767368,1.5356482001082157,5.310199117178504,4.650415572046021
2.440687592016415,3.463726154304395,1.3889488780330363,3.9558428370308287,4.556599830445018,2.027091538241664
1.6239375755363281,0.5951603009984249,3.7228555697388552,2.811584232427624,3.6560333617048273,2.2582383905856673
1.5724881301217306,7.397268197941923,3.8763118432793955,4.453895974697618,7.654356827448211,2.9999258351381464
4.15016209146733,2.1013403884322535,0.7411264640061432,4.076583677491285,3.566801698144496,2.9695721108910282
3.3438118193229154,2.2352514778281343,3.26994438939025,2.696982379324398,8.57349726649066,2.357765247677654
4.689417174443835,0.5090716689226938,4.078057011143631,3.4170818967630763,14.338097705468062,6.500778778764819
2.6299583597411553,4.682328984310664,4.888040321538528,1.0000336791756113,2.655269267598913,1.1256394716305222
10.102838662032193,0.3243052624116717,4.056214220317063,3.763807682858268,24.2174754259865,7.22101228405173
8.141851819974656,6.855180863788632,5.840565952469308,1.672475868684408,18.382926107303394,7.988544029297561
1.9450306096615702,3.1904517753127184,2.381654414998688,2.1984583051724402,5.987309047635903,3.8812210024996894
1.3204097665518721,5.415970133304655,2.5792699013359024,1.5906949918780537,3.35517576337409,1.6135434012785925
3.667289266271592,1.2898087123966724,2.0403976181917067,0.41953004237596603,7.690127950960599,2.9485546322675362
2.477227446270429,6.280874872804855,1.6226842951574498,1.136965163959781,6.246439465141931,1.8354473162618425
4.823846735857241,7.6534020380351935,5.78457975193355,3.0586892622676976,4.92955557489511,3.9844934622357537
1.7421028082994878,3.9762629540356538,1.2644142950186226,2.1406314520422853,6.095841100203854,1.5021751232570897
4.937780447749961,4.3929983372449435,2.2275030120986545,1.627245657643992,8.77096814196289,4.603090447644053
4.948605582657786,4.202189080708969,3.7983542443018217,1.1282005850989822,8.736210053674249,5.443554182808797
6.010577893593203,2.0110076703760384,5.031055230082976,1.8683466541104659,9.446678624178087,2.410429108736757
9.688450479478982,5.01969339777244,3.445378704496947,1.283523198281877,17.362570916659113,6.054116874580273
5.958633122610232,3.2614652196747627,2.6097358327353444,2.685337966951529,11.133463150447275,3.8149631345038224
2.9431213958628786,4.30556872540747,1.7772131432971825,1.6441532590556447,2.5963779211816767,4.530286694902155
3.708941986270806,5.071660767601684,1.2922523222658095,1.912662154401636,8.541069440025463,1.5172224473693667
0.4747028063251866,1.9848205677120443,0.9712397328962763,0.23015096142993247,2.4907707894366413,1.5474879818637937
2.3823436173083157,9.209283803877604,3.461401199676743,1.8065823614966,4.016508523800411,2.8639376834894708
5.090134605011462,8.521208722157557,2.9476153658700612,0.9404229067825248,5.377960929245633,4.263052058785388
1.5640603985754689,0.5618168176320304,2.631963383600644,1.0442856376758174,5.100467671181239,2.339436408197278
4.8511867250831955,1.0509235020306709,1.2644040801982137,0.7525249304751639,7.344544413440713,6.194977255759764
1.3231761921408174,2.2940542853514074,3.447283972038928,0.9121243950089961,2.339901216748538,1.3264309881868905
5.670191089052847,3.43495986304675,1.650047001132728,0.6743852108625265,10.855056642542513,2.982841705820884
10.896398428974187,3.9501281930355834,2.8648979766547713,0.21751422545420035,11.449622632566683,7.330642298516493
1.2946013555826756,1.3490257390684413,0.7813375578725886,1.3304713038005445,1.0459439619517408,1.4938911813037317
2.0793861825008726,3.0361981680730517,1.436174565131329,1.1093813192918012,3.6481430552957175,2.926501092475734
1.9767800732803547,3.965243247601064,2.161917408216552,2.04684120487896,4.634767419204837,1.2916381016869565
1.0777369660528342,2.6335608678562847,1.2267948518913265,1.3779728478163744,2.3790570911862656,1.8576858454259577
4.901898616216829,8.583378536443293,3.2776360057589096,1.7604189172059337,4.8160010040044545,5.25013125347712
3.4276687564705015,1.5150880791764838,1.2381181454735013,0.3934342116045251,2.496775157429552,2.3458223870615607
1.9643842454856837,2.041199928359703,2.3533350797083497,0.8596460167051063,2.7217972339839247,3.433607418555392
2.5155913381314,0.9659474742198587,1.8748636658032043,0.8783432815367468,5.438523621554321,2.845107772077234
4.479917454101252,0.633349573074082,1.4287377117756976,0.32985908594892666,3.583705741993195,2.104806619629231
10.801924827646827,3.148217124462608,1.1472602084061845,1.0492606162765836,7.262294785039577,6.848504105714299
3.714864425111008,2.340619565663098,1.6049083522016803,0.4335430470691348,3.7907097731378068,3.754519678264303
1.3290667484262448,1.4084691302711676,0.9697463592392913,0.37947704936441856,2.552576623022914,1.1092448281936138
3.70133306162825,3.6747757439291466,1.6875533001644962,0.6471215773926492,4.785802694028475,1.692834282610293
