Gx,Gy,Gz,Ax,Ay,Az
7.446120000000002,10.343337999999997,4.1000450000000015,57.23799999999999,427.306,74.78799999999998
6.526909601872504,13.832977736486809,4.919859232836094,1.111730758409683,2.4645118373837587,3.040436447413119
7.438931465728957,39.12734551968323,15.520792168089676,1.493116476475888,2.5088529188896938,4.777860082948169
13.994707492168072,52.66782737344567,12.855352759201665,4.684412658130301,4.0866123602314595,5.76676180205233
25.692987166865034,143.73213696816345,49.01566689578864,13.197393384204076,5.546293044709104,1.5512985026686235
5.776908663792838,19.543084219614222,12.74784518250124,3.2797423227441165,4.409347563838791,5.547332156017309
3.7827076057010007,33.81305595724543,10.117130211776253,6.13595866923324,8.832543339903765,10.296079552062972
9.753770516802156,50.419440457309726,11.843281957586813,8.351363775033326,11.085322860875806,8.027571196979912
34.334342677259045,50.50194005595882,14.183728682389173,9.68037865161796,37.858644999344094,37.18269069743716
7.729859083109052,29.481498347874922,11.049129381034478,6.131351888064986,25.095512780974946,20.288316775406027
19.050408006842495,21.080856095770255,18.77807723579693,6.276166253542282,18.725615533111487,10.986360051268617
25.596189537538706,27.481785750623004,18.46180392962231,5.767751739505663,5.628850848254574,4.775913134105121
13.502285277764887,34.01940877145083,49.01166485145387,9.053181006897105,4.761607906848114,3.7474792956668646
11.811865562061973,32.393290489296604,65.91495064747647,7.1768034173293,1.5523295459963637,8.792787052281184
8.93527047129488,9.00067572895354,26.186833892160728,5.832232506907181,4.045662313508016,7.134089638436431
10.824868350895347,32.28201417542013,2.243139077413057,9.476597698407195,5.009875191337134,3.6229575939909244
6.837858149101079,7.462088984242119,11.002607875688538,3.1629216566521086,11.65085461055544,14.121178507060792
7.983340542741475,25.989252007981875,0.7204565163430722,9.63541826616226,11.853065826995977,15.00271630997022
2.5393511063886303,15.292019431357994,8.233379400571318,3.1703701175290897,5.431599973119311,2.6237643704539897
13.564574057006325,24.616305907029666,15.181320562694022,10.847732543484225,2.8137659241194,2.299109830942895
7.3047638136522695,2.6385734833038583,19.850533214378107,2.7853786632593827,2.726467453567771,1.2491713632752173
9.371218532811504,17.014504732248316,32.557955566775455,17.928699154385512,6.720362684832541,8.74589943565994
3.9385823115513934,6.478121255370536,11.162825329332536,5.169359771592014,4.658764946683122,2.4622175181419905
4.125748555808996,11.839843181972196,8.173881692230449,8.679908567821546,1.2004545331450818,5.33871382497543
3.3074626590253664,18.409429873324502,3.2111761683367215,5.852688363803048,2.89932535581373,6.198867130362851
13.922818089695152,15.97699044630301,7.281060478927344,13.739107496868941,22.693661323966516,12.283740120428579
3.3710357745823565,23.41586702511637,8.451383816191868,9.579061701305053,9.547710064909449,1.873736116241929
3.844764514115123,23.71007662790417,12.711960935602653,13.888854820746504,10.149580615132912,3.0153988048835942
1.239003067127435,3.4941177264282564,15.606208283626435,6.680261241041881,6.9330652655152685,3.539856076220939
12.992977931934423,10.528460354017831,26.26965766079326,7.965836496212356,8.451086884117478,4.643106070442222
3.9658245958387424,6.429565442688598,9.334825518661074,4.241257883260901,5.774232307130042,1.9955941907337331
5.646803002588186,9.446491616246519,9.474370811486436,8.734346987309166,9.83188004705529,11.03282501455625
8.953077467361384,5.772799817152987,9.641088381293347,3.2923215948959865,6.464624091791241,8.361256495998068
10.144422663470156,3.60213599927869,6.7822545689081135,2.699213438248822,15.465136332370584,10.121733745849847
8.295784002865481,20.320572834639684,3.408055255637963,18.217675139766545,5.126984272217782,5.19630921925667
10.814628474367588,4.577248802688178,4.23246608354191,10.409503379175998,3.5111138498981918,5.505030333192076
3.275588950503491,7.133757979826335,10.6097914944683,5.597537583308311,1.1304972754875495,2.076007252341554
7.750714735077921,17.748837189611457,11.136959827136009,12.22905317582798,7.564070689190716,3.583539545372302
6.842947575423274,23.521456051702575,15.048290652137634,15.328286494547774,7.140062281181611,3.1704183585947048
2.4548916204376234,9.587326532433298,8.628280274692798,7.707889752606756,6.0498122373774015,5.112504731381218
4.061608157313031,5.5682064042848145,5.220766264879819,7.107329388325699,4.105296980402792,6.737263461519843
3.8588901061825798,2.5725945426279186,2.377571663922492,5.73993391268909,9.666805861295849,5.898539149661389
2.816523310900026,5.785727772591899,9.378250849309302,5.527121212094303,18.761664826541278,9.146324367087104
1.5811329511755097,6.557207137828612,5.315842643568765,9.063409851339914,15.761760641543296,7.730344521917046
5.560399147271691,4.962547849760896,8.127954008362165,13.084973168177143,6.879291425050105,4.499764083800786
5.452897765321981,12.251466524750526,7.54401464058582,10.286698909206471,1.008506522242135,2.4842038537933155
6.301049702669086,12.107442358012475,15.355281104254825,16.489042164446833,5.819384884585369,3.3335898052007606
1.5441986593285315,7.023184384019153,4.885505401808254,8.295574909233,3.969121877089025,3.552800031327202
4.704497611066092,6.76164056140986,8.309929967584475,5.7191130243665915,5.218443711799274,6.497564036064541
2.411549394546952,4.86484431665794,1.10140348917733,2.412600821429532,3.1963093878834785,2.3752897323421984
3.4765347792281904,6.214690064743202,12.728609087927339,6.1163843992574884,14.808573920857855,9.68800361554676
1.826391757661199,1.3332389737945434,3.620599982109917,1.8572677755003721,4.113563527483631,2.3715144804986688
2.959323450317909,3.82605920094104,7.059689350274696,5.769876197405802,11.190337462835277,7.343661863322386
4.2516626441192065,1.147709130149562,6.193074223746219,2.4644271123223134,2.5265282199433825,2.4590136735617403
3.8356698822153543,2.9353923065009964,11.33627248733967,8.776610298366034,2.765981377676971,4.311149667080271
5.282516378141112,1.678721925570495,5.9156980324994946,2.4041275944987848,6.626150285059174,1.8899243088995272
6.740001058426833,3.630177019661316,10.547717248407583,6.355517243859257,4.860473962600867,6.279851043762231
2.1074951163088507,1.991321193043821,3.7882693202426423,1.9760631160016646,5.73762247424393,2.492627348404993
1.2179477363120514,5.386738862108348,9.430622483027394,2.8110596062606725,4.06826845696667,6.125363077177637
4.514769956594369,3.305352562786565,5.620407100451483,2.2437583524895692,4.067937822504256,2.8460900961738433
3.8013658189903965,4.472357413705141,7.847996019820345,4.670058792230052,7.299560132081952,4.0766210103324365
2.0281824858314255,1.0627577029381823,3.505783803709642,2.4186398879518025,3.5558439403927027,2.4560637812326647
5.476262505205335,1.4154806856220616,2.2581294832569747,2.011635209948395,3.7052383774785307,3.1806125955031552
5.141839029156175,2.289892709060408,6.214107425277576,1.2231066221316105,4.689844372864327,4.079585029684497
2.022614321806493,3.190739923817004,4.891392025037142,1.0880002266097886,3.353949940611412,2.896698877130746
3.051787900864709,1.2106369823767154,4.110605639617898,1.4074402139435012,2.7518027889022156,2.2305531779201253
6.222206796328784,3.7625370074323268,5.866584269729156,1.9602707034311877,3.5630495168731726,0.8413339027148008
4.867021379449885,2.371588267513208,3.2223444817679034,1.794297470356576,4.208112818076233,2.3290771574107367
0.8777616537580905,1.126246385470449,3.1857821599977583,1.9104926235361748,2.1239233454455686,1.0282212465067904
8.2411124045518,2.0876986325348,4.126866424092694,2.0354912573019783,3.440447725760396,2.4147262073801823
3.665626379039122,1.674190962599089,2.0773932062365907,2.3585697114496917,1.8253212968769963,2.545074991743746
3.406988672369261,0.5310821697327236,0.9627937455208084,1.3365789307518643,3.048960149565456,2.7736181466552763
3.1457951106127076,1.8554083918148851,1.3937807955822303,1.5683804501228773,4.1431638953620356,1.1106899866243738
2.603410518414607,0.9209520161964576,3.055167638356545,0.7692218866085078,2.5816945239350075,2.205821023433036
3.707809873910882,2.5732160815009997,1.1236666073524995,2.458314754160789,1.743281749216574,0.48145318331345455
2.3935407493287197,2.6256323064469216,4.510438533534436,0.3583843124673689,2.487516931069381,0.5316697910456337
4.661566755920432,1.04864775132639,0.40548936556125104,0.37397370130917224,1.7145951860437991,1.3792980046937855
6.209630121224439,2.433491642956298,3.2575075613702964,0.3187990871869582,3.3688101330121865,1.8967333359483305
2.912488750917579,1.5819924167272947,1.363529662302172,0.93636779885462,0.6054094576083361,1.9737935336811356
5.0692620885474735,1.6931054554576348,1.455717051676896,1.3414712768268715,2.1156989847923304,2.3211132415361995
0.3473501079463469,2.3325049107202984,2.461617204204228,0.6130790392830087,3.2071871083283012,0.6514812998970936
2.7097365371113407,0.5842027255391764,1.2438916205962909,1.1261184823799397,1.4999006010732465,1.5571614086147605
1.8480177153380606,1.223443110288877,0.36651446218650136,2.769031012783442,2.4661015910247603,1.2128339240445027
2.966613264617809,0.6075384187883864,0.5621496459214324,0.9279861995489125,1.8417786095888513,2.019259114439163
5.096340955896522,0.7459539899292933,1.473143808258622,0.6520374580786814,2.45534676240874,1.668473203698357
0.9821436161538903,1.5603830666160081,2.669045794606417,1.5407603526597085,0.8787320100935191,0.7813454537862328
6.877187054907382,1.414872839798568,1.7509720407666758,0.7160600057384438,3.8788859054982705,2.814075036258392
6.189376812979883,1.353635783757204,1.5584301685569222,1.4090315969072944,2.6286061234911573,3.2729495815212637
1.6155388621074214,1.6640599803836018,0.5434764378092023,0.899974998851932,0.07118243220981914,1.606665102988717
2.165910075056205,1.0269485201181972,1.7329874102119673,1.2868380257618106,1.2236462219507633,0.9902698895998314
1.2414792346701187,1.898837614122859,1.3851828975166354,0.8717080233533161,2.6088570661415957,2.8370302399772567
2.6732703568573286,2.6622779380635695,0.7757731916741728,1.6074108517502503,1.9452916273065586,1.6485435932058445
2.6641605374591446,0.910620394484416,1.8893083540149747,1.8485825370112352,1.5845771969486535,0.6898172856882172
4.990046331160824,1.397989593721773,0.08654916312189856,1.8003584082756732,1.7635186002689356,2.081308500530917
4.6086137226505075,0.40342398341475727,1.131250347954646,0.3373986646519797,3.105503809748909,2.1290482662458774
7.529573050106467,1.5432928495087723,0.6524169285709842,1.576964883297036,2.5062154951609164,3.4237175346959527
4.653508275164393,1.3265112930314313,0.5429932486270268,0.3176023359667547,1.7679224312458688,2.658081223629276
2.1595894608076414,0.9087590118453293,1.2275263929741032,1.2412804019356913,0.9807779002222788,3.11671552496716
0.8770427167441178,0.7291610287372723,2.26746802748846,1.8606020327002872,0.9583909695394466,0.7837205552208809
