Gx,Gy,Gz,Ax,Ay,Az
0.9766439999999986,0.44521900000000053,7.198132000000002,59.410000000000004,376.106,3.2200000000000006
3.0766049539580687,6.2031312802208625,6.381684088090029,1.1044184636023866,3.8935539183030294,2.5513570008318887
4.7661503063650095,18.23817581875651,13.439112807217002,0.6399175151926655,4.687420393331772,0.42069687719985255
7.975304887088398,30.647220447333012,19.099107754338092,2.628386696843283,4.737931835324759,1.3996198237761373
6.620368092086344,55.36187733186587,35.254859929233675,2.7943304132361044,4.966703765978667,3.116719684199327
6.8445336884613335,5.850689064707084,12.08019723545843,2.149752914009126,7.576174479224442,2.5164655211818125
4.424680698241248,2.469537395750324,6.872681968479925,0.9933918998993048,12.824636638323428,8.286690584379926
34.76010192147895,5.293473560937187,10.043442811493767,9.60307557790247,56.271334209355814,34.8025142868043
14.111317081433636,14.5829898285165,3.509220488993569,6.811283107846952,15.424857672141181,16.642608224166672
5.182151144257576,5.584985205178917,0.9871154642169117,2.6903325089228436,5.902037202942397,8.599059391394396
5.975570327120971,8.678530261060464,7.455958858280377,2.250953316668189,2.406533256631852,9.1340813424447
14.684198183492688,52.96687360894491,46.64752640002963,13.554956141877446,15.379332035793603,9.965376635922265
6.049833236950592,11.251055033889163,5.683133345019123,3.4666221384329536,2.4564348514429892,5.1248594318769065
0.8438658198874454,11.173972264828183,4.718249275628702,4.584344207970491,4.15466094761216,6.406817428177672
5.883203837768221,6.787660103498947,12.639295558857835,6.472214873244787,2.376537323512004,16.437147585447708
5.579128854188802,15.011643613968443,4.653237853463806,4.632826017890697,8.188390176821294,20.847835445257928
2.630128434739088,4.649519453463717,4.0988597886698654,2.858905090739467,3.8181017514239657,7.275616999780173
2.5403115552799838,9.733195375086048,8.277558977626528,5.714022823298338,1.4430007194835777,3.3550101109187938
8.768161159459488,47.93393370679839,23.671104693031772,29.694287795318598,4.944170354010244,2.8756892356003068
1.7657582039146547,11.256054784872687,6.091623112789477,7.914529721169566,1.7414161787239697,1.1754226097896014
5.439901883671977,17.14361889423683,7.356430044716512,9.398819694763246,1.6849096418900646,1.6390893734805951
3.024233288025451,11.33695028435869,6.751304106625419,7.293391676908451,2.95131624433579,6.560310224994096
14.707410129347306,8.379909776586679,6.383817651408666,3.5012571315320837,11.191937262053568,18.057722299542917
4.335310878045026,10.378581755431165,5.783065724028552,3.354728189342644,5.625312825411598,4.098512901592226
2.850327061190007,5.681900703504882,3.888710362130442,2.0029610502234516,1.590841231772234,1.0014483947423092
1.324707415199316,13.54994058895189,5.113324733727692,13.064083228337198,1.738123809161524,2.8403420869273015
7.087204734451131,9.291020184500377,6.711938020218527,12.552039710227147,10.0056622346129,2.662718487059841
2.1320667352975278,7.000518266581594,1.4587803604901273,5.828715962579954,0.574951966001148,3.4702213964378723
6.092592687616626,9.697809744669215,4.9983220368526,7.436910228719873,4.648155255947825,1.1415432015327291
20.04554738081368,10.243639889557187,2.6746222196209124,5.804762434454452,15.543449262083362,9.197830634191677
5.598062932469919,8.849748402902318,3.792765189603403,7.700649037384429,7.311982684689778,1.391338073796075
7.708662619146938,2.615776985719805,3.2307135816085055,2.243732587547655,5.305081204270918,2.6292931577245313
3.7403280774795635,5.510841858397556,3.175586147694094,8.306443289942559,5.01810399922227,4.335651725132554
13.298326885931294,12.126776790738212,9.086640171372288,14.75492560445652,7.194483664041739,3.222081294117398
4.460727376667872,0.5664731711339616,2.5836648711056056,5.336278960197399,3.440123818135605,1.5301024089355462
7.421785574109648,2.0299050238343646,0.41119687917279985,1.1674600361109804,4.138349110616595,3.8785736874327275
12.930084596954998,2.6085814625455557,1.684761926689532,4.054496852978833,10.590694592616968,7.426779643216106
8.290321276499846,3.3319878174605604,2.3442778673240783,3.3967900159779414,7.323989937705827,7.060821845947607
8.546672688403484,3.1092391186357475,2.71636028905264,2.5900115116632563,4.99487462384212,4.338073047783448
4.679475384484595,1.2984240385704655,5.2956309816247735,2.2168748371047915,0.47223527307728896,2.3951348741560654
8.182300712876314,3.110245281518787,12.177456695637344,8.12555841477352,3.0589662682662304,3.4039732526683033
0.8877332333668839,1.9029519273196616,3.154703891713902,0.365079981177254,1.4364299091894006,0.730150895396438
4.906757503363922,4.12314392156822,0.9988097125059028,3.470339068917342,0.34189944773041386,2.6214144120481815
8.037614674110255,2.5627510710426904,2.1472538973377167,3.5043323311214687,3.340037502113303,3.663062323011006
9.127766868455023,2.9168044438518335,3.592491032749373,2.7092676971211374,3.521888543921007,8.231964071407015
5.956798720970241,3.3678788837257607,5.255849582601698,1.5655934149572939,1.6450928300767682,3.0247666748027564
2.2717803589395698,1.4894659841909699,2.7693053037342796,1.9705289372972503,0.9950772980767668,1.4159556407321563
2.7130435353576177,1.3193260289289217,1.7186818534218744,3.760791634905154,2.0181820085736875,2.1970505129663347
1.8332883606804322,0.9758602775892382,0.557646810506708,1.4875365137926977,0.38694182613326483,1.6959383818680849
1.2841511909528913,2.6515857238383953,3.0983182184833216,1.1257597520057863,2.1175930544803396,1.7626140212465744
2.720356116618283,3.0766782573544456,0.29198468254599264,1.1579540969272997,1.3577718440561202,2.256220698003343
6.176844135020619,4.540467220435924,1.56872145634484,0.13118859456244392,3.1035735950092684,4.509114254202353
2.880970153908866,2.691131519213808,1.450841577378016,0.5324964391197231,2.9229088542512143,1.2935424466148335
1.7947607739055198,3.487245399127748,2.6908485144806575,2.1757571345136917,1.5492298167264793,1.1550472843461932
2.7913713196731678,3.0443167857025624,0.7997895287015911,1.5382597236191502,1.5265662105398723,1.246662973244174
2.234862038356364,2.8696100515808243,1.7671685780716317,0.6638987270462745,1.1870307478496638,1.8716073134378695
3.279535664416657,1.636738314619977,0.9029092949725243,0.7290314566149333,1.087713336575524,1.15522846665689
2.2753196781576395,2.236121988188311,1.6830455120953167,1.0628892110641568,1.2560533659033573,1.7558178711609418
3.193708167003236,1.5707750220425973,0.5767361987668062,0.42917770198738725,2.2019608653578335,1.6973191411391346
2.9205485295908247,1.293841093695607,0.7371102324894836,0.9717203148290401,0.09634876857769091,0.7489811351914587
1.2368740141798737,2.286688442451903,0.5405243185424258,0.6352491615467346,1.4906527273767725,0.9863601288676078
2.5979212324352217,0.4114979149763325,0.37231703095828905,0.7240251043945747,1.0436238979056127,0.6606433749770546
1.39712067762066,1.6565671901756236,0.924058649435264,0.3498073808376154,0.8825028791149971,1.3567555232872115
2.7230209842477247,1.8127363384219355,0.6212350764073142,0.721104434974479,0.19122075048405926,0.5011274555123403
2.242161499226665,1.069234564074792,2.7179528888505446,0.8031919344285223,1.0042485792160576,0.5670916309795746
0.901433356014912,1.4157762498868816,1.1927161902965608,0.24617347896462435,0.35074197351587333,1.1496298059321806
2.460472306457356,1.6694535262235783,1.2983662029295744,0.5017654002999509,0.7034983759357775,0.6678192233409774
2.557023430005011,1.1558798449703636,0.4002041709488426,0.4772508379474078,0.9410099701223723,0.810898816102882
2.2959094759944136,1.2175899685902845,1.4904424594504397,0.169570150942684,0.3985480570417006,1.18640576086313
2.9760720485785996,1.754026261420841,0.8660254692822317,0.7053445948078326,0.451117678185798,0.9915602277152498
1.6461574514287316,0.5794643504013235,0.8014027062748299,0.511509197748277,0.505074388332629,0.7727246345919517
1.217791359235008,0.9788057930126454,0.9475687014186036,0.5836199523815562,0.8849860700348036,1.1834617758334653
3.015041835134989,1.2775640755825945,0.166453058747794,0.6402338638900279,0.5840410637533868,0.40605585076707096
3.475455071975403,1.9374964551704168,0.3569014912433024,0.24606951509766498,1.4868524864860497,1.7796802665533837
2.9491600928482513,1.9166660689599382,0.22403108130406607,0.4962856297763038,0.739129578775497,1.2723761808706266
1.3532746921542707,0.4225097779142842,0.31010115664130244,0.9612497153073237,0.1296223088668879,0.48819300313367037
1.9013743844012365,1.3202188402607518,0.3943246456165257,0.3367559715206147,0.781402614011935,0.19514840688405352
2.389490789136871,0.695651333386016,0.8552786050727814,0.21953584684847763,1.1469738924744766,0.44130524512934227
1.1163013973776008,1.0755186970134925,0.6931066471666618,0.9905405591428985,0.7552080114181641,0.3892846209825796
3.227830534929286,1.461966661814271,0.8954781208258238,0.43289170581499214,0.7909481212872337,0.4674138690667846
2.948082685625774,0.5289372961404237,0.584377648060005,0.49104582759160087,0.49020102331219756,0.903773585438294
2.104994456467548,1.7867442955356247,0.8366624607095019,0.9380373982607075,0.756365663375048,1.3873238486978934
1.2500360688590515,0.6396330941354543,0.4628739498279495,0.9251436450786971,0.7539454507236546,0.8593371393627265
2.049470537641313,1.1144134494681543,0.20095182494330088,0.3384306549599123,0.24824427152159648,0.49861709009011435
1.508446927632507,0.7970943804781174,0.4577841703534077,0.8199881806140767,1.0220562016575794,0.48168214414494664
0.16738621900357212,1.4308656531686998,0.6294135925254463,0.2704983375788913,0.4433609543309778,0.14219901109997618
2.9789987310001567,1.9236170081011301,0.6272644455416378,0.9867029786883171,0.6874752854163911,0.09043861660669113
1.5889038359732417,0.43003938199265407,0.03563724267019997,0.23193943132359562,0.7590953411276008,1.0435600020708786
1.7500763769822165,0.9370290404291123,1.1553288060654359,0.4208850615606746,1.0165547450942019,0.6254362901117135
2.0114191991434263,0.6788921642556591,0.5615895930548394,0.0624383795997037,0.7850471926898194,0.5468733183268317
2.150831106003282,0.7412119064147206,0.7212124955556,0.5693066252223377,0.9890570899145824,0.7902222883220174
0.5053941608988655,0.6499454514200743,0.2546085956723651,0.3780095206671207,0.5735853320990395,0.43542281197111216
0.0,0.0,0.0,0.0,0.0,0.0
0.0,0.0,0.0,0.0,0.0,0.0
0.0,0.0,0.0,0.0,0.0,0.0
0.0,0.0,0.0,0.0,0.0,0.0
0.0,0.0,0.0,0.0,0.0,0.0
0.0,0.0,0.0,0.0,0.0,0.0
0.0,0.0,0.0,0.0,0.0,0.0
