Gx,Gy,Gz,Ax,Ay,Az
8.950591,11.868723,3.0774060000000034,1.1319999999999997,578.742,77.52799999999999
5.0487084158981785,23.823229405105742,5.194450109841602,7.6151863514770755,0.5614187367478558,7.952760739332151
11.638300810310497,7.184730664471682,6.502614692534821,4.873002540452552,0.7488171867052358,6.673005968049718
7.749052778540467,3.7622870828369956,3.2429507481893096,5.4473434742286395,0.7840578033588314,3.0066773305613355
13.885440651056472,55.115375649851394,16.469408138852987,7.446670589937983,0.9804017509923544,3.0782446735384
20.23045729125394,62.67729117772677,13.647977043135992,9.045876776347779,2.0237533270421104,3.5929430760456436
36.13721177670007,144.36890966909462,41.18358641764268,14.96005844562074,4.971967090303411,7.9345355516144105
14.87949715006769,42.85814715818852,13.062425304576172,6.863254512822808,3.8398742132045096,1.3971396615547709
6.120540478417377,23.2704467655714,17.330986766083107,3.1901619443865914,5.587032198241255,5.5302432962337065
22.63894704071108,11.928911727082617,6.079445120232984,3.5714708731011444,6.751311330927485,11.92061708130133
11.052528944023262,24.915078906400062,23.77994889724431,7.517059578056551,17.211016102344686,20.886075972101256
30.815097186997267,25.241621700115825,9.465844871761405,4.682481771207397,64.08374915768587,60.06238991709293
20.87548778199222,48.212011944486676,3.253313398817317,9.170051093281247,32.9223262843944,26.89098715989012
15.98253380351213,21.759797505908043,12.315163326808001,3.2183005508917075,4.503267539627617,5.248477728707202
2.2617909545459987,15.422927252372673,20.47256424141282,2.71441485288041,4.811661020052977,4.314171448202121
4.177392942274728,39.85412661059663,16.441087391822048,7.702210715251695,4.231263971082476,1.8758040305602253
7.662417834703352,36.31608690524341,11.991707256912255,4.189842854381209,2.6049229898653334,2.165382562592976
63.885262452369695,31.10543017581086,125.25681496312941,8.056703015641872,17.832314124297117,8.284109604528732
8.805310640370747,15.959729977308603,30.628048216321698,1.0027297866484075,1.8488531301304583,6.3737642505930525
16.219573630091023,25.384975265729693,2.4024731390056733,4.499827604655324,11.53256976476674,3.7795272845837875
11.15576899882431,2.9297958205507597,17.804313839781003,5.7552619792848185,6.393144518884613,18.566928342775256
13.213030347226137,4.30691400032793,14.702028285253306,2.617790418020272,6.613739803669315,16.313509966239113
5.60848887256947,7.140241718705684,5.824591627455195,5.567051625376814,4.934013795272302,22.1748348527529
20.264419810488402,18.763575454039938,9.859387397171853,11.289172280177885,7.418976175262549,34.687174113528975
1.9725866322572265,8.17227323735648,7.679963951555006,1.8238780706736866,4.867583743281116,9.769308536383003
15.576451005965273,38.74436295722888,3.9833781621050486,10.839567011959167,3.3911985080928377,3.2867861789553277
11.818616984120084,19.898222672088558,14.504164582301534,7.840697844644037,3.5572596537920687,6.854607422850757
9.017370526782255,22.321016921105326,9.042434083438918,8.371917096745586,2.0866486413672427,2.4059340296938014
33.617361737689684,53.56625077951813,24.809104260419378,29.926996488599684,6.389629608328237,4.653526334421167
10.41332411685993,15.580237262866813,25.293050020172036,9.935213718782009,7.644443766436346,13.042374153787154
1.857971984292812,10.88869503452625,14.41627705520467,2.099493874006194,3.6424118439127753,7.509476878108244
11.631333734630081,48.19091914510324,12.205455014024592,21.473460316656244,6.904074043586743,18.52925110614386
5.493832099245577,8.848332883716559,11.17614413268551,8.758978145257883,10.010128242651039,8.727274497719351
2.5357182820648823,29.28187729853114,6.213126377640687,9.558940939097896,1.6052653401867758,1.7130460074964236
16.1822526910642,26.222836587198373,9.300767253995495,15.301325599726665,11.036687520003404,23.97660064288261
7.368793135094083,19.86193453920481,6.010149083744331,13.478391225397491,10.654127917091703,14.191319474490399
10.976328762016305,14.416762787229452,1.5824566644887776,4.2345507950784835,4.448808720027284,4.8723300560230225
14.859254304346114,11.531325672660696,22.17256622904906,10.958754221777596,6.571521214676849,8.705711256649542
4.278341056027208,9.682716409936843,11.625807184448423,6.482139327429681,2.2193301032004484,1.0416622063311554
22.52571017154853,15.089958152049356,10.53576669995105,8.539849325555084,11.274412299526928,6.208389921961625
13.978579944599003,13.583829323304986,3.8968046202233766,6.01588726596825,10.643903034514306,11.88243586605422
9.781413675708,10.199956709837064,16.96294654960147,11.824174364914741,10.933835804996468,5.9483231970114785
7.406959296895137,22.589165054738313,15.519313451639686,14.77649765541549,7.170438780935355,9.599151687974787
7.526130652718245,7.057741129891361,11.447086427251332,11.015665539529643,2.9779043208516267,3.2085354627579967
2.3654396150583663,5.438871295533492,7.785728803906524,7.344959632694898,3.365279175297575,3.670561448419883
16.82576300731873,6.168173594793338,15.37547326234575,11.634195461983316,14.356702556768147,12.524827697916093
8.673415239720605,12.592921456721658,4.303404814844687,10.950516402212989,7.884406618397198,14.02764393179808
14.83051734068957,14.749288698604381,7.838670661344019,4.087051243073307,8.81527651593629,9.695371907375199
14.683321355969484,23.276358709123272,8.929133364337993,15.692602693162339,14.813455489142447,4.691016007873315
9.942405517079482,9.582797667515832,8.485266644502106,2.807790759392685,11.084444582746169,2.348542658213446
11.763808034724859,10.598826600813824,6.565496937343771,2.9897279832653187,9.237119946646828,5.537822355751124
7.495109804728933,22.559477974807212,1.5109583469280126,17.451462240259705,10.897664255115833,8.842362320093654
8.420091296683461,11.888163810914506,5.478580195345942,17.82784911646111,4.59080805900051,5.363576771073096
4.612268646326378,15.415462693306882,5.557576152719279,12.943140403648965,3.877475717895155,1.3458022874358475
2.4061464740153093,2.906136933957623,6.65822060243704,6.886138479508291,4.292942157898382,1.534745910658118
1.6802724008607361,7.0447418267300845,10.185560844460603,7.104915767509527,3.009738770940007,2.6621561971488044
6.933829730523219,11.49271936374594,8.773834420209186,0.8238827100148246,8.794869562204271,3.857240521147285
4.53110498353185,2.7381773160929668,1.3042073381581534,10.19972086073601,1.112224517167302,9.843746562588302
9.62046330265343,19.336858771216946,4.5114089438423,7.586284682691974,13.276662739565491,7.691158783911315
7.023572751296365,1.0553112651151544,1.1726100979620286,5.793337410475581,10.039814804005871,4.451337039744744
3.959933723450301,6.533354385050484,6.213974243200509,3.6293344080015317,5.0480829639455385,1.6786240654646565
3.9098670083454827,1.8741942024648979,3.6333209236441104,1.5873200279224764,3.0800090836857397,3.16281599853235
5.218442835671483,1.1804524555864722,3.5087944951831815,2.960868862228774,5.06264147862769,2.808827723025075
6.385381817406998,8.306891866701765,11.29812601457496,10.218454987746684,5.243295508714713,3.4775941435041133
1.6787334645908103,6.368583019866288,4.642312931769134,6.063396555773275,1.9085696536011814,3.721574150276552
3.278195327952171,13.7717049589656,1.9769647428666646,4.94048639597036,2.66707834869491,0.3302898462122864
3.445008076896019,8.45519925203825,7.678015770615567,4.682690455718293,1.6029082448624064,0.49433223177267277
5.562140517118647,7.008853395830695,5.486841854755722,3.4053701212268095,7.8381849897190685,1.4030454090169984
6.693158787130336,6.073477561747768,5.36540066366268,6.748273608894249,6.414786856135464,4.115819848224219
5.155631757179288,13.981739073276163,5.164471377287206,3.0816034681237188,9.609800124516447,4.072805656070988
3.8287663804508245,4.514557544088098,2.9011978164610666,1.7513382318810677,1.8819290898878185,2.6993686628764233
4.495132398463573,4.576143931723672,3.6897403592789826,2.2292881046503146,4.222622027769778,0.6715788907142147
2.7414139587761874,3.2595154717079113,0.9417709995361007,0.6813249421644401,2.8934800744872575,2.0734110749068004
3.5587972670962924,2.6961569015604927,2.9149784208671004,0.8898515275037009,7.432317206759806,1.0250608572889226
2.6627448781850673,2.519817506361697,2.468620964842234,5.901450055491738,3.3953646121165897,1.2137806955606132
3.8157698438249383,2.134438708389828,1.239313512262529,4.970636227030967,1.7096728574249316,3.7903029325844164
4.800612007005995,8.12947226451769,2.8572023035873775,3.201784241699417,4.361591856675207,0.8412499194115679
0.7873816865040228,2.692521444127878,0.9647931970924338,2.285714067482162,0.9549597113423861,1.2180727633694823
2.2168937411560554,5.519491954615233,5.247547936416629,2.768069258365404,3.104157791135168,1.0639931782497745
6.828837600980111,3.3906265074183555,4.083196604201202,2.3741322990602653,4.862945522774377,2.73682324807717
5.155524331556349,6.6792742246326675,5.1848521743983085,0.8953873883757325,4.641120196392168,3.22300707323027
5.109104670245875,2.418597127257393,2.8561787091603343,1.9828215055038747,4.3712617053287275,2.2999524092332715
3.095158648311271,5.208969307109805,3.642199057770585,1.0337875028429049,1.937800823264953,1.7166029053480676
3.2627624963903195,4.180102792419996,1.4704211775721934,1.6823105460159329,1.3928819925247682,1.83037769290917
3.4717168188708376,1.3346553952068223,3.8706374599651974,1.552642480121305,3.418184178406948,1.7233620188659489
2.1150944927422763,2.6371965293392194,3.288407050976043,2.908180895439327,0.7786763109579198,0.881623051879785
2.602008327105302,4.727266871642783,5.79194854694037,2.5459147950601086,1.3910904052548558,1.68251397436449
4.804910261458303,3.838085936726503,2.7705607269452757,2.3090932202697605,4.529889491060344,1.496104031609094
2.1467244762454785,4.016030494929153,3.853904949212105,0.4444401661034762,1.4046041557420408,0.8691635243049202
5.522527377383618,1.0018347034392272,1.5604465600363824,1.1668991251345742,1.0541509260966682,2.3059725834382396
8.108115821069967,4.298817789900326,3.6730917815081083,1.2866578478272832,2.599291108303816,2.8217698842851835
0.8227480116755701,2.0365142092612585,3.0329836659162304,1.8467611627588187,0.35136429879069886,1.2753851931586933
5.21377821277407,3.812180507021716,0.9932584948314334,1.5505831079894317,2.4400734990077257,1.320353785641166
3.369429464535269,0.7334105048182472,1.2727925601267776,1.1268882684929509,3.082859848807911,1.3599600427454859
1.116219896826791,0.23707400755882835,1.5521354662330895,1.170096010700606,1.7582834639441587,1.2564099442143084
2.4699078499667455,4.001972291122791,3.8281703594791163,0.5830953035481804,2.5427224164337465,1.5366557426923244
5.054751742145432,3.705266302987902,2.839786139989007,2.4930639519777493,1.6194340410986772,1.3602357773454408
4.53986597483815,1.4716278650804158,3.864955769848573,1.1712168124007545,2.5883146537629536,0.9607909114838418
5.3540242195144945,2.657903031263225,3.8733002379471633,2.2106875545773375,1.2487502335566543,1.5619967200446814
