Gx,Gy,Gz,Ax,Ay,Az
0.755604000000001,12.036829000000001,5.628104000000004,67.57399999999998,584.7159999999999,49.255999999999986
3.3054926401480245,18.713052286888182,9.717682702591457,1.001413033935114,0.5768460991407431,3.8283967384369237
3.033143311810379,13.190421903607872,11.449533236054235,0.9472312474252725,1.3983516794111817,1.7160896200564146
1.6269117180396158,18.57395829760232,15.191315104369817,1.8457022864932275,0.92081327457168,0.8882313158360657
6.647951015299361,33.59252016417385,18.185717308898873,1.6713540463997918,0.8640871670077175,2.217328144489138
17.268507722471565,78.94359915100493,59.10853215745316,6.76762775512962,1.508822792672806,1.8427757434871899
7.832153404646988,84.58805820790992,62.95592432604439,3.4338555281525873,1.4950340084000207,4.476014537568996
10.044542778398892,25.595238853814177,25.222599659828646,3.70830484692658,2.523262312951008,0.8381063660989828
3.221292683467857,24.226214978940973,12.20441730270816,1.43600120470941,2.206771004993944,1.3912200820416951
10.453702910128026,8.394477969729026,12.599430198984223,1.3308242670894364,5.317198949402978,4.083369433905352
16.862317207144343,7.683194395965117,11.079631928851716,2.640992371701722,5.90372602613658,6.495717387334713
65.04694049392576,11.2966774353167,10.168810294281375,9.557469029120204,67.4770872534174,60.79279599726026
20.611243320402938,14.657581525758756,13.089584244147298,1.951633576718824,16.739675276784364,14.228970627381223
7.115481049351979,11.136549901688765,13.703257419401929,1.5154736578384038,1.4895255286136304,1.8112970238569612
8.129584504265207,15.831103537334098,16.724318216161542,4.5543329179223715,8.70023234938207,2.889358093913416
2.440634406847326,21.981783846067792,13.626556069227743,4.445782094292876,2.123568915555989,4.176203700874054
13.004759991209342,27.189991925717827,47.08849624374303,5.666656769455957,3.840675432733778,2.3193714740897464
24.75040251127318,46.92764788965272,89.14221293826478,9.094914549715988,5.588020546665605,6.4282220176987135
4.357967868785663,2.271353494789885,15.412168590408232,3.748033509000598,5.26060889657603,3.694378422988412
7.673298851001351,5.069203265107316,16.9342563375574,1.9302761938152408,2.5957876987942665,2.941590364978302
7.3967085836689535,5.679949302650196,7.7806672734470395,0.8406520205370452,5.7271928812326856,3.273368436604404
7.824951278720648,5.110072653809542,13.67161150223872,3.487208277922877,5.760837562732045,4.829791964811117
9.173504033408213,8.501779314736686,4.804393940836978,3.406914598941805,22.96238995172771,24.53656488821553
2.3641755650318994,13.502557880652375,5.019859379320301,2.88457721960526,6.3168204250405875,7.499133078472055
4.503079241877272,14.708250244195083,11.92161826842746,3.6913249258402234,2.0117068159269604,2.230990616884415
3.7287545913393814,7.577770392502449,11.1742995293504,0.6095062692352826,2.9259267536041054,1.8172567209308712
3.6737428462002786,8.711864289307414,10.216471948648456,2.773083686644618,2.875014273098789,2.6377196483549166
12.507877348666776,9.331836505329429,16.365666396000666,5.151455474621609,4.338384128277704,1.0195361087133574
15.234699867827104,41.768719610362474,45.24929521986263,17.023194438239432,7.573128460464421,2.705216946760553
6.170809122998625,2.3973113354081534,5.297133097408381,1.24046263213397,6.376821035403213,4.697470183698663
6.991712442386444,4.213008812325508,4.596868050569852,2.093487595427961,2.779443806334321,2.9322083773441276
5.507891490657546,7.106155484989932,1.8302752757288976,2.3033869627977097,5.152563019426581,1.6972169682002867
3.1817445803236395,7.56707267177608,3.760559384373974,2.377587888947976,2.6265469111548363,5.4641728316749605
6.1781969953615254,20.00564452681675,10.960841910190911,8.679377252479924,5.785505376998632,14.06218022209436
5.143421989991717,16.167158083954078,9.523399068774186,9.670274792453608,0.5582867887741073,8.779555524287757
5.300865109128863,7.505356666850302,8.511932278539648,4.265781669532433,0.18873018001365316,2.641000788622896
3.830450728156581,4.89037513550717,8.194672084149166,2.0142685788859906,0.46637577137396274,1.1080980428209535
7.528413254247588,7.207645754610107,4.737063374666516,6.22746943887051,0.6146159331659011,4.565153040759532
5.612646062079025,5.089294901143628,5.072432383953371,3.576519191224457,1.6611750163948062,2.485201167498401
23.59993294280663,22.268849042650373,9.25402284141477,16.743538109686654,9.272884927770056,2.4306867743808485
7.63604847785031,8.46750586221947,4.368037782655497,6.745951050205128,3.9939736831494423,4.1834271805214565
7.44544420155748,4.516292077881688,6.172186731998293,4.130944584787399,2.88260498949682,0.989218140605
8.0370065998698,2.920294729811973,4.453805222764079,1.1769300751111593,2.940364639438534,1.2446519860591614
6.2483441204534085,4.538151595194963,7.786648168854115,3.4885156493325407,5.269522745464163,3.586697421857376
5.767274144126927,5.05627256365138,4.427263915819541,2.656514746816237,3.987724308899326,6.03095628363155
13.492816952511138,17.30434523835635,11.323105968638627,13.775759447282779,9.993733878610055,6.628250866374076
6.518397862468719,4.446676186870561,7.714985748889167,1.3374026533297445,1.6459020068303114,1.4582126317314605
5.697627628350625,1.4848364267933254,2.1935795621838663,1.7426468985314092,2.168989780592995,0.871906682524624
6.226662919340591,2.386549044743632,4.078802821999507,3.1160208158261185,2.2969111925520287,3.164834847988917
1.9489358568239052,2.4241723953505594,3.79990985488038,3.630679359538583,1.8703053392695932,1.8304662382797106
15.61193983328028,1.2485727695082434,5.842962239274979,7.7183508537757755,10.502971774792059,3.1360852672174855
12.115686458070511,4.3212119759502725,5.926844650054593,5.285091956950416,6.325347015878397,2.085190631919046
4.396237907266043,3.107627764821721,5.072810352182495,6.337144809334601,1.8588097145494669,1.4637947376963933
1.6522458798409092,1.2568131391830075,1.7882759951817302,2.399297198592666,3.927508267286822,1.0047960239762839
3.878095854897346,2.2586389387016332,3.0962845509541252,1.5942356385395209,5.55578776871141,1.534064219381895
5.393084664180195,1.0988951091271197,1.8220560658657596,1.5022322008914217,4.5646586434017795,2.5375488892657163
15.245420756348766,5.549460497210156,7.153986157820791,8.997925358584139,6.230448284783933,3.6003561695117097
2.2914644824923194,3.6869350433243437,3.0224947298583182,3.6885603745594793,1.0930925914201108,0.6712085443818537
0.8468237423204439,1.8443740506334636,0.39078260045658086,1.8686134943478667,1.5371755943208372,1.2244597610100638
3.758139850548366,1.867127348515795,0.625254088028366,3.314952739090565,1.082820660273244,1.383725527112578
0.6042947226886588,3.3510165405560506,0.9848972409494232,2.102230382836359,1.498412975232814,1.8216398072667996
11.35116165289688,7.628388507249844,4.887535807529569,5.995553559403227,7.069997722339829,3.058723702467534
4.777249737765529,2.6180072374850876,2.4389178055157315,4.318599360519288,0.37929140055778565,2.183464447945986
1.971709404589227,3.1358570849594884,2.3992531673025583,1.5436410900055277,1.9394974657547426,0.3936393532492803
6.250205443035035,1.5263892351208033,1.5505800426569223,1.0408729538468793,8.858912328365914,1.317081370035671
2.5715134136603384,0.963561809559313,1.2489465920329992,1.2997150159276343,1.6460989929980794,1.1341720913212878
5.6539745656601985,1.3160829718887728,1.6763004664320724,1.2451939528602585,4.421807197742361,2.425317225573743
5.299537907862795,1.994469579541784,0.19688672662340562,3.953448189618205,6.398153861398042,1.4477718098910048
0.9534723498211567,1.0663781153624212,4.0733667415129755,1.6286418565162308,2.2741849462859456,1.3163580392105705
1.2013381648304415,0.5497410506703386,1.5346785081804972,2.8379436599776495,4.363604176796642,1.1753262832660547
3.375115920543467,0.760495896906422,2.3455856563492388,1.732299882108704,1.1053434173086303,1.2331483782985402
1.7685246690072796,0.9197295018926372,1.4446400349871378,1.78240351675111,1.7504061799480317,1.1054794085876651
6.876150673315217,1.2570697804575877,3.0216816817959296,3.58919783984241,2.0940376877127873,1.0193815110572841
3.3910261019188406,1.894006572711281,1.255741743379199,1.4368661021117746,0.4589693054019155,0.8623061327242418
1.4921217566113636,0.5250991570777551,1.3247555497157428,0.6113298844987182,1.5959341429169505,1.5519100167454072
2.7023896168215202,1.026085460384759,2.367728183791244,0.5823258017174683,4.599546269791456,2.2167666155878423
1.365560017233375,1.8885713921264795,0.8546927061937939,2.3718200010892962,0.6397290111277444,0.43475280217962425
9.807481650902442,1.905140910174788,0.4433850939056692,0.5496174722033729,5.184017932289583,2.2274478678931855
4.036913543606889,1.7732542255345556,2.6062430149730895,1.0330658889666833,2.1570009264362078,4.039244919614552
2.672589817436796,0.520794697932695,2.4189525492909443,0.30292089086606555,3.087796584034303,0.6930380455192836
2.7626188912863614,0.878222007488456,0.7395033223990759,2.399303451216203,2.0068922098664457,0.6835746693081973
2.5836124266015075,1.3602430339214457,2.495266896993425,0.6932452782109181,1.153982793860598,0.7435048314660133
1.672705723019447,1.1318938171819435,0.6021501639359527,2.192178207255717,0.9895709456220083,1.4486408175586487
2.1902978924375107,1.5294859157542733,2.803576588818439,2.54921254123621,1.3539414436374537,1.526366831883097
1.4683552077959845,1.3829580999542364,1.6356785811523205,2.1104213484014465,2.633590167994663,2.352876233244983
4.14700112454205,1.0760569887312772,1.8232717222209165,0.08001127906353298,1.8373927738122613,1.9421538153742581
1.3999603047767009,1.2152425392110657,1.1696434868951804,0.26687114627957526,1.6600136738070146,0.6640772545125283
1.777992861558944,0.6934386329821638,0.19626816361783347,1.8209569257815246,1.6173721641399377,0.7354942227003238
4.731419353032121,1.090062731134054,0.7828582076396038,0.5263594487060953,1.6964466364219275,1.8367786218537174
7.7151084276937105,2.1688128844037933,1.8345506567707661,1.1811649934047856,3.2507674513991724,3.620738909815782
4.4690124226033205,1.3512225837509932,1.4098684104834731,0.3011499077403127,1.8885174482144995,1.663276207614105
2.3317221173548255,1.460203345681055,0.4443985199815913,1.657925836156326,1.1221473801492394,0.8079013610721915
2.092982066668078,0.5762957594022015,0.8152917390274681,0.678961538277076,1.2063288863645296,1.978667086354001
2.431520515648486,0.6592425601402369,1.721166674532627,1.5208233964480262,1.9924556701994296,1.0635474163392828
5.021862137265166,1.6088562228932055,1.025121845188735,2.2798448919286556,2.038477862149822,1.3304711758609267
5.626223883522013,0.38116252367158665,0.829796889075273,2.3236804402803584,1.413092872102434,2.4329684844753943
3.598922276708445,1.2416893143411951,1.38001856280148,0.7368798137734505,1.4973972643102045,0.6570813962061146
3.1277135844844963,0.6963055928934134,0.5606466780975339,0.3107356299867201,2.091905671090836,0.40659410018386544
1.9495339951379471,0.7051982437414035,0.4271912453163906,1.6555143446287517,1.4750447311302388,0.7238600364921441
