Gx,Gy,Gz,Ax,Ay,Az
9.328393000000002,5.731076,6.012420999999999,26.274,541.8879999999999,78.63999999999997
2.5488511894821024,16.467298895755743,3.7456707899475052,1.8218904535025329,0.42490236653552194,5.730626353687262
8.071812888306054,15.241648728993816,6.563932132660583,0.8229625424637309,1.3673289890783096,7.614786984466394
16.808001845142243,17.05046271482884,11.188231811735276,1.7971893469233264,1.9635388651764638,7.026879398725322
6.273845312219098,2.0607192936238747,20.78688915911289,1.3188218087883883,3.0423266470735815,4.828159055027872
18.915879671242386,100.58851808544065,27.559187985485437,4.212381927097399,2.647706209040863,3.499634751420841
5.403940339570847,23.7746555018124,8.640141129585068,1.694967154481867,5.69093688310607,5.756239268856685
10.38125042895407,18.008251467894176,10.709343535603727,4.047813561259976,9.321901083486251,7.790287780684644
8.761020830269418,25.187403305010154,15.697709120612151,1.5992002074303329,13.564616012007066,12.66137802655115
27.305249176212143,25.81684365816347,3.5869368294001904,5.611325105805033,46.65213122578252,30.248896726525093
28.041718287910516,14.533908269202593,8.287600454881918,3.930114381571058,54.378556812032016,37.335854552651895
3.6875728498480616,8.776807015148758,15.907845268632522,0.8570473711917679,8.412256080429685,5.46647818471937
7.432639422739563,27.661183618457272,4.616872107437341,1.9240745301577928,8.045542373581323,5.495715238936162
7.34651981934758,8.903106912636552,12.907647469001352,3.2565714311263783,7.781333275118046,1.534769301641567
7.076280572702352,17.358457963015216,29.37467168842113,8.406278263005026,12.04181723462447,7.567697121433851
7.29088843314852,21.369920767006843,13.260527845597998,7.886122182221663,6.067391875918198,2.8233663136169227
3.7992746564857263,9.753359388740925,7.156885496367564,2.7090152393999847,4.532709587326429,5.146004437994013
6.610416384377005,5.19833945619735,6.336560794394751,0.3974520574173611,6.190181183796689,2.379305568105555
3.823259352288077,4.852469498866149,4.570037242796909,3.2060789703028805,5.239090880668141,3.98563407654242
24.80356498107029,19.124856238039314,1.0132498102615115,7.14864052946477,5.752998301994499,33.312437895890376
12.592825949755872,16.61014400975703,2.857878200272579,3.730219476161236,1.4163668482427725,11.695351952072466
1.3462408511410568,3.959739638247339,5.65267463378739,3.177032649172373,5.366356826142487,2.1671888983071974
8.642128781457584,10.553295904873865,2.954710205517831,1.48196137470264,3.827109504688279,5.955908021080143
10.739610212840116,4.549763678218979,2.604561147161643,1.1308611904355341,0.8756213246568301,2.166567595445245
18.187061392421178,9.498728931620112,12.930036072695234,13.470584369319216,3.2361098623273783,7.3657532991276975
8.411515116640595,8.685257754892048,0.865530793694201,2.1549142289693823,2.2716026124980253,5.91701812899439
2.5915788067280103,13.990462825319403,4.420332646112232,3.5643009736639493,3.0042546552469194,7.484837824050516
4.298960321307553,7.502807534666991,0.8409113762138127,4.800080403421587,4.4013129143841985,7.584665353528028
12.201476930669871,8.952563629466663,1.58179119953776,1.4712733570479768,10.183760808888564,14.085950778383825
14.894578338169337,8.372394314461085,5.906827597429305,9.465255136325887,3.8525507838095443,22.811231061271855
4.5871676330270725,6.907650203443872,3.1935859374544617,1.6322980445583029,3.257799019668641,1.951082117444248
4.5531145087755425,1.4532862315372177,2.145237048273568,4.315523880939674,0.35711679068838575,3.8169436559433363
9.00796593433727,13.51620903284595,3.4927581171732243,2.491322156394902,5.4919330959557815,8.390188300604933
9.221773049018335,14.299638392989193,6.377077397937686,2.9694148990050744,4.150094535987917,8.463419684508102
9.08245494499047,17.79072309230803,4.376544205318611,3.4706545636656148,5.133436889955624,4.618148839408261
2.439397363815324,1.7564320711706465,1.5557376934256646,1.5865965788146486,6.1220376062621895,3.754721128045645
5.142071830222012,2.302668894847256,2.8327183076903575,1.8699730747644785,1.2751004596060116,4.746088045160129
4.910524873896617,6.30489177911258,1.9484765919183538,7.3729168570239105,0.8331710522776081,4.523161284198912
11.192785416348851,20.724782748527073,6.865823677975117,11.37175637693873,16.208301889717276,21.0918486199493
6.1547794376081715,4.696519957698638,4.650445781556266,1.683538344879475,7.127243003385324,5.932379542535774
4.043125932654306,20.192296288019232,3.153705901022086,8.003326273299187,3.7763678712624764,5.3585324006905095
2.9994998973356295,6.645266724713404,4.258605187354095,3.8890263832843783,2.187817445140676,1.4868790038402897
2.382593830432043,4.742873530559226,1.4988413058800327,3.25593095838211,5.878659730443297,1.858830217926775
7.685185068452671,37.5664213964505,10.672168246608326,12.438868036375245,6.0474830972465545,7.913284222026344
4.384394245155356,8.238151506828821,3.158464508014736,2.741828704392795,3.1060587592683926,1.9857842223770328
4.559834583641538,6.65794833681224,1.6736053435438984,3.8920729874209874,8.575284076875695,5.890441482993986
5.339817407859139,4.487002296151274,1.2978791906770186,4.118016967439821,9.68845052786837,5.382063206765679
7.072370991543126,9.55810260356499,1.118983349339571,4.305863758653001,11.001053110511108,8.320910239165434
10.59625535619872,9.848635620354015,5.137103891520476,6.702750573430791,19.536329517271934,10.840312626432425
2.287177986871685,5.0084679787513045,4.643274500771887,0.7117480785050531,7.320878082488494,4.058530311204819
8.553223012232632,6.594329074196686,2.069629958976054,2.1600120593583076,6.251876538991376,4.91452590191633
9.59698874548,10.847862285977659,7.283229838748439,7.28876608739224,10.202264305427857,6.533408452342942
0.6640503217526837,18.283019562254218,7.2929283119125365,7.47213257708445,1.693412375999192,4.696912958992699
4.677405559798959,13.354804538555365,6.743175028415536,3.9978451006525915,6.078683932476677,4.904794639288372
1.9602243154181402,5.191654704477702,3.8713595554843283,2.99510321660683,5.503029107089406,1.9467132550924886
1.3007591700676273,2.315622528085683,1.9973340561344444,1.5845040581241074,2.3911754276503454,1.6051658677856202
3.8246388825015485,3.0527889458205246,2.7253239003377754,5.731782789421976,4.59672667105122,1.3601759542305716
7.776241426430042,2.58369834308351,4.887180776494808,3.2753169855822803,17.084496665685553,7.405752560193879
6.060634890562671,1.989051783261413,5.851543851645756,2.698925664589166,12.898464703554902,5.372423778375924
3.5896784934339676,4.6497072970352855,2.018808087348598,3.2713004093309794,4.401552878182013,2.0596355975488083
7.05359425479057,2.479461766044199,3.6288975849243874,1.049813735923739,5.1950887760399596,4.154118784150239
5.59429988082157,2.182093375266286,0.6716461410259632,1.6193591904679139,6.447274160963891,2.710934621266025
3.8555831190598777,9.082490048576714,9.150220688012837,2.261698493625723,4.137826844428803,1.4811866223630226
0.6407055331449635,3.023882685431727,5.9900999356493,1.697205036372044,5.548416055068691,1.6403074366388664
3.5009391701768124,3.0314412213166797,3.900464865108631,2.7001894441645944,8.970214364047276,2.21821688954305
1.226426715489908,5.206367883901209,5.908632198756739,4.140977508995432,4.96034288847898,3.731053481062093
4.5742246302679215,2.1980265299446704,3.5950947077498174,3.5219779847252384,5.5885537982383084,1.238799244158558
3.5813011234043337,3.235074099046459,6.653004363605919,3.975451584351124,11.65953234212051,3.738088947192146
2.1443629702442677,4.312188655534553,2.9770614603347796,1.620860321012819,8.364945923572723,2.659669731884829
2.3493163054190296,3.7628583798276805,1.4887915897224273,3.130489130770412,2.5243714187177324,0.56928688832186
4.366546589255446,3.0970552295332148,2.197199446833676,1.3253050683607708,5.187180787916383,2.3072509005269453
1.0210166013507194,1.612782875757046,3.5646524723728557,0.41527569878683035,2.1593097109764887,0.9132106599639941
4.86081891581658,0.8724776987090405,6.158870011958552,1.0481869024046697,8.359434978875642,3.6537454750799467
1.7449756555011127,2.2844501884331363,3.821713498229326,2.1131681532828153,0.8931796436969753,0.5193560836565954
2.2818476028563763,2.602627566778273,0.1578578904019444,1.2623192273296633,2.580031056411621,2.8854039081485405
0.7162446066722336,2.417263470949072,3.7987859357016474,2.5955068072391048,2.524384092789513,2.473463983703608
4.661465415246344,3.3805072551943613,1.7720764651839347,1.4694490778943972,7.088189755978272,0.8781557482565988
2.409454875852191,4.158116598362934,3.486847558587441,3.1023318982338246,7.514429056197563,3.1295414384895195
3.1609752666111643,3.6773973221203122,1.4727055884711304,1.6757339348230935,6.102805202128474,1.6481676064106883
2.1382896933774647,1.8564627190640095,0.7772531159218288,0.700973384303284,1.406261452086417,0.8342276544868928
2.413161148692046,4.439996220861843,1.729481661730976,0.20668103760731166,4.472379965170506,1.860555683436215
2.320641438257286,2.9155150328137363,2.63737333266104,0.8524281959527417,3.486262344657807,2.282495396559865
3.2812945240224405,1.8414577582279061,3.606249102561573,1.2448493340808031,2.8968812834275193,0.9324009099875754
0.858948609872819,2.3458572387132905,3.5935591198945613,0.6968952680508999,2.1211964694417778,0.9636242949562286
1.984978602404597,0.8892818060417857,3.1987380836258286,1.7902174472936683,0.394055458763076,0.9724512508790731
1.8857129904725691,4.016545573291961,1.4099186586178294,0.5394548087362849,0.690782334710086,1.5425353322136086
1.7957012491538558,2.2850008723222457,2.5487856046572714,2.9763935487303796,3.125762627046936,2.187317891646995
0.9686613393364257,2.7100020504859144,2.5456341694740647,1.301561642374154,3.9703543224740416,0.2622270132183411
0.743134295316411,1.0530134259628678,1.3961487585766703,1.0681168012981719,2.0915258034321536,0.656946535820662
1.3888578813805297,3.149357659007933,1.5445565119224673,1.2586502755840634,0.9681807672206705,0.4386086993070325
0.9769891711985161,0.4076770774099298,0.4692284090776319,0.14950627958419177,0.6073257596787337,2.237231914316245
0.9884201271052944,1.6853992584770736,2.172069464617922,1.1277423798725263,1.8679296345543654,0.7262473284850771
0.24300228969068177,3.1698623523152745,1.1275127952560116,0.2457970408727581,2.195630211987538,0.9876750797707091
1.4234950192272087,0.19386943498806247,1.2727095315855108,0.8251378769090539,1.8427756869075,0.17748499136005785
3.124730251829857,3.6298543282010765,2.2624635347438855,0.9899475313379291,1.8410591421934368,2.8882545686131134
0.7072783346399961,2.2196681590865825,0.7666549549916198,0.7572602682564054,1.2545786464870354,0.9444322475944222
2.37361099496731,2.9550395432707046,2.362111839379435,1.5250542649015197,2.1070817950354077,1.9370413813790501
1.2442842827949636,0.7065802049160406,1.1414222986413485,0.6895559022290428,1.277380826829675,0.8950663115712129
1.7944583987983598,0.5401611221290467,1.8449281476090906,0.4655819898787422,0.9406730460758225,0.21822948879597903
0.715246716024432,2.6608688969789394,0.3586397431639122,1.4835072372568894,1.4899638546116498,0.9871459326770048
2.8155711334745144,0.628315144076969,1.0382765663713598,0.8079867248384364,3.235052667899457,2.9213021424520913
1.878733478117182,1.7754083294529843,0.4350218340014865,1.3797189433713548,2.243714613038397,2.644663538459093
0.35618493237441917,2.0284559749753317,0.9893829570287184,1.4131927954585701,2.0979052483386944,1.779472217881322
0.5255200665752648,0.6735920095110991,0.4807717951211091,0.9244850658510007,2.44711865182119,0.886493452053129
3.258908405826893,4.083712705159084,1.7852389909155484,1.1353636375689427,2.130504311935979,1.978259688074803
3.0375577692537528,2.391796650228334,0.7930150922099706,0.7361538861033174,2.0162579308483912,2.4078098755580863
0.6969164015876999,0.8378241574275161,2.182631629654915,1.1028542459774926,0.06616909331918114,1.3603102110526455
2.583360661351556,0.6843061600371243,0.46669044115835256,1.5872594424741728,1.2559632911443313,1.112780892654407
1.4670462931750012,0.43288587803215284,1.6490840118451304,1.2585844799158297,1.8341624885187382,1.7566354725422797
2.4989560427480417,2.265807814643314,0.5832880531360523,1.0626479396157966,0.75236221603511,1.5726812633883445
3.0367026910268344,2.0452817363022113,1.5540766141333193,1.00960233429083,2.250328052258374,1.7134139188914115
1.0493441116735307,2.731755602504161,0.8870194232021521,1.8223277836561071,2.5922514851679006,2.105056864882285
2.1145545072199954,0.3427632215892586,0.9069194477424272,0.9380759275698777,3.2690803249029883,1.5115339779872576
2.891936496377684,1.3724275978333815,0.9985085568138785,0.5651956949034567,1.60388696173804,1.5057733282350063
1.1588122519831252,2.8215687142486225,0.08279372986848513,0.7931413814613599,0.30603708109426286,0.8790390664542026
1.171376758286816,2.3099609079378087,1.1723732271593856,1.0208234166845898,0.6898857960995656,1.193584929000367
1.2416834477438385,0.969540937478038,2.0904436379365126,1.390885064069912,1.8728767141854472,3.5197378218407422
1.9224604383783974,1.591947200321726,0.38473934658753794,1.0916619852196123,0.4485085508386245,0.41450203145200243
0.12877247621106874,1.5006955772378896,0.2654568769468463,0.8194441096010373,1.6723205088868134,1.016548195217683
1.7903464246725893,0.5333003597421035,0.664363923187858,1.1595109955814464,2.643091841461328,1.7291133152684564
