Gx,Gy,Gz,Ax,Ay,Az
4.161183000000001,13.413543,9.366787999999998,4.7059999999999995,498.57000000000005,69.724
2.1041703323156775,14.152327802770353,6.532210258935082,3.619569009883746,0.7598763988590375,1.9696814150539337
2.8786057320213696,5.836607243590214,7.09302365497261,2.2805027780939224,0.5513301825895996,1.1901737939089916
18.595066968700156,21.41163504050777,8.09945519141709,5.452045685219617,1.5561512439726486,2.0754602901933423
14.687424867690055,104.73065616835801,36.238180743178184,27.345969514353012,1.6439351195782923,3.7821684249861933
3.861280164173576,17.65540903588077,7.556042265738407,5.281471612463649,2.557177322659372,4.086136276018513
16.801150551566618,6.373460181777588,5.690720228345566,2.1538753954994263,4.1211231649878926,6.211925300374956
6.545296409166584,5.043185443144878,3.204257143285672,1.3763262492838724,11.216086971438896,10.594933911996497
57.14214056902336,16.731737816275754,10.09105039134044,3.480740554083497,49.45258375957274,37.778754352824585
15.45171685592631,7.253614435376565,14.549984138265977,4.585729389306557,19.023916719352073,20.190131829878517
16.748146131388026,14.398623747230758,12.883391843503455,2.864363815814932,7.316166117962233,6.7491992757000085
6.56426237739117,30.51629500912969,14.113312361020363,7.754085665621272,4.9101366114989276,4.8994207914936725
12.336749450976596,17.348251560324847,41.95239450134512,7.094967783894739,9.084867500404364,4.674495954029592
11.676442697183983,42.15183040434161,35.48522005067137,16.010501806889415,7.915491387692967,5.722225016933802
6.298001182496632,5.189205455229616,2.0958201631794666,0.5613616774149822,1.9853883180561152,6.29651300921841
8.626555122015208,22.273206317331724,7.113036859168938,8.281912409217153,4.0774459349938255,6.725631152026854
8.760579217271147,10.947347534860697,12.42903835956314,3.6072162191095853,15.12473371830566,15.537487542654494
11.055814089946619,15.113996287378251,7.021557947035493,2.7681345795042795,7.7016944875596955,24.545731869960015
2.5372667249431244,9.5303064062295,3.7104534497195845,3.791922741836134,1.7559975538207286,6.096823146702408
6.3286166300651105,8.70118898408947,2.687688681714991,3.0623284791661476,6.904270002398225,3.593515210358406
4.477856663203582,18.060758864660798,5.352657320011192,4.128062440114746,4.7781530043191,2.2034448571671357
11.690237851509917,47.292983942808846,14.483021275173105,27.49275135571627,10.102661583464993,11.772234673784729
4.615897970184239,2.4877662822728883,5.203157527193839,1.0247607512599635,3.134212313792484,4.870858527560397
5.595805056160101,6.807509616029943,7.196105129858603,2.312183745523336,5.461537402798192,2.8088379699061843
4.32498199992549,8.778456390028577,4.244560149195475,2.569614736536358,1.6384592113758492,3.4087048512076414
3.7664302539591223,14.13893481221006,8.751812134708377,3.975788382728149,4.3596731861183855,24.805330178268658
4.903520824966379,3.686759770272894,3.4697518025556167,3.6689731704646884,3.0562033289342114,5.710371510415802
3.482155204182294,5.547403436488104,0.991390011227335,2.895981124148713,2.0884499039708952,2.7743764156527506
5.214770662529254,5.076251695913447,8.631416268646266,0.8666614546402577,1.4404892783254608,3.323283331229548
8.934033370776188,35.81337827578727,12.640832626373554,32.10399570221132,7.740644098112533,6.3489869470804114
3.1238664777296385,12.869160771664411,2.4689897010342494,9.28878054958793,3.590526969077722,6.396599172245465
4.9719812734029425,0.7348369329710382,1.7796065695436933,6.619658856542417,3.5974668448267733,1.5126046226328864
6.697970507653052,7.9951562284439195,2.318261910720093,7.463156593206252,0.9553347832493893,4.5234664916999785
4.466331031663808,7.319309039121555,5.0858716876076135,8.712350403185779,16.27322502854221,22.983400389332196
1.4953459897775956,16.872779265527004,1.4063494186372665,14.685247195738903,8.034617412917873,8.4429767884668
4.748472137457121,7.227298738182334,0.895428642948696,2.2347557018963764,3.0429092808105245,3.7692888545221734
6.190066451831385,8.471538669759589,2.453766457271123,6.502558909921877,5.207769406798508,5.443700991474846
5.405694650924929,38.378956211317245,5.542295836450102,34.588721197416355,3.817911212898223,3.7997454560700343
3.51086809215648,24.749265018070965,2.6161923679269754,24.786970011739246,4.233140820791188,4.917278719097566
3.2939910242883497,3.839550520861009,2.1522193319883938,9.042158654702638,0.9829239746310936,1.405234329228271
8.39584030642383,18.846845964269235,3.833173727341175,13.571235568744394,4.275246814545401,5.726516013111492
10.32226912038103,14.344080642892598,5.785720945752607,10.98320667006501,15.310204015880817,11.559314467712598
12.19491850032081,2.0420135771360366,7.455273832288267,7.379644962108915,20.001855630977467,11.460345146992987
2.045513912068694,4.130975413272647,2.9195629556754654,7.03323465465617,3.4606966645474118,2.397897396593743
3.972774727494579,2.457897315397104,1.20850847182219,3.197669459503189,4.1648246446397295,3.962573148080354
3.198657092332995,11.142266330960554,5.029893973246624,13.478573600993172,0.6907168228821803,1.8448422926506816
4.573297767433574,27.65773093469721,8.598376211529896,25.334144890620767,2.437484052677567,1.7900119722841505
4.114792973022959,8.433732369553093,1.2175297691537792,7.076029676855946,6.225847361344828,1.3583438292390564
3.8462873798419226,8.807424052996943,3.593818928282781,8.06536142165827,2.9809967813415414,0.6552571267149215
4.255066939051495,2.392779373419901,2.2006183765857936,3.3018677280556035,5.1582084123643765,3.2698166466670417
8.229614205785131,2.980145302201035,5.001789923766161,4.517019175384863,16.139880102065842,7.432252390168948
0.8279911023593085,1.5051009241254638,4.1450622509334325,4.409452340951451,1.1764939073213738,1.5586665030749516
0.9156355929711145,1.6758803102021207,4.359007244365168,1.9660402504066332,0.5362718246173702,1.5010220934729863
1.2651786289335096,2.769781459860083,1.8390794645891675,2.6304185747485107,2.1039002612189286,2.272769858408258
4.422234448627717,8.333483120479471,4.275094122773568,9.160679680399998,2.1147325960845698,1.2683171512738918
3.6342864045954952,3.805333617007427,3.069211410002701,3.953073460312999,5.044798565059615,3.3972456017200505
0.9596257133753202,0.9477268508094594,4.2600010719856805,1.2292892186743816,4.283576490835767,1.583610342590018
4.951784958375501,2.2712554500655195,0.7089263371746342,1.44120020102508,2.110613338322995,2.7277189304516694
4.034264624243277,2.171571083700185,4.665202844293887,1.9169757091515476,6.92840824037841,4.531661360419951
1.7850432319329366,0.8588563923080302,1.8220886896513468,4.204097160332946,3.780455857937906,0.49269170470505463
2.114995188207972,2.1031263616511753,0.6055005325050156,1.2315884504657149,0.39161300208420574,1.2476121754155303
3.084884982536189,1.8818630454342633,2.299181468550093,1.0284642613740758,1.9363837921467897,2.873221020353072
2.7632876467031764,2.411105930941865,1.7491276093323922,1.1131966555962671,2.0827274781325134,2.2059345883614743
3.5621320887382613,0.5670363220054534,3.5761896616172666,1.2490966812245783,5.936073492190501,2.4426288345993474
1.5177452784002488,1.1436604404575483,2.398048616775825,0.6571813610700076,0.7907036209822891,1.7563216804974366
0.510554230847963,2.182044641318992,2.220555496957487,0.4105687825438125,2.2040326416446794,0.3456170455868982
1.5930571770865283,0.8836844919823957,1.2996422225622553,2.5208931479508587,1.876300482450521,1.8567044854816164
3.4080122636584447,3.0648002780202543,3.1715900912890294,4.044661626299728,1.460643155779658,2.0264069628239083
2.629741192295755,0.9595916053299811,2.4999426317318325,1.78654483213616,1.6210692446562338,1.9591896356994192
0.6369148590623958,3.32665851690297,2.6952715383608634,1.2368925990134043,0.6861157363396894,1.6484019473526286
3.3466983751767647,1.9919969927223493,0.7274497145090887,0.41139789092687773,2.690461003021703,0.7678729344206228
5.845374699194536,0.9749445487373131,1.5892143522465525,0.3342248672427776,6.601608585563986,4.153447839234522
2.9669861262925705,1.7105132371038207,0.6827834291286964,0.6918268892350482,2.722924417254082,2.2625039136045717
2.9853048660593986,1.8150367359592263,2.9026835248380776,2.16639258233808,1.6041638159470002,1.085820953924612
1.1865309472143184,1.7017801603137181,2.8027254471698826,1.3552095088973746,1.466358107099475,0.25737752995115215
0.9687711483596594,2.216915156586729,3.0746402377270083,2.016677649188157,1.5575422423619525,0.9902041670966316
1.363260680085004,0.8387734477569917,3.693186604975398,1.6813814158539526,2.3905405388862744,0.3130088620892329
1.0040507620884156,1.4701733012888407,1.008363678165389,0.7713005625247825,1.0342705023054326,0.2783533510682657
1.4141535220180077,1.1511823858538446,1.061994605210997,1.0517779109964025,0.38973098952187796,1.821737135880423
4.615561935707772,0.6319009124584963,0.5325999553040658,1.2762688329308949,4.09599916188089,3.3280831475528836
1.104395762938164,1.267268456256651,1.3970917642454657,0.748315423794975,2.411947747917613,0.3051166027022977
0.5687706020532071,1.1223999626254213,0.9635775410224077,0.4764101922329309,0.8347994715463789,1.0473592932522857
1.6637251774147213,1.353512116554742,1.6829789108816073,0.5059894220727648,1.0082788296962288,0.39610599079588193
1.3946519928354604,0.8394609368958276,1.6767386136137294,0.7660960519675208,1.068636517447084,0.4027619891389981
0.5517550149269143,1.899064900474183,2.757753021931623,0.25809300649184624,0.6932474305758385,0.7430639272633278
3.440064897389135,1.3946003519136336,0.398506186249159,1.3656076866723978,1.1157260078421942,1.198924096171759
2.8953581591063253,2.243900857050806,1.7153390150126644,1.0154058239845773,1.434491384053534,1.2632468880513206
0.4218233043825872,1.6523032376813473,0.10683603649844796,1.405702466589446,2.084742023768588,0.5444566857939724
0.6117289198834175,1.3467672611921908,0.10790981019059666,0.6043481944374172,1.3419841653420606,1.0909971488560448
1.124102505333225,1.5631966325381694,2.2255752532454505,1.031280468375458,1.5167248375001652,1.2418004115438077
2.4216944884688445,0.3557847841712568,0.768470245882082,0.678539942467867,2.0973648097173494,1.0313893130587912
1.024055121907579,0.23395049910718563,1.1035721836565395,0.7656475961103444,1.6385636877815395,0.45476952154066674
2.2545993632798975,0.09356198182360811,1.919923203513997,1.0368089743941313,1.3123391877459172,1.41433016140972
2.656715758692925,1.3634060239740193,1.626680163375654,0.943486900485255,2.762491034113817,1.7236375544796398
1.9565243153523466,1.6558926532595861,1.49868400509825,0.3485138008123297,1.7812971025159443,0.09148605099312597
1.2051163511746437,0.5585686247045147,2.125238648073353,0.14113416200699494,1.5079862494590004,1.3391939862667814
0.7452791778317069,0.2628913635478745,0.9004685928946324,0.9703530164887735,2.7999677038597737,1.4019607515534338
0.6350263346166242,0.2201749058846796,1.0346570158514086,0.5841159846756822,2.158229856752027,0.6418117119153062
0.8570580069765782,1.7925455048083367,1.7347470293453138,0.43321152107895733,1.052780444356502,0.7274063628167483
