Gx,Gy,Gz,Ax,Ay,Az
0.009443999999999786,1.5425720000000016,5.688860999999999,3.0660000000000003,531.276,26.03
5.264750032379333,9.911789523493644,3.465424040237838,3.8281422581111766,1.907100546760883,3.5087349542134807
7.53525476273855,11.294650336823798,3.5956007262654324,1.0126811899835446,2.3150010654934907,3.5513352882177136
8.826475603134257,5.407857012062535,3.3051866353887593,2.0643483550093604,2.4579934608296874,2.6477815953838566
7.549316230114645,7.9558415488815655,4.887484479380982,2.147946202362875,1.9250778744138008,0.31599773414261567
41.22733226044279,114.85436186577944,67.64276379739638,7.838007254707742,6.647422437496215,1.8246427847676512
3.3375414282577736,19.431047053466816,6.431098417194458,2.5815446511741937,3.6715910508967706,3.2178780319606894
4.751439532835317,1.548528788966356,6.878384959901574,1.5756599764158825,3.8389767107443307,2.028060362988915
1.6398796308210122,4.630834216568201,7.183970739397943,0.559629866299936,1.1718210503886666,1.6896800914846832
2.1786041216393572,9.474489566122836,8.707459340226631,0.37515733433025805,1.5624638674071123,4.236326965809387
20.793432980064612,9.636837184274885,7.155353581712976,9.66207739679971,70.94115679341272,47.315544257931684
7.804352850409864,1.4564456765461593,12.067637796337246,2.974501017169448,13.405762954527846,9.729203407070406
1.0337698970001108,7.157873972314639,4.434567372426059,1.3627158302864077,4.895535744196608,0.3050704045521301
6.825256505303901,5.024328972998962,5.218416517028911,1.6846677540929393,0.9508399568204949,1.3604380828110152
7.632150418574459,17.33154714490098,12.46079022896027,5.038935472527369,4.063824560448461,1.852193257104643
12.986860545156288,33.2446792294536,89.72959343443677,9.209814465700154,17.150952356003867,4.913966503142194
4.626377834845145,10.061865221592512,30.228250840256106,5.470799869818313,4.862404739073087,1.7679870273867564
1.3944125723804697,11.08189247222839,3.0764460419627535,3.099834707723492,3.003217936384006,1.822533940765529
5.477584437326545,9.706358901618533,3.6141515910365083,2.411358077323828,2.9650815300535225,3.021249892815427
7.865367483210212,12.04217966991728,10.914352303540182,5.855878675791152,4.904416720515335,9.296292413741885
14.953930983474452,3.894205518553591,16.86374074391223,3.457801212014475,13.161964221752957,32.875448923686896
13.321785613535946,13.329833645513503,1.4867888620643026,7.471788901173446,10.721467428669072,12.221327041920455
1.9739564684129836,4.0470129760724145,3.620942116628552,1.7016962253430803,2.23461327629394,2.6723942289963865
2.202491831868435,4.829868089784127,4.391381017033793,3.8091141451479307,2.2560755260417085,3.7800361889870837
5.095059352345069,8.260248153852274,4.968967900495465,2.456272403013536,1.3700383236844367,2.8039741083268086
9.633789303707276,22.191745633860624,28.333014907971272,16.594523307254306,8.35162167924595,5.532787579428637
4.765052971151612,11.35539950137463,13.087612367396783,8.320928707240814,5.451278468246158,2.7960387735475254
4.380352090773442,10.680530491661582,5.9317744610526235,6.071752428486909,1.9150718200860601,0.5390734815019871
4.516954310647297,8.970483661290837,8.671701179402845,4.209100334084123,2.166494708112128,2.4237050699385905
0.6299728241841113,2.070743885092129,3.155092002747155,4.09971745522995,9.357407070065246,8.660763384657255
13.610358974044908,11.279057454206132,11.303974590372073,5.865718758982774,22.571200100530938,21.4202974477672
9.52507105306213,12.491538901493795,7.15811152616079,9.345446301365632,14.639707778804219,7.313809652388103
0.8891651847069652,3.6186065031402728,2.4724552372199846,2.6454231124215353,0.4328600186246137,2.1202394286345343
5.379735644748326,4.88272355909241,5.192897098027632,2.4878378082840245,4.46450686085035,4.713656978012055
4.315466019577888,6.562340676059891,0.4794979896113452,6.649782128600064,1.1682677855040486,1.7376130786110235
2.9113968447927436,8.876694884454478,5.882747649756008,9.9466787380964,5.86801239631634,2.3624175978857918
6.492540990950567,18.252868795599415,6.742403126453554,12.093948815440884,4.965519198889007,4.766514898563625
5.609688811701333,10.144703381866798,0.8673520135080672,6.607688811717862,4.8053026957868505,0.5825386161050745
8.575495976450192,14.356709458309433,4.09264243491837,9.988371243060932,2.7154468013874324,2.1469176621537787
11.625533176837708,4.620838319838933,1.9382295405841838,3.0339043189229016,7.212524287967471,6.456266169099289
23.569503258231528,10.140028989994638,9.623305237858398,4.371934497812053,21.693817073099112,15.6896191579447
13.98370555052796,10.397536630535823,1.9349994397091146,6.518481057339614,20.87737299099733,6.853084321188092
2.8361107098006237,3.575267285772448,3.785168414658688,4.940379356410156,1.5754089955339945,2.3041536816953574
10.561572924343587,10.16365354601879,1.7870850276819004,8.679937228908361,11.803974555609157,4.766231605959388
2.496053563711034,9.670846085739235,7.238758038272575,4.652778353068263,3.8474266412512117,4.794785363556442
12.785887039139373,18.61560257684226,4.9088842852370345,15.475002191925658,8.064773629104737,4.40380343575926
3.5144101520749857,2.5156740511169806,4.736714098185603,6.40623828156766,4.958135984857925,3.8034449193414677
3.6027448329837206,5.643920691515237,2.4536151488752713,3.6186037908727724,7.866283552918951,1.597663373567279
12.477698839347351,7.841355868625044,7.716304400257745,8.027462130176556,3.655469370420583,3.4294239971271177
6.804017768520674,3.161055790062871,5.394378853249983,5.524416121777168,10.027488581307862,5.280983158678256
10.745420572270413,2.052373625587383,9.14690836492498,3.5353753455309977,24.76317898017698,12.6558952136781
9.387785099416359,5.382336127785511,1.8659825698080388,1.4529964811703329,18.96883618178857,9.138217206016995
2.4109574610082505,4.834632875393838,1.0999954950767907,3.8486016536715755,8.006649828203741,5.48791574470478
12.06375311908812,6.6635017725001235,6.786084350473694,5.62130244183842,12.36137990051589,5.932330210486939
7.532026750538765,8.269548152318684,6.0239590166349215,4.50863162637717,9.032297565703521,5.2338489924783795
18.137924612725705,12.765011764413996,9.37125306369246,12.765992504245656,13.87892722240745,6.876161755756565
14.105951591918528,5.904690590639901,9.430974319265164,6.094326891431947,7.830075644433003,3.3532778735596143
8.632880897682284,2.798323989796426,4.792380831725663,3.1923962290850563,1.9943329359320743,2.111224776783896
8.977238810502502,1.219305072261916,8.382847769386759,4.406202576586441,10.462056077058321,4.0775949354949255
9.027355010639363,0.9574251149289158,4.790548148669202,4.710157478648343,12.359801406028753,5.3281827389087715
13.119812838460174,2.448396161139194,5.760968792354169,3.6727043161913513,19.25739164196242,9.245853857728989
10.034491317821756,7.348416401648788,1.8186439969744368,4.793108758422197,23.818597869641977,10.079674262678306
5.254839755256505,4.88141432769281,1.1416185188015717,3.028943217012706,9.98014201642392,7.204725020926565
11.433026663799662,0.762022393775616,2.224815667789013,6.1223350513577826,9.34879237326827,5.838085616299547
8.206819832543935,5.573371477409561,1.4684568907770656,3.0598876056762485,8.227388483877075,5.854095579335917
13.16695237248787,5.595869214446085,3.7415389103420162,9.797098148460421,12.888580100110259,5.59107912678853
20.305162304208082,5.702080834260014,6.404650160544563,8.57149246224821,13.586081605073662,7.045752497922935
8.425531609366017,3.928402349763602,4.4829233018843855,4.155106857191401,3.144121250515527,1.6536542924438953
7.060541802090419,2.325378280908021,2.0439683078295547,4.5405281250719876,9.306811795491212,3.2050291489223985
13.776290038799495,2.6082450747908776,0.5362414318049737,4.023219323832237,5.039858840473923,1.8059420380444617
13.514038672869994,1.5135671561497623,3.6750273507816713,4.093640832086662,10.660673122379414,4.689006159168218
15.733442807757207,6.820101136792547,1.344864691349512,3.191381349684334,16.87981939987708,8.84996011175412
7.627468848956125,2.216274896948762,0.8029699743720443,1.9891249009133438,6.622674989829278,6.680812523118172
7.189353806021326,1.3467272796348713,1.7507290042286594,2.9959302582655174,7.614829016516273,2.736239980698299
4.893170682821377,4.003903991184723,4.479403148510661,2.5080402109052486,2.82211214909109,4.019537739262736
8.08132177082574,4.34086421253444,2.6494562357542195,5.97460753003991,8.684644194118237,3.635804205941799
15.597646420627274,5.111198510133708,4.895190205209711,6.907754344470411,9.451763756168157,7.0963712917998585
11.703889272431557,3.6174539030911763,2.5739486868604846,4.93789823300119,6.520833368306024,4.418974071154471
5.011231064696191,1.11449002630794,1.1359959616716584,3.76524486737748,5.317941335039447,3.5570675287818037
9.890018320076397,0.5702235793046124,0.5666823725283219,2.2085287576494856,4.030059674003199,3.233139761794647
9.280684326963767,1.8913838633447113,1.9539457794194999,3.710745191060618,4.467965620764573,3.0734796378739557
14.946220866999639,4.155134097182783,0.7861546245767679,1.365420361829272,7.586505882410924,4.278571727067043
10.030155394141433,2.557253807030409,0.5095614857445991,0.8153598306592368,1.4095288814503824,3.0073533818132665
5.9460504769120135,1.2586397118701036,1.5558530823209415,2.2711078749368836,3.7621428201129716,0.6050386324622473
6.368481907696204,1.5140928470109056,1.8680057639234744,0.5657348754725241,2.602254501961482,1.7272405688759682
3.8727318965381365,3.2462505689922554,1.5752144284359766,3.7151109776935227,6.953083949832262,2.233962487211245
8.758246844667806,2.6993968005071376,3.564638465853869,1.975767997557153,3.8679612809769526,4.766671646035674
8.408210295323098,2.0950406684116225,2.214025335451881,1.779418330449805,3.1695105696015156,4.790861607716603
2.98145024638945,1.1991902687065739,0.8670617666621512,1.2549234040555153,3.2940972164707727,1.8266488130679315
4.9449644482011,0.786899980859862,1.8451184784898609,1.4040183319217503,3.1731619955389583,1.3854943720288742
5.402698113069865,0.8230560679850616,2.036776405348288,3.254652900370815,5.656475193916773,3.4126387385283903
6.308217524937716,1.6851048554027457,2.294498490242307,0.976634281244094,2.283870741841943,0.6170101845173804
6.020164736070233,2.6898270079416173,1.2950559486369906,0.4440688408068255,1.427703328599759,2.1271301604368658
4.782630036970313,0.848451586004341,1.1583351914929971,1.4778416585466807,4.016524966007523,0.6821721030992034
5.83106766460076,1.4994144816920778,1.0656928050920105,0.5610408357093597,4.307941880622394,2.485190593130499
6.238508082595653,1.5478025324359515,0.6801830168216655,2.2687824593377766,4.958957141624369,4.163188315159171
4.852452681937489,1.385051578185993,3.91317836642282,0.3830805348749978,2.4745539140347454,2.3499763262596334
1.8578415177719794,1.8432052178710259,2.3258076211208727,1.429738603528726,2.7044027659162406,2.7750316260332824
3.4007135404471582,2.940328225888546,0.7578813074219688,1.414898504775607,3.6365219826101023,0.5925780493680349
2.1845097710239085,2.3551154196477935,2.6872060692215096,1.59099341195721,1.5938215089270233,1.3017247691345826
2.92612200136995,2.2049329678400684,1.1349490351136644,1.0768927644827815,3.2707645003715133,2.206941384988897
5.6357288338290825,1.271496281555048,0.6043766186650996,2.096820895061608,2.476830482615924,2.069054906972628
4.776799414093982,2.3628838140107127,0.6301506119978622,1.946997551626943,3.2376025622045863,0.5457196439208319
5.17571965380217,0.5040450438366927,0.24740764616499392,1.215153036879562,3.914262246340799,1.9421349684909306
1.922460567565049,1.1287067931733354,0.3722969942876941,1.0461252825016287,1.6544275632734982,1.5609548296354803
5.7006220822437905,1.7395381325926147,1.3163474748255106,0.8680251041236139,3.671189624484365,3.1109363028639634
1.2395493935056747,1.2619296961880035,2.096145966395745,1.3187860284228203,0.9126152271982031,1.136881387149752
0.7983627698126461,1.5631214701020897,1.202469875500656,2.179939990833594,1.9335251778005806,2.3756051536997256
3.8504283784814266,2.0623277724091214,0.6071317754078777,1.730425374661033,2.686201765024293,0.8005423887212159
6.134230960971034,3.0359459044868222,1.9542248867574064,1.3947576150988223,2.596211814242466,2.504489164762139
0.720017054268381,0.2917362674537485,1.286594383143765,0.8870412768196793,1.7791837550500427,0.7696968825721244
2.709439307109868,1.6226783711367647,1.281027778204205,2.35104622608433,2.5664811874146087,1.1393652926774998
5.764739717783829,1.6286772975335113,1.8914727311455966,2.9954465439513505,4.844495462300767,2.9183038326380797
3.0000102882048236,1.6027764396507653,1.2282372055517885,1.4531481571776421,3.3219107922743065,1.3222642965006564
2.375355103896342,1.3680996762400146,1.6046851480189968,1.0857926672888027,1.5239782945588722,1.911593270947007
5.48872961059914,1.5587417149634308,2.2951910888308644,1.5158557434264506,3.2049243706097448,2.1684094380184464
2.1893566979107115,1.235790234911748,1.2331091869096795,1.356591841083433,1.8134579569993312,1.3487664122591616
2.401791518723959,0.555236427899197,1.2810812641407003,3.631618571662691,2.396967907359938,0.6070549137562211
3.6458541622023937,1.7737160426561212,0.5941325969672193,1.2113224700385925,1.9829769703269697,1.7299375820064855
3.7482018931182712,1.5443492165982993,1.009700419592746,0.05803769492805066,2.8829887270081027,2.408930341905456
