Gx,Gy,Gz,Ax,Ay,Az
7.168787000000002,3.0359150000000006,0.8343639999999993,10.739999999999998,576.144,33.332
3.4864059117862376,3.335232494312225,0.18899009226913455,1.8595152781028645,1.988746137623013,1.1695496364741749
3.5467475179884147,9.562768619924933,1.8762333187364613,1.7386144322663837,2.54963726830394,2.276515135397398
8.866859916643518,21.521354219154237,5.085693189018929,0.8716087536431741,2.723801444248518,2.1489565487331843
4.441441171682462,11.995890539954717,7.279671289361944,0.8498089877365075,3.825779328211213,1.19327332200046
40.308995051668866,93.75646564163594,6.471978709418579,15.184226882878649,1.4082339765731704,6.127964876900732
11.4469846186543,10.250148984419338,8.948046020821124,2.552229545542768,8.391799561805243,3.0040306303133115
12.872317380786104,14.240624128261008,7.288831209367976,2.8796271063953056,12.11715842325138,4.807769763331394
9.104507051023267,26.66308041993545,6.339870219457661,5.303453314350791,16.180896930532217,8.4691468665331
16.439561643142167,21.794203430871814,6.618833038169985,6.786631006572774,27.973961591030434,13.36839264662732
58.67928335638574,48.193375436828156,4.813663139452903,17.416336473035585,79.6978594203152,58.2522143292143
3.2508842965697444,10.671878686573166,10.969658999454994,0.42422102957145574,16.08758190373195,9.371766374345043
5.408864942409229,9.914549532680375,16.133516885021177,4.552535347874042,11.482303748243062,7.523537377615856
2.9502015072143766,34.16830524912529,20.925908812091304,6.621180108234689,10.965150711506487,7.044036154960666
2.8929233402795576,21.180185247392615,32.50175591888338,2.5402459500158847,12.66794416001914,4.700889084384484
18.77148883499422,52.699373624933614,90.03263066859,4.378460871105798,9.280452213207333,2.68627923916519
5.033071121657863,14.025335937613555,14.028766324297743,5.269158331633351,10.724026562579935,5.429121854842773
7.351369168059702,8.218965865314221,8.358625447668045,3.930775696892774,17.56804168554176,7.246185521801449
12.988778816013518,13.701307349130087,5.2693281473832885,3.8899156223128513,12.92017300083981,9.261859520559568
3.1177380600830364,16.004556640930932,8.662186892061477,7.892030724283016,15.657480417193756,16.46234417826772
9.65712151791415,37.84377753752205,5.3985987682314445,14.420500787470477,27.002872250458214,29.57630661668899
4.30836118249562,12.708676951583925,8.917350665563808,4.460092996729439,3.0071751598279635,5.025595467762532
3.260679734395423,7.4855919547152965,12.206935211463321,1.646892373059586,6.710312322796095,5.154365367584453
4.477207453041747,2.20324428643468,18.844972633581506,1.245051467085667,3.155875676682005,4.865182434160781
4.6809464860827745,21.491844057552477,6.2330841213981465,9.072001396595414,5.279126166286029,3.7815868691785472
6.426116963861633,26.750119729281245,8.335198840454357,13.607370606982252,11.532098209712647,1.9580845953977273
0.6621615110477359,17.422270709956,6.687582632376898,8.219779225553523,2.541198220049005,6.389877699046384
6.051533343835406,3.152301874660527,3.958508123612186,3.088001520809729,10.198255530597942,3.4967043138316103
4.574555305767449,5.142762525296509,4.221781619004451,1.6671504290127874,7.902015678897635,9.331592309029004
7.371630086505437,2.6704361796657774,12.560294227017826,3.7441791850851165,14.305532057811712,11.736154949637063
7.489827837826706,16.582297647932943,5.002521587569989,12.390666654992359,20.366162737012303,26.069860234157133
3.2071670666495082,7.271075713595469,3.4244819181646444,2.482986591069786,4.627213660462047,1.588288273789089
0.3346615946954623,10.562404207645375,0.38315959923176085,3.8938408612954216,6.491509208456832,4.766525773976652
9.381124721791306,11.692532084718975,3.7805542575705147,6.151234587876869,3.700692603405187,3.7760212060841956
8.39742968301732,14.911294532546632,9.189744282022762,7.131643464013991,1.953479357570675,4.78095137801223
9.249437157194384,26.027997545119366,12.572319932538463,12.272089103803797,7.153073138448816,5.712550892143737
3.6668043437743987,9.350397457512186,3.9516785824164566,6.7406779955338045,6.988033904377113,0.8531878076055766
8.94804158541127,6.5973207784942565,3.9254903629631293,0.2754433841062834,8.898691476214296,1.091199889312837
8.461455315705274,15.232794472453845,5.545286238931164,8.099819866406264,1.2662297942830063,8.129649772050099
7.817846543117758,24.9498203003311,5.036822992424475,15.77200980873704,11.935795298425578,14.26395935268202
8.626710140775174,7.740206028926562,7.2934008949565055,2.7817900972028404,18.31063249838497,19.154355094223405
6.154748728193819,1.6606645255904733,2.408450109515576,3.1667939527956768,1.526198648766508,2.3330444251465288
0.36248881655684423,5.949378706957205,6.29714424395892,5.019155238486573,6.12087966006538,6.2642294963036615
8.544398425877267,4.389783498893951,7.846411795247002,4.909772908690768,5.746800045892676,2.496759362351367
1.651388788319723,12.746250869184708,14.333422600077217,20.466197173082158,2.938534916313836,3.7213624765186992
2.4938956838051367,17.621525915686227,13.631415443873887,22.21456140436865,2.8054062805899522,3.6356352743632305
1.5323946112968383,6.958271300103091,1.3359928918280186,5.432776036651577,2.0224450749897347,2.3554292032300412
5.58763169464226,0.41585736087559305,2.7765418115872795,0.6559275007882709,10.751305246123279,3.199149969696712
2.5143758389718665,6.722267074462808,4.94404523371948,9.174149703686904,5.204783597345964,2.2066972145825523
7.136618834667214,10.614903457830808,2.476654676140934,2.3483880202038665,19.21301408922284,8.247409146426603
6.527156505840654,5.832450961803232,3.8476317852154716,4.749863430989402,21.269493335273612,9.756853223382647
0.7554662721444059,0.523792377420706,3.148278230276489,2.8324017405894937,2.440907331221158,2.6008916488989606
5.988502652057868,5.065679796759682,9.728800909536442,10.236401047337301,7.4230451683107574,4.471303111653624
3.193619616977381,8.833177311039384,3.1205964900195973,10.296808814502478,6.186595686642217,2.339694304322494
4.119528357024294,16.546943857963935,7.960050624404641,19.663901103326165,3.7342952552570097,6.410330295939234
6.087313652756609,13.502557473729922,4.149841098576888,16.385364247346274,10.118155991396197,6.227598928737526
1.7181531217935713,6.913797511992477,6.529545653242776,3.9953594957573246,4.001439271583446,1.6345120823294292
4.863179612371045,2.9175078652168582,4.6452520691155526,4.616667852443944,9.2301970916781,4.428735272218693
3.5031021238401845,4.421690664880158,1.7224721422380238,4.123798333224923,7.127781084958211,1.538587560629367
6.677327369974415,4.7243227865467246,3.483979411011503,0.942734365757739,7.8890301700135375,3.0696776774426855
6.726796831798977,5.358135656985887,2.6033348788612223,4.7178113414874465,17.71778759273846,3.121550727365182
2.217927411192814,2.3916627987378716,2.3760308007827526,3.6203353339771858,0.45217979094319216,0.7292434304066165
2.7695790171377315,1.4377165416849766,4.86602175678355,7.183744262523112,4.876850228365508,3.4704022644881594
2.8008149681913577,5.817676411808536,3.3949862202029837,4.700947864154486,3.3173111059465645,1.0887793992906574
9.446249209519396,8.005474961417686,1.1831081832534367,10.39832731640899,1.7118167107055695,8.9356869465209
7.672188112019421,6.892190589614599,3.510946637413856,10.148668417127238,8.748318783122247,5.6798685372881295
3.807106283963227,1.8580139867457055,2.2960319256373785,2.5629607057862516,4.263224387281065,3.4035615651551216
0.29555813183816854,1.4559829253657466,5.006320941767461,3.8363383848827732,2.885402942826368,2.068239518318285
2.43261313009861,3.392852959103266,0.7194568801317873,2.5394405607790134,2.712036788259908,2.21139657498542
3.886966208883765,4.130041113155416,2.680233951397384,0.30383387116196126,5.423993283125662,0.7982801106964539
3.177859333061408,1.656143653655547,6.8541504737546095,3.4012290614822955,6.673557531897335,2.791331130679277
2.644470220539062,4.20069522026447,2.6026076103929254,1.5420477301113082,0.5822686678670198,2.0799175970469808
3.7933285398773355,2.4996173132470036,3.039904304833414,3.5107331207224566,2.816886188768518,3.246737013929708
4.688346413582531,0.8231019743265002,5.605223063463688,1.6303920206448985,5.632229384120947,2.718124639948117
12.148222273500613,5.645680888096467,6.157133712378679,5.035948361258641,3.3347488432714743,8.01679901937619
5.144597555631321,5.688228865386818,4.907738197629805,6.5097582261305655,3.8430310205402685,3.857205822669324
3.1976937737357765,2.969334203180333,1.4275387978001148,1.3379124350140958,2.343958567002483,2.5092612582475655
3.8386051484237114,1.949772361962683,5.206209484145906,0.7665223051380247,2.8957396453389173,0.9416397718689886
1.6159246996071375,4.115078686395688,1.7262691650867272,1.6209253112887219,2.2626209117535483,0.9870963673693485
5.320508965334654,5.299882986405002,2.1415774745835257,1.2936392241011216,3.686138964485462,3.0702894302912225
6.012374712122994,1.223104872249252,5.56618134339031,1.9636176352440617,2.4888085935310853,5.323913946588626
2.7288213086888065,3.175019725448729,3.338438987290449,1.1881840344145116,2.0077291096613274,3.4068408906664422
4.406753920212209,1.4409508954103916,0.7612332595377255,2.7183645047992058,1.4882755721094758,3.4146707032547323
4.201766791601993,3.27545456388294,4.811837817314468,1.3554923137438992,3.9558730193179343,0.6559894673378599
8.259949107855016,3.678924436746694,4.220516150219844,2.4349369766417754,3.964745785981459,3.315043940894265
5.819412540883225,3.4240082407509247,3.7268743762947696,1.3275100230410666,2.6747840644068903,2.105572483114301
2.3117366181415275,1.459919488390919,0.6074485688802302,1.3167175410125882,1.507529435506489,1.7937887137959603
4.325457483376171,3.228011784538604,2.792995274932276,0.41642657529690374,3.655977700038327,2.985493616799007
1.7686076786578047,2.0616718113939663,1.9456066666307368,1.26032122322226,1.6131997138905745,0.9402326310559731
4.748569460894811,3.3156566470710627,2.386012673775273,1.097532617644949,2.853127962357467,3.4690633549388896
6.434105895905468,3.0018109987565675,1.8083605381437005,2.2579741395495527,1.5529581331399944,4.037738852421036
1.8016016455471688,1.9913374248929268,0.8578530677632235,0.29337768825957333,2.6673095361049497,2.584375927393558
5.676370310240515,2.3187092287243862,1.2532604641559764,1.6469902326326629,1.8016428202713817,2.4555610937841386
0.3513666225820314,2.6521592265630938,1.4799476497473918,0.7067382062599148,0.8038931658095191,0.8239482006014269
4.9100600878274925,0.6955662922267432,2.3156286346621977,1.2417962040270647,2.3724907048420003,1.2666633798508602
3.5463730901322466,0.7823376683516822,1.3565374951900393,2.025235912176723,1.8619145620328954,1.4523995488737516
1.2066083097674556,4.048528474606668,1.1214115370455071,1.8301950758192755,0.6461692562383705,2.2150320507694774
4.019353547823429,2.7704570364875125,1.2615173598975742,1.2303083518730034,3.4631605960031697,1.2620358131135294
4.782874506970134,2.945281504431167,1.6279920346160808,1.7080353578815326,2.1934212822052026,1.9761800585664182
