Gx,Gy,Gz,Ax,Ay,Az
11.611693999999998,3.962746999999998,13.921632,19.897999999999996,591.2460000000001,52.0
5.2463144530075425,7.492590582875556,9.692922990717166,6.691793526390878,1.9687134053887594,4.542535664740183
7.909065641889939,15.940892940502815,13.023168208478234,3.618699352941113,2.371067063127368,5.663126046947431
5.86166378510882,17.992642830268476,3.8056538351920417,5.544832228123633,1.2909466012674817,4.038130135245659
9.95367467152942,17.076127548789884,18.906515970500962,1.8643462555414319,2.49864585765165,1.0372950265457148
6.725555211454078,46.29161482829983,32.69926002423826,7.223331600051887,1.2667758599283105,4.562355152119299
23.804784452174275,63.73858349007484,38.8261725246712,9.729374023051244,2.4941901644006697,4.997356131037374
8.175975317828291,43.692334324730616,11.841123890459274,2.096843771156901,4.27793780073527,1.701381009423689
16.128853582324158,78.20514767803117,14.167145957812851,8.341499639499837,6.796997543160098,4.601787645479486
24.335119060382564,27.19384800713638,1.73840444261922,2.5560802949406707,14.765519948972681,9.614308374454511
34.22141249898447,23.579497444477692,8.876867514482504,4.207894186713638,18.729799475945267,20.36388052184256
63.299835828941056,11.610300012071901,12.382487231515098,5.275804881675776,48.40938333089673,40.5520232246504
47.58657756731835,33.70243741905938,8.449582797192672,4.481233166992907,46.82234583420944,41.392563767920855
21.898354026390063,15.747718299051698,1.3400822307799962,2.945802759230694,17.190382490763156,9.934752685027796
15.641807184343206,31.311344036538944,6.1114642287246035,1.9352354348044571,2.1244503370746055,9.225507905754164
9.270785120365662,9.893306679757467,11.044367101618091,1.8633909537111724,7.593073532640327,6.979886155861076
14.773616809186507,47.83728058618909,22.71525074745595,16.83177787453132,5.87287669545157,7.92385071962236
7.524257273202179,108.44156109268731,68.563589521729,42.203925050409616,6.421262676066604,2.640645720173126
8.012710828955663,43.45031912017578,26.11285541621582,18.756789570458373,15.67935405344352,8.308118477151455
4.975534572025704,10.385458838406954,10.110160376707462,6.191062426408237,5.937075532467006,6.033587521221478
3.4176594552508375,17.247852197954035,4.3719255012388825,4.6233563850934125,9.85266744579178,5.968396911170217
6.1029376872850785,28.61520070066654,8.601414602919828,9.14163231326925,11.792137926133215,3.384961990738544
4.651094284745602,7.628993434631017,6.459663659961511,2.871113340891855,4.4672662222399175,7.505829429593887
29.33763680875522,28.340632005822567,5.951065862267055,8.653592553074102,16.380867199585605,37.627509587179894
9.176258697910235,17.661761977337356,4.89192429091902,6.19001119596081,2.694083398910908,5.022397638647307
2.574529210740983,34.067508255828926,5.563915463755593,6.976366406672753,3.277781874322554,4.464572043860788
1.4965740686224966,21.450556879516455,13.488744899806676,19.012421210387927,3.5803381137373393,2.331243177714574
2.0918876053868583,10.053127712062528,15.544316026717453,12.713769256474588,8.177498071334977,1.153818250989528
1.6951227183417195,3.9130006224318903,8.07046523043195,9.147868792352625,10.873224714763605,2.5412634706138184
7.727292530446998,13.389793134871937,21.364427055524278,20.04221347152406,4.35664142339544,4.716822104225878
4.774938349515745,8.687084621189534,4.01137820960525,5.0045731138988385,1.2669697883187114,0.983669192683684
4.031041456081447,3.4335736386922058,8.22793968351992,7.453206169077984,1.3797452830687467,4.0987024047798455
5.464783824410776,12.213906843250083,4.6989034357834845,2.2166574197691715,6.677602935836093,4.775107371184019
18.27340386260494,8.77285741547982,3.2626060782882074,2.0291409836489076,5.492664491431945,13.002138642814183
15.878725261956536,17.296163167211578,7.931348622828106,10.678703423669278,9.245842739676423,15.268909100887038
8.887628895841685,11.622934596916739,5.305561445439802,0.7387032647653379,8.049117230055248,9.195607568768617
6.821658530566833,4.33677481867136,9.032806355590898,4.953614050226749,1.8217557681248913,2.0766335657514285
2.2310451506029025,17.831988112836623,5.6592413643534885,3.7405569192047534,3.76632004055571,1.711513395283549
1.8394812452874587,7.395610266412236,4.012658616442093,5.43718004562711,0.9613462732673954,1.3798182219276285
7.260857781762396,20.354113691527424,7.463596785191512,1.7238703350234064,5.444664989191015,2.4216323900147976
4.378433568078747,27.75853051365084,24.687073320887492,2.6868545199319627,10.010503437175345,1.0798373993391188
5.62582295217171,9.66446312016907,6.138804652031431,6.759484637744531,9.322002544802048,4.568842534124814
0.9431873348364107,4.982564742188073,6.288215493583405,6.837513636752534,3.677497852782442,2.9720951850629245
9.324141326006957,7.510675948173988,6.415250828264237,3.840619478545208,12.678470450854343,6.919725243108365
4.415369944223474,10.35788763531933,3.4461706709301194,1.6251073087252743,14.640247002285252,6.974949555675725
3.884091243165607,6.931414198466498,4.409409715483864,4.257921373087368,7.717868386312654,3.719270900939463
15.281147620282573,2.082276243248141,5.6993282948799875,3.6895408224633766,35.71977410104578,13.473159378559142
3.687910855425174,1.8256774319924092,4.060161296461068,1.4565521094813378,5.729201742056653,3.963223359123224
2.372196303532985,7.129910988435844,3.0787857544003794,3.7308517647056147,11.419880671141213,4.334475745799355
1.2430800840562293,4.610201009342633,7.861855497954731,6.926422792941715,5.369439695095764,2.4212569967515054
4.458431803181658,8.523375804167696,14.876868876808963,5.538942493615434,2.603433031513405,2.4808630089536057
11.514478805926215,8.579418004736613,11.874636707747177,1.8729930378552944,15.632621997352567,5.737971119814762
6.262192022715911,13.47094630658026,12.074331238972738,3.9148952015854093,9.923750559366228,5.11928060263526
1.1914545302734671,5.319458616106189,5.815742462407855,2.8365980837781564,9.102998456790786,1.3022445454413862
5.0601356785933875,2.883530695249404,1.7115731478983331,1.9922418329569436,4.243209832078417,2.4004185932432054
2.8977570411508546,1.5819972478905406,3.3510409767507663,2.2832874619017027,1.326584514072434,0.9804772920012872
6.939911352127698,4.611680790435187,2.4250845128035876,0.9444960306348887,18.335374303426843,7.45509666040618
12.153038990384168,11.116950321737463,3.6372048966909287,2.846877046171653,24.55585736151574,8.285943451456147
6.052779764288692,1.3161007683646224,3.9224148596134314,0.6653822708785642,13.041606892397887,4.767007270680923
6.521373358405941,6.3186950360301255,5.665069749479635,4.294465184306344,10.880159284828194,3.7537098428995703
6.907755271565024,13.035019209433779,6.6308029674731985,3.486524236062706,8.395191634983123,2.2586450722036826
2.175003855170449,5.370157769725269,5.989430114618628,1.544704005987317,1.1911175238463692,2.8429489588361734
1.2665446763589436,1.3837222039883856,7.93010471969293,1.476403820934354,4.4107649271654985,4.100600474638671
4.8159599059354585,10.701572005482248,12.391159578640483,2.4131680149262,3.8551262157573993,4.719350625670878
1.4204659239229689,2.821746881047391,3.604462541730861,2.0620452727911562,3.9667213536392625,5.237059128556462
3.0751883967081466,9.301840781361909,3.080969464296387,3.513965994154484,6.319620447879363,4.127818347132787
7.661024521980748,2.6775205473831165,1.8945998722764992,1.7273174162909162,6.4633414328633565,4.027278435265895
7.892968295349016,2.296171574003076,1.0514381052365684,1.503463169949797,9.793243589701056,4.0298012377736825
5.1427563199803705,4.347937885651586,3.4401380680830904,0.6805514718736206,10.102402813114603,4.312352075161215
6.752733215595134,3.6005171011095274,1.7633237249473412,0.6025342117492841,13.896649769070498,6.368446027221535
6.178812964347613,3.5015370892614417,1.5099196110204844,2.171029896088566,6.945158804141841,2.8126861499619875
4.655700086116398,3.9275896138182915,2.180979883819001,2.1781855277746778,5.0817137390469505,4.141176907957316
2.290612981701625,3.8363612772504427,6.423326094442211,2.0328419979658654,2.384925502349549,2.3691080139668244
1.322146705822174,6.681017390423362,8.763485262499918,1.326813314175531,3.432315981333688,1.8641378449085413
2.650061502936941,7.205309649423682,6.880539686440519,2.063409865761185,7.441047876767693,4.762292772858617
1.0406715451765007,2.6367232511964853,6.518086294671976,3.1593159759047005,2.110998133557016,0.5674030925829165
2.926895734561946,2.391699324369471,4.366474276414632,1.5721034163367658,2.6494564465451953,2.9890314009811125
3.330924871338532,6.238559097197117,1.4459431733609598,4.129680985557753,3.972766763059614,1.942194646355428
2.0881331088032073,3.5515008738724227,0.6243379670976459,2.0368427525795294,1.958410967019404,0.9021250513997652
4.969231210045612,4.912312963002368,1.4465158784315415,1.1646997621259219,5.895359804588398,5.293928716337305
6.591806932848426,2.5556195953813967,3.117045790680389,1.0820497948957957,5.775100418968258,4.939140157473676
6.1166441020680224,5.310422986951504,1.3794427243006657,0.2072063165893537,7.754550637420378,5.278246183203362
2.1544688760413964,1.414770760232523,2.888612097536288,0.556037229449315,5.17751496858596,2.5194915916265863
5.409701391889921,2.078344128954902,4.65972055225613,2.222509579446281,4.43325635235852,3.8643845248236497
1.2512550591716785,0.2227589645184245,2.1276902967205387,0.7652755437677617,1.1721153457835523,2.2832251262215264
3.0068314339781033,0.5930272545317076,1.896998947366472,3.185606383581891,2.8797966548171914,4.127895774829918
0.3233868265774836,4.99720418106641,3.2766826726838656,2.655878955942187,2.338333475632765,3.491479001226842
1.1065300055520504,2.1714242592395765,2.2258937997424857,1.7388346007776234,3.80105362870215,1.180257782137563
2.0117493222608056,3.345871073307583,3.2793797884413403,1.9443178465547688,1.5758366352643713,0.864502177959625
3.7117809844381826,3.1358734470179317,0.35179004430861893,0.2688804236854674,4.029979611887893,1.7828792260623256
4.043792823191261,4.683124043211198,1.0882439310296648,1.8498160734809017,5.401055061239714,0.09593183524621718
1.6811029598319547,2.2309002916550535,1.1121943024441587,0.9716276561112448,7.4490176747649315,2.764199530071822
4.559736472971246,1.2166691985240965,0.8510155430212061,0.8462223944185947,6.510989780640194,5.023311042927769
1.593935752994413,3.4132891174987483,1.8097295109642366,0.8219921409219489,5.4701571869028776,2.142147041722085
4.114702248591733,3.4868128585974545,1.5215331755815036,1.460012947019265,4.757916822207767,3.839676642044496
2.3090969039358473,2.376727095454659,1.6206546492078713,0.6507191747108538,2.6803440673322267,1.231075586103403
3.0425079428464503,2.552918151455726,2.2272247582766282,1.6748261918553575,5.403674413814387,3.5962517344068585
3.6417770168392334,2.3492374173565604,1.5867027114054049,1.459360726312755,5.065333655294105,4.022531288985993
1.8334805953049529,4.069884310904685,1.3513098096737832,1.207811072303279,1.0792959393433754,1.7118697347664893
2.565020082242349,1.7090703090257822,0.8782294000384868,0.4707653184527077,3.2609975045505983,1.0628319743955923
3.738051077701684,1.8095410790216897,1.0793326046577996,1.8300678870329572,4.2455921471371205,1.0472168341292356
2.2318574904448534,2.019533907279421,2.400034783417663,0.17012997742143093,1.1260357015624087,2.029709928106469
3.7536366634725415,1.4554391828699849,0.6102336313937715,1.1493449440447703,6.423743041877403,3.807175770793611
5.49644106431595,2.5616552652387297,1.0854527382693346,0.7458090311012521,5.067610908131952,4.056416187585755
2.868135936622302,1.5961020137756914,0.2897209453921501,1.0527070065781496,2.2192065232594596,2.9782831477140452
3.721576689610657,1.319377689956335,2.352557970340981,1.7677345938632398,4.574056695390113,2.827775075017212
2.4224452304945148,2.9542603917375776,0.4647030255025268,1.655900402105306,2.9214614431047585,3.012449541619302
0.5820783886901751,3.7392039480555437,1.9931912691670155,0.954166258290314,0.9299817276959037,2.582678752939075
2.3719288637335425,4.111319970532183,1.4931815850113381,1.572249060781417,5.3509756062454255,2.9318879178251174
1.6567007156591709,2.222126473841322,0.33316526138930913,1.3108169120666955,1.0955168472865011,1.390771233082727
1.163713458906009,3.6271577356308584,0.5578655966920241,1.358695211812594,3.3383015387563306,1.0227017131334997
3.3733127675907313,1.7065376222912287,0.8016061948575645,0.9538205952441904,2.462978830479458,0.3093942168055504
2.8424355221571695,1.5630947387196177,0.937073029295274,0.6706345087797125,3.8428195236924347,1.636978202428555
4.055371775059041,2.319353324667896,1.6162875687138876,2.0854864061120812,3.74469552697709,1.7429638089908326
2.630694226368907,2.377532702424404,0.5088053092453958,1.6398284837668193,3.5225499994553062,3.9228903263598927
1.2707886394278514,0.5005802845883419,1.1897683512519652,0.41338777200928883,0.8125260527028448,2.455629924348287
2.0250226186618385,1.7412746826476293,2.2607805383832518,0.2520549707900393,2.148331243873201,3.0964239121071384
1.0611973301781754,2.9088369222773287,0.7262330124692657,1.0664939512119038,1.6465454496654757,2.3633021937690475
0.36162605321389496,1.4603417061137747,0.7475627156931188,0.5093177287074684,0.9935124264720183,0.47395726145486033
0.7832781393018274,1.1059580415670822,2.065234611447282,0.6386467892754081,1.6081828177582418,2.215437336549649
