Gx,Gy,Gz,Ax,Ay,Az
12.179717999999998,4.453778000000001,3.890067,78.918,624.868,25.11
10.849429747710648,2.968734061746697,2.5008854494902484,1.3761627584311238,2.612955238925265,13.132878142806753
12.11506762365909,10.141916343478925,3.767822918660442,4.633110617494981,2.3554826130203734,9.234342483507236
7.143347041125722,12.20400063735522,4.928026335532124,5.174666442525255,2.0926790749474455,8.855281639599974
10.936356697176574,19.647032383889233,5.9425926772348046,3.8793675526236955,3.3904653525252026,6.6504337724766005
12.602865395673977,19.835436343143066,8.2550719694402,4.594419232358191,3.953956698211092,6.125051874227947
15.488504468359533,40.152757445985344,16.191685959758704,15.629686024422277,2.234755736324614,8.934354319799713
9.181792534734338,28.028153241536636,10.394631072434636,6.850818686007418,3.845896280268055,3.34421002016196
16.679193471683128,15.787817690512595,14.413227890477367,3.98098150305261,4.189807712534488,3.597533242398186
7.310645967558317,27.855093467427373,12.010877922583775,1.5329272345831253,5.591059663470405,1.7658871000858312
13.598503401219968,19.77041197705921,12.265365509274273,2.7345208511843206,12.517500256916593,8.857241893509123
64.66424806128617,6.222352412557171,13.819744162685758,12.964926059710784,68.83100533663114,50.317922074426406
31.862947789316333,23.661686917941417,13.264147685938033,9.827958519131641,28.346936170572445,18.56520243959363
12.916173306903382,22.02826157784572,5.390468055304465,6.879276916147753,13.890212234610047,6.619932690804412
14.512468562123507,20.620673167260087,16.035791422689034,7.18713295503635,12.135391866960687,2.0688342705649685
18.767937786112164,21.897933983685597,12.93156706405414,4.045659560579311,16.787333428723347,6.28082739339918
17.48596892773123,37.01413468626754,12.546415246476927,7.702235429915966,15.20777867776559,5.612949070302223
1.1956424994246875,88.70582475512118,36.864990304546126,18.460087780777663,6.176981692490429,2.6733057343024806
11.185017018413074,10.393143761759141,4.831136224500609,5.231821444015956,14.822464824417914,2.647346911609029
10.48529892662567,4.559042407711105,2.2951086647278927,2.4976945435821043,13.119525494850931,3.9775874160376614
11.485882853199337,6.6770381219063815,5.789729236478539,2.245605071733095,7.365705048797193,7.272356434979917
2.662637187949514,15.183408421921914,2.674470494386471,5.027021125502673,8.220014271625017,14.833066428080427
6.21366385590884,23.46449163255184,11.588944399035704,10.171863988380968,12.775597135541448,27.087850488094322
15.497903432285453,14.030012688335589,4.087184410313565,6.92074123450488,10.554633231297622,18.104032149798734
5.306353912689499,17.45217976927063,7.043402119168009,7.659189149241536,2.1050140880230197,2.3798051163491407
3.8472537164058775,15.324252305937959,6.769476356671303,3.53808048486575,3.716414534379075,3.4408137275647315
10.914602284575981,15.494451792225481,13.842204529513667,5.410739305504676,5.340014935052811,3.6658619436272617
1.6174467581086556,18.299592520710085,3.8535817596946416,8.776571539632116,4.607070174203864,6.223210452641566
17.12392463140461,17.81839766116062,30.911586601980677,14.079087614963807,9.816949731147917,6.660218917968077
6.979248512077671,6.543044626879556,8.246781689373144,3.8081287438903724,5.331576537778492,4.790367281047819
15.700972993738688,9.171019053276128,5.1174691460170285,6.985403849306396,8.334579535629858,5.7066671304470455
4.16331118482551,12.673970124376316,4.059918638232741,5.798257564431792,8.260272667157986,3.973754811674223
3.0993076659678467,4.430955669045507,3.383685430501719,3.69157982478542,4.368765379801746,5.203648392348212
4.201538414755413,9.74978958191328,5.0897373827981465,9.768940914230042,8.157045387433202,5.9156382770855895
3.1717300637968684,5.808379770589831,5.657913425303349,8.348731987320546,6.090723367813434,15.5481484747805
5.936565796513995,17.04298406229444,3.006004439884154,11.848960226241156,2.4771598793138394,2.6673991760325526
1.980834365437884,3.378675668132373,3.2590388208921746,3.9500482906141623,7.581905502745166,1.4222311652724282
1.7608533451957953,6.830756638858689,4.269331061963472,5.656429355915283,5.759282155305869,7.605546042250301
8.44604128154615,16.561685652067833,3.3673191699287135,13.50865936155174,5.517347196793933,5.490848426060189
9.809656500838209,27.46308757638685,11.139430499998463,24.238029828889744,6.423212760664777,8.927182305866898
17.52704226523581,10.397682016425836,7.652008706732841,11.13680979510953,15.182813814363795,5.979481429052128
5.3581672341824635,9.848081159704236,4.8394191638227655,7.759842268951847,7.043417957246992,4.201713483510529
5.061582673937723,4.386907979193842,1.7560707031603755,6.308043211514136,4.966510590134462,2.0274451239290627
4.347049135145031,6.089586979660843,5.496818355402045,4.765262519644982,4.710996859596345,5.88144480221808
6.660235371865317,4.521940153999586,7.824766588376905,10.62807190118737,4.57249820510779,1.6943618387510266
4.031993253575755,8.96597453585999,6.783682665902433,5.108569045474742,16.159117133095204,9.592230631070365
1.7138333891789583,6.885265499586764,3.0054300113084094,4.105297968595981,7.243562918416436,4.129826325868565
5.636720167328019,8.4164178480088,1.54583204962027,5.083502795095624,3.339353333692434,1.5847994170024462
5.976397461873505,5.4761212664825125,1.894035786610676,1.3641949791890866,7.131248485567035,3.999224976085161
7.506730505731266,18.148609953946966,7.450103401240624,19.887416386124855,3.411326833425716,9.627859428696842
2.889355419398122,16.648531392872233,6.183956397216833,15.285749130716482,5.673066822750301,9.598379398091142
6.744608020440398,11.972025971733482,9.162995013999,15.083121052574363,7.972835925573217,7.364977538745928
3.8678079490450425,9.993194560182404,4.695376843109774,6.2319899706490975,2.6296345677673956,2.158321001363
0.6614477771619987,7.854575039646944,7.0317823584190675,8.807909784448805,9.122207166534734,2.218301199969788
4.107036943853657,4.364779259140651,4.187457416298745,6.567150222800884,2.9205471142012143,5.790264073907226
5.578752437972558,4.819976084922033,5.558490539995625,3.38873515694033,12.979131071403028,7.48217096288178
15.837084542505592,10.110256063883439,6.747990238767888,6.01858861302425,19.410273125750184,13.583379546334328
3.9862086018754694,2.9120479978765244,6.387061508203833,8.496924807884056,10.09315216899927,5.98379113183968
0.6171354099080982,4.204099396333767,4.055056058054362,5.08113017821812,9.263818230866775,4.482800714508921
4.6070094776390835,5.104166062035246,0.7735325976205611,3.5449921927812764,8.797836629318144,6.399170963972124
5.319526643807468,7.8686199464456,5.039596209971481,11.430291237775652,5.084358433467112,7.79113922179436
1.0222898384935202,5.521584076784729,2.1853897680366763,6.272863396320358,6.6550605848323166,4.525944958192856
4.314526208279036,7.455128291089376,2.7439763197334104,5.795859729650061,5.129816290630291,5.79107927443029
7.261378916058308,3.8755828811469457,2.387098290075064,8.555007425006348,4.661768093700065,3.617386424714078
4.114370803636264,8.07804047261321,4.245286226510634,3.102258207644387,8.805523184509061,2.444294860411681
5.45686142640758,4.48387864472527,1.0985134795668063,5.206028494292681,6.0017889348366475,3.339368215255792
10.439128376349618,3.211564911389569,2.407725277836754,2.267104439155497,11.362253680375648,10.528535932398698
13.023186587259577,3.2675091049237888,2.1097877827678166,1.3594668222621293,5.197187036496045,8.287489984793428
9.081211706571102,2.20235250982835,4.004288083706451,4.780703300961238,4.368575132205731,6.548276076784157
8.576426301796948,2.0020677211659326,3.117567735699524,1.0427725879303906,7.295109973908585,6.682948892249332
0.9895857423533285,4.676464731642396,4.156551682524939,2.9924388506876767,7.24281353723732,3.3439371424783
6.994168460349281,7.271729892807415,4.295973102640072,6.80220903272862,6.2501564831131535,9.937768386394554
1.4474532692539073,1.1770283042390493,2.815126199967242,2.947861354574951,3.4923115072665842,5.064952099047619
6.348540685392547,3.6372777970979264,4.485164753050793,2.695593002096187,1.152192319639107,6.152409615155894
5.021138414186523,3.671660124277686,2.3357340979207386,2.105005972654773,4.140140157495282,3.997865574230057
0.9786229242086829,1.853559636176577,1.1500607204914215,2.7038823561723597,7.657281076302301,3.8009745612856007
4.119021245926334,3.1606991760686696,1.84084568488261,5.402949857970028,4.290064956813099,3.316043331966654
5.529042680251294,6.560555117271337,0.7844344051098152,1.5608736374368568,10.515242291214836,7.26888664383529
3.335448136138593,3.4614402566756324,0.4737498165729537,2.526870098482129,2.186273218922128,3.6657561964042933
4.534281412529359,4.061756973635894,2.6654724388805846,2.6152630414112474,3.5613584832693124,3.0225416042393745
4.431260386859049,1.5468675340761167,0.48889073655612136,2.0907805868870453,5.354552980997087,3.184271233358546
5.1589825752649885,5.108258685803918,2.31459938539058,1.4843907178372782,7.340361781614803,3.392181743891521
5.458238974919578,5.022750865743416,3.1723883481167428,2.0125688793841263,3.193781597074489,6.024917353977553
4.615101701845227,3.5957677930990135,4.017882382297603,4.936188637966572,1.8170428035265263,6.188957487212497
4.703438842728241,3.2862754193502233,3.409486434400259,2.8003910027607355,3.561789910224712,6.248717271137946
3.2972711528452003,5.370654520385314,2.4865740291046583,1.2560408113961328,9.506094422552207,3.022107335290665
1.579920896530252,3.555017372962922,2.673628024700648,2.2402931003339837,4.889649968025869,4.459600655536159
1.855493894768456,1.1468486363502464,2.838822301556979,2.2911535089517088,2.268808478218167,1.710705883846941
5.7494364134366105,4.457096574203969,1.8360740478195052,2.3013727265046575,6.417530525547671,5.523841777476961
0.9320215597335171,1.0896718540701866,2.5736652247973932,3.3075162890907523,4.584580840240905,4.220327165382522
5.815937675317519,2.0527019271361437,4.593103006173948,1.362607727177629,4.6340217757121795,3.5650858011559072
2.135327254520122,3.357612385577058,1.0822664639549215,1.4780978286661486,9.362261653825227,2.816172939074913
3.87500744935526,4.968620439795463,2.1913320428683614,1.032299096448771,5.6989319137972485,3.7242893770425836
3.911959340032323,0.9649078558280197,1.4879617007493426,0.5492719997350665,3.0175125041578754,4.776757311038788
5.140898619449981,3.8243268030840363,3.827269328587274,3.8942762410635603,3.878642798012624,4.633983329084833
4.137330578338392,1.4417523709428934,2.770777938383406,1.8018677240609873,1.4041401398285844,4.254578248205644
5.8027592277458595,5.214179449634021,2.0432139784490455,0.511052471294863,7.574764481092102,4.979775079188807
0.8993287552922591,4.1517462194654495,3.178473238116558,1.708079445268023,4.564271293445978,0.8326512445961991
4.137882366173917,1.5596550899667585,1.2623480737424697,2.613177392890852,0.733477872715589,1.0595286762313367
