Gx,Gy,Gz,Ax,Ay,Az
3.1266679999999996,1.8953289999999998,2.758455,21.556,505.984,94.752
3.5961206426858734,4.456073423442827,3.3840261373896756,1.200471260782478,0.6033427380978129,2.7970296273193904
3.6407657529010944,12.126632197494796,3.564379784297915,2.983570471887058,0.8556121311219979,0.660386369380308
3.616535152490063,33.49888578419855,5.0845133269069525,2.3730983186071266,0.6688279201341141,1.8277796785529554
9.025486897833229,52.418172444229945,10.532905816041453,9.659568109180574,1.5247228468910698,2.634936717560728
4.35622388591325,38.221489623597336,8.137228937260641,9.558591469648695,1.7010252745376118,3.3133163752316523
8.599469832062477,13.046197193246762,5.384716686297164,2.9478429701533235,2.0610565176423172,2.2542480148296846
6.9172132326511075,10.36440873699391,4.074660339042357,3.8746626452205795,2.485935368569995,0.5903527712651715
2.5153987118901378,6.549338314631227,2.6052540127248047,3.092106514249405,1.9797744746676296,0.4048960826790567
26.542067281800033,26.36063136608735,9.622971865487369,2.4759109651115963,50.72378877109228,33.37911857888646
9.453392602818568,1.1123717996570006,12.443078133675224,2.0008003719496563,3.016987440736075,3.6419388873730174
4.603620040386207,5.487685559033506,6.460141313661005,0.2409160716404735,1.806770651972098,3.541433792205805
2.1002252202666143,17.160119162364477,10.949246213469419,5.832390012134484,2.951221823157857,2.8223205942271474
4.246697550838842,18.484824818815138,33.833291768781294,10.592146806202447,4.258123139961769,1.27161852872436
1.9541340411785872,38.7615750542145,28.892486206502333,11.523776773131736,4.366247402156948,2.918172192121139
6.38487399968722,17.903477952252555,10.497001751704225,5.8659085866901455,1.029572229736011,5.0486819098710685
2.451770649748695,15.540314992669467,8.363315686968228,3.836157878653495,2.3180857139946833,1.6627421972642618
6.477713012478531,3.733573966212882,3.5131969744955036,2.0395864177017824,0.6037044485075898,2.3407187554310114
10.159159361207427,21.05790386431376,7.826195788363961,5.962746593673757,15.265187717451887,23.477978218516697
2.282505980833235,12.029065550563992,10.649695599478544,5.567155065422341,3.7559498339545008,3.151784833339463
4.478724756760444,5.184037805898951,5.939630822496587,3.272553429119089,2.128095089112571,0.8467510587896679
2.7441920666229986,10.384535210599264,8.14259669595036,5.067200046306978,2.0148720565195655,2.9624257635734823
17.29636934814075,20.900246686367964,10.831265124899096,9.663171973074263,3.7092400005300026,2.1327296696191937
11.111099957815487,22.82980739684391,5.113386347856581,10.184192622224048,2.547238038280796,4.321577444173743
11.598952189446344,22.578118886202024,2.5430024286558583,8.484140630043749,1.95620301913759,2.399265246371042
3.7200738809898057,9.012488646288535,1.1606029084687837,4.341035412607315,0.9514115812405536,3.2715354434065587
4.425390291840865,3.7082333535677816,3.0023557049974783,3.108470860319544,0.7901442378084882,2.9909466075894056
6.452556844431734,10.158706219235675,2.635857868413926,2.203197992293433,23.142875523932812,13.597072845282407
3.6986835380941665,9.963526306725312,2.009203840512063,2.9341984857039627,1.0908971423433613,0.8410366883162236
2.3655795423397676,14.50200990995668,4.876309442291336,3.436487464695253,3.474764673006858,2.7716959927440357
1.8659644675409781,10.55509642430198,6.021754038534954,3.9210055596210482,3.6929830687955354,1.3588783100054296
11.660278143318452,16.238524995118762,4.4493855212272555,3.360553172143512,6.307151845052967,1.3471946351562802
8.868859048894038,22.395905230743516,4.678168098559346,7.083597768511278,2.2176764924368513,4.034484679733113
5.154022774527727,14.891009924709234,4.523716174082825,3.8609045618364624,6.290376436028521,3.380684251149655
0.7515632145279307,8.045714562911094,0.09640793135072245,2.1324253066174443,4.345561110816818,1.9979067240890818
4.435092226495008,5.233215947912236,1.6152494059394207,6.4360535745051655,4.783679249790497,0.2496396599477079
9.623849996061182,12.248075847566973,6.590237484187451,10.015897496733999,21.35051949690885,5.549221168602339
7.6029393810322325,1.9074584689478997,4.639116348323034,8.13101203907362,5.985439525956957,2.452728937279975
1.5217888151853252,2.0039579035264574,3.3588907382240025,5.8444948295515005,3.1867939294414755,0.8090114920780194
3.33428673538892,1.965602168467751,4.7575658604079765,5.4103653466237756,4.916646885532607,1.6464905967710957
8.0046571237238,3.310413781626785,0.9450930017099011,17.190507086539714,7.628303136699585,1.2833699960491312
10.376060688721658,3.0885738102960487,7.750166703349977,13.965983037716638,2.7142718007403115,2.564169995868357
9.526803417279284,3.953334685724127,6.944511963856889,7.703917367600106,6.454757587125864,2.645038545146776
3.4212867374618403,2.0730867101988286,3.5170625380655314,5.766130818159796,7.063276954781163,2.061940955634287
1.6677538412591562,3.5906377687555384,2.2762702470500797,2.297871227083683,1.3896234976679025,0.8771812834402156
10.659846254470573,10.842336647477476,8.995131196853688,5.19512514520817,28.367307343330705,5.966029890482607
7.663595529569044,4.124313419177986,5.036008456528705,6.5873061617352135,3.753866304710825,1.5384610963536625
4.634362107384627,3.1023453444893074,2.556504535811569,3.4906483923255047,3.0634334155447682,2.6759841417450008
4.052660445270491,1.0500415461508579,3.5949597726511686,5.094106286004738,6.682711073348767,1.7875338009962103
9.784506411675862,5.230567415433307,2.893837304384652,10.079298544586909,6.862016134095417,0.8524215637057668
7.046412032330648,6.998940689899556,4.954169123357511,5.2129330153507265,5.456997502916758,2.653874220241637
7.305663621647066,4.025571886405023,3.8829799053788356,1.0149323306972513,4.897034921352453,1.7860436963795785
4.525816879336408,3.970187353241643,3.101081488389542,4.080371442479295,5.825728812446019,0.5293179786674617
1.2969331533008794,1.6478488762793966,0.23117659621851358,2.7790200920138703,1.2333276358399792,1.2914610275026477
7.983057568400295,2.7862536450751905,3.194739994884227,4.216874271688949,11.09252434820915,0.6760097334395297
0.09729353330533183,2.986434247310546,2.2544390216487797,3.174687551784596,2.288349289100074,2.211440370420104
4.746222539155076,2.095320680443832,1.9527538745653703,1.3632364693161108,1.9140282940972821,0.959177610106625
2.8753787505049204,1.8088070580094182,0.4654867526716611,2.129212574297634,3.3524343323077224,2.8537618177309203
4.192526185690048,3.426168794448977,0.4151553469261611,3.2882007408635805,3.184468619759676,1.650921388729152
2.678295887449307,3.4582050897281804,2.4721050149687125,3.438626851470224,5.043069631728736,1.8682056557522808
3.6073366242391134,2.064333364173788,0.11918687984521038,0.9324879631212599,1.3359409573227163,1.0118005917633064
4.99254679479242,1.196647106512806,0.7681065517349124,1.8689071414165517,2.5029389414143863,1.7642687710348128
2.142492094042855,1.0534485735379484,0.7614288414926198,0.8105373981313274,0.6397564617728451,1.5691640155120965
5.914506382918242,2.7955792715770196,1.0776789851108004,1.646740498369178,5.236256699347005,0.7763742241618653
5.041309638271223,4.999842275114649,2.2670435073687973,1.804664284991756,2.9007930548177274,1.2582715304869467
3.3365894288473648,1.5901370374179131,1.4772705929050374,0.7583500888809002,2.1218048319628844,0.8927846922166006
1.761806046335367,4.104730578211852,1.334621490741689,1.5946844072817665,1.8880439114567475,1.4859105804217059
2.2471959995545085,2.8797071852484546,3.0728774765163536,0.26945875128260527,0.6773239185991943,0.8672655814481895
4.101876696115896,1.3400899123462886,4.61254540298438,0.5795761521857574,4.087354891260814,2.525862029089219
1.8245473536566235,2.9897575147582605,2.7516855391906465,1.3434791971876825,1.131897648202481,2.2496764649563694
3.7400678132954006,3.2041567813432197,1.7493807384001259,2.6196731275790546,2.001770487774104,0.39530915279588863
1.0775191640056971,2.917999888284011,1.574872388096219,0.568841364919897,1.23216257233997,0.47578296207541687
5.659469844352704,6.509458892442913,0.934751672359785,0.5730349363265669,5.289890296644399,2.242097253176339
3.8735287853470908,4.409521722301676,2.370528677478537,0.5350189923121543,1.0305700305593326,1.6133906329035494
1.7977344951387506,1.568449666551596,1.7571134981131,1.1346968503078942,2.776968094071832,1.256467457449214
0.9371515338653242,1.5820939913022625,0.3621233770741168,1.1255662953488197,2.0418432309042904,0.22216691086427906
3.3936371874983076,2.202266817182399,1.6424330936976494,0.8992468891823762,0.7395580713342221,2.3976853742255515
4.37679562577612,1.4341231417883744,2.634318170447834,1.5461172622329211,3.402411016833535,0.39363530715549605
3.35937986009956,1.530296399064762,1.241517860464842,1.3282070991912738,1.9459110944188123,0.861244715189422
1.5959183385852627,3.074645341206607,0.4868320153516399,1.673824899705441,0.8998724719223181,1.3402189420207034
1.8742235932130786,0.9215379665660424,0.6701348742549827,0.9443954634075239,1.1735156660515742,1.8853671678901691
4.4645247736080105,3.7150111575762796,1.3287968501965324,0.17250259390229272,3.4013358272236958,3.1364009444929257
4.4147481861839415,3.5400107340471867,1.2268971792414773,2.12320526622078,0.4780662155013337,1.5752142428834441
1.2582647723301834,2.4268944134881574,1.3025742439714942,1.128731716678127,2.2355768430906413,0.4619868573972592
0.8143725801959445,1.1558531629445854,0.3877338807262017,0.8752668164622722,1.7436249596745268,0.8432105312435323
2.7167150024041242,2.727438153804761,0.5668137203001264,1.7061232848064785,0.8254255751788846,0.7841706760655811
4.646765368279397,1.2326758156429134,1.6115111695221558,3.1376394093105784,1.5419489302908036,2.081394675765321
5.083055209794063,5.086616895618933,1.8425397983725074,1.6817828604021916,2.0195797671577265,0.6610976652118926
2.2484270911305866,2.3979913557191477,0.3441814076353048,1.6190567387030195,0.8478050098087491,0.595954477123274
1.4368604313122422,0.5172913175535345,0.5482513005561055,0.6672813623367196,0.2788505431602823,0.5969113684023599
4.896971723762895,3.625693242550429,0.15381032497699015,0.3393917213418161,1.0944062538254347,2.596416155588161
4.385885949432398,1.849881240940169,0.9481741005004494,1.1976641187192125,0.651735820791114,0.7427752279679363
1.0102770745017764,1.53353439163688,0.20149787083625192,0.2887908231030881,0.9643540230760064,0.7471843967600751
1.5697691197866386,1.192722693172677,0.6294022852868058,1.2225744524055688,1.7966390656411437,1.0312689974676765
1.8150655323975422,2.179554131095161,0.4594491074947597,1.3916506925476098,0.5588779957072645,1.4328986352100275
7.778811113039453,3.4357824893952458,0.7234810535736748,2.8041640997133284,1.770258249268746,2.4052519382048314
2.795800725407538,1.3207807232870918,1.0974303487048824,0.552814208432577,0.8368324365056193,0.38489874225517823
2.074236564250391,3.0642502025041085,1.1511979070099514,1.1317442164538745,1.13163580807721,1.3063321870931928
1.1124478540848568,0.5459973030869625,0.5514510630049175,0.6588382123236391,0.7902707145537964,0.609955424041246
