Gx,Gy,Gz,Ax,Ay,Az
0.51088,2.387186,2.113385,40.608,642.338,38.052
5.1651215796991705,2.798400282338115,3.9861561866351027,3.0965603142733427,1.0152358664288774,4.856569595173072
3.0447986078046547,5.896370667152974,10.295279852818929,2.5231035999270413,1.251428682971862,1.9581790204109493
1.3229583701536327,9.19001548972337,10.88697554893527,2.8248748090905456,0.5271704631015024,1.2995893808144483
6.841676234616522,17.50327697841359,6.116527509184883,3.49065825790146,1.2054759853503796,1.3361824476314623
4.535423873677702,34.02514467620296,20.89122948224255,5.965060145410848,1.5853609659361831,1.0120490353409035
18.952685902402365,83.18844322010504,44.12810418812518,12.89407179773017,2.5439988660005626,8.72928959602318
11.494734557917845,23.851287537832427,8.271182543397366,2.3856798169916806,3.9123089606855763,4.8435130494460585
5.643867608563077,27.10339958631254,11.727307808134679,4.345597273805234,4.005659013866899,3.1835714754174522
7.825790855762372,34.20024742594623,5.944749115436354,4.865903827365982,8.120796758733063,7.148656730137232
9.32571317666514,18.747697575948507,3.2371545475068495,0.9491225687086468,11.06073468599522,10.87938429674652
42.515990187242735,27.026075413039642,9.182964485924058,1.6594281222525802,48.00873238919767,34.952730579366694
14.084783892074404,8.574044628301472,15.269330465129192,2.64193993857233,26.085729807958575,16.83855437640336
3.552374650864727,12.144445062868765,7.661889788980342,4.065237934737638,7.075707311346027,4.926096080876909
6.653282081338508,11.248994912756945,5.174220878350088,4.059589216877841,5.726070852825042,3.5123137237191155
5.829632173698143,12.253617893837077,6.240869285252643,1.9558578685320944,4.364035826750373,5.0668386516269095
4.39859039200196,2.4007390718678483,7.579907623247342,2.0810390432173875,2.461052039447275,2.9655945519167886
15.39911723072073,45.48243468398571,82.72078736371688,9.74599249123489,6.474269518174236,2.0297766174396044
5.328922933080933,13.8404690559551,20.115714871730514,4.775131116942719,4.041660166431353,3.806252930281973
1.4909416076489228,14.473448998935577,13.521287357161045,3.6356250925132687,2.6506364810420915,2.9904110929047487
3.8953052714464316,10.011414179929416,1.3592272955702704,3.1042645875527892,5.293255011855455,8.049081661915995
6.444174059781426,5.113885874933927,3.6225998897703295,3.636728017241195,2.0246516182026784,6.078805473267652
7.145348096114255,8.978518630246999,0.5050793516497054,3.8106939502530803,6.054316726518638,7.942560732335464
11.373530792446818,8.924378823270125,5.418556058569413,3.676233256938692,9.892818282281945,16.84070155931075
6.979055276488574,12.435648925938144,0.5474369695485856,0.23739565323109638,1.7598995253679002,3.466654812027601
2.7381229838960572,7.975102884403344,6.030502252509564,1.5194661752564749,2.999421670839704,3.6243328393104206
4.314474996832902,5.8783664759948735,2.6509667126638954,1.3604092998111958,2.3281594533660646,1.4387608331735418
2.438521442973798,4.7584016400570865,8.930202041954088,4.800328222973344,5.486801971675555,0.7303490221795381
1.925797930218446,32.49174244959941,17.100389136721205,13.7852934032236,7.472295309970157,2.3533196659373274
5.995388555770493,33.193562950661914,13.990069169847086,13.577169356759523,1.5032403502544711,2.9274860138216736
1.7450366933915387,12.534732409645885,2.0353800376389675,3.601531623353489,6.398364422464511,3.326407807409396
5.940127206529134,6.1905158712998425,7.38462330210195,6.183765729936192,6.209265342383711,4.717953785715909
4.853290067830133,3.0141561195608286,6.653744693027001,6.360422444124502,5.04802911757869,4.892438928030076
2.372524793400841,1.8196311010604973,3.3335173102916946,0.7831224645992593,5.405960122642675,3.0717152944882016
8.267464083603,3.262696912722131,0.6527460040272929,5.558986797025882,18.64876015800477,14.070683361365704
9.330983916200362,4.365673754021348,3.777547685505356,1.7393530577484704,10.192582920035953,4.148993903881866
7.146463739257341,5.1769738048399825,2.8769074349288757,1.4658973376494067,5.04494421176865,2.95985090625193
8.065100030300133,8.159518702502133,6.135492488300076,5.743414415264613,5.015834921496305,2.2640637710801763
2.690732484300694,6.386227870410257,6.848981522731232,6.773338034224648,2.6878767462219604,1.189674631525252
5.329585368801694,9.824930241747849,11.028141579269013,10.523174679734652,6.991630553384142,2.987634699584779
2.666339719558047,16.53513131469058,14.33863104251222,11.269259878487965,2.971042683528301,1.4496749142934993
4.647661932480213,5.393398019503381,2.706030401068053,5.469148927667987,3.543406499892833,0.7951554506485665
5.289998926632327,8.563898197108484,8.580775871838178,5.486473516738001,5.044267907957827,2.68686501912627
2.4655489526506944,8.270804703924712,5.287122456579751,6.411556249721992,13.87646882726147,8.184543024219655
2.531875032069818,2.472202192034365,2.6294353862550093,4.774735424606789,7.15713070653007,4.550545887875494
5.286985624836324,8.139505483491714,7.711579992958462,3.7907492952672346,13.206704264322878,6.812574392734999
8.494623434335349,0.2654781639490996,3.3017707751787784,0.6330717674229162,10.582545762725003,8.084338439130487
3.284401499411253,4.880276280236378,5.509782480158703,5.8064548971776215,1.5436977618061962,0.9478801927557738
4.738798672555802,7.595900437068478,7.514124118776376,4.7782439454263885,1.3573723648515394,0.7251566898924294
4.773800237231351,6.440804641371097,5.666011648709935,8.57825461487825,4.860136406013316,4.19092761745619
1.550804433804141,4.243490001407152,7.615902231683929,6.524111626188388,2.8352365783576614,2.9749204773081965
3.3682065237467156,5.032473547744634,12.55880975959813,5.43797656058014,5.649674446265982,5.3023199014398505
7.370180229890931,4.947592903960369,14.14871483098343,5.534295825083867,7.175388483438936,2.681170071644343
7.543244322307221,3.299486477152904,8.45335107977074,1.079051373559504,10.318681746914288,4.802361598423321
3.246299277662824,4.464823825036824,2.451498180236815,3.471922802992389,12.504491088580917,4.696044425015433
1.2110366389340579,1.303460186180097,1.9201035351035243,1.6371136009268719,4.597180619225382,0.3655742178891779
2.1549594516088804,3.824267610288491,4.765135598237251,3.5308829215378723,3.751299049353366,2.1305955339445823
1.3139968252647611,1.8738997842482772,1.8689829739777104,1.4483512961979645,11.922743837437396,5.815776021380221
1.6950331495311566,2.6004295877428567,2.0727211603667057,3.180122950115973,5.696947477898266,3.033110798407517
2.826312993731292,3.659519226612495,3.1681411071463677,0.4264602941021788,5.428106517155925,2.3389219109783137
2.8948735968604793,1.5874790284321818,3.0176822074227503,4.68083387865165,4.688991795586294,2.4159757037208958
2.289749458004332,2.1287588676608813,3.4732651544660196,1.9397314325073094,1.4638480704819916,1.8072911580580695
1.2931165895503032,1.6804580003854366,4.580892946448265,4.668118921527193,5.526805651041863,1.0770581860416937
3.8821983786551164,1.3644317715263987,10.199273984644039,1.5364743280467434,9.602698755872625,2.913791319234994
4.648281786733699,2.1714126461715364,2.272545625321418,3.1551678910558065,4.756424969350111,3.101074481789758
3.095653243862942,2.691005574883238,4.5126113082893555,0.6938461470264955,1.8202473808728161,0.711924810502757
3.3212867962242187,2.857010821752774,1.9274635882779605,1.2131321485737059,3.017439767157146,1.3488738158465106
2.0838305799206376,0.8514654007678388,3.5116536011630752,3.7423661982740692,2.0493465832923423,0.23899522801290451
3.6459325297521166,1.8305223648640983,3.036297467430434,2.2632348753959204,1.4063761425029386,5.131676152397386
3.9185325684822865,3.8042083083006237,1.6982845005779346,4.827796673685973,1.2651977358051605,1.3375292772529006
0.7413761452053514,5.502925289617979,0.5877965526387987,1.6444481911799833,0.9885839909277832,0.43915942026026533
1.9137338770730887,2.1864263401876785,0.8783304915828549,2.3010808025268683,2.500885398308095,1.9022065064126945
1.252301977336487,1.488115393425717,0.7591247517969885,0.8228788760773615,2.806714707778395,0.901638073915666
1.896753271216268,1.3020179551869762,2.8185993648213707,1.0309072621068878,3.33475390912199,0.6865169232192257
3.670791778265804,3.77918641050012,2.1352427111295498,5.484396789243176,2.7522138339163202,2.0977615563259056
2.598830871557424,1.144974205528221,1.5129897528226386,1.1530088418904367,2.479145721935483,1.4309024294379928
1.9626940359447378,2.7734823257513277,3.3204683085954723,0.24165565300287312,1.6398366848672175,0.13867608598549208
1.195728324821538,1.0905330202576717,1.685506240153408,0.7387890766273797,4.410682037855719,2.2933264548994057
1.7150639068705005,2.75906467981346,2.083276335060252,0.4628083250592373,1.5001946866779108,0.523340759888244
2.189671769825741,1.8848632374990095,2.614512166610947,3.062296084542531,3.6683019491672524,2.58406598775148
4.474343936949141,2.3596592308755775,2.1810811314054632,3.915809291060828,3.9204884188367823,4.405746873875987
2.013452517449774,1.7582495306014265,2.2483540813027063,0.3584181274534153,0.5965513377188182,1.7585023864008968
2.5843434804974934,0.8440959677023031,0.8831904629114473,1.362384551520619,1.6542320297029478,2.062109021323269
4.715646956767687,1.956275404633742,2.550631787874302,0.7025275466780982,3.0247543985170653,1.4057435355123102
2.3342678498289557,1.7517269422484598,1.819892743896593,1.2124467070122174,0.8286977682196351,1.321511708857303
0.10842115661682425,1.7839262945568737,2.295548306283974,2.4441957185143353,2.843835318378452,0.4261216176262082
6.029642735224292,0.10392792383865723,2.915017322797571,1.5069447189133753,2.4674124128142965,2.77065924097497
3.1259428997682357,1.3129409941093495,1.1599574322752686,0.34415869586243814,1.5150124937756024,0.5038216676185312
0.9666369811146005,3.672013074302704,2.540887099277387,1.4598573785061981,2.261566970021083,2.5013304197032253
3.049861850734809,2.0437606959177845,2.1833863976039676,1.2049255053861108,0.5287600799783178,1.1992996098747546
1.2255578027756788,2.0590934392489255,0.16314995796227877,2.015496315848859,0.38212328167803866,1.2211466902263584
5.818087561277632,1.255711899758117,1.376693744493401,3.09825197885029,1.9640583650378451,3.692127163111989
1.705549280848238,0.8805814649844986,0.9260975014503209,0.36831946539235255,0.9015739665281852,2.3761865999156506
2.1851642377122307,0.9226793414488607,0.3680130003371147,0.5037807266919044,0.7709146101297084,1.1923200691458071
1.7508462184856344,1.8750401889319266,2.116800001064199,0.4840908886479849,0.21733046028564865,1.3613426595822655
3.9813133861356187,1.9898893924974046,1.8298993313967722,1.31314761152899,1.0088207843502843,1.3488872495545745
1.0805261133994493,2.4454681052224423,1.9570481863375895,0.3683427122582988,0.31309734738329953,0.11016808707476029
5.098450655412411,0.29238527096946987,1.986524716221194,1.0630105829996708,2.0958646700045764,0.5492420337075419
1.2771353874796614,1.7883932924047343,1.2262113117096387,1.0285450173516462,0.49063564841122076,0.9892012079983938
