Gx,Gy,Gz,Ax,Ay,Az
8.836134000000001,15.777806,1.6125770000000001,22.333999999999996,501.16600000000005,104.234
6.694782284648505,16.724329867606894,6.433263153955764,2.648166945194222,0.08250234279955533,3.248241399535515
4.634950721709574,36.146114581721115,8.206900090146878,3.001090621279428,1.2570242275614745,2.342978632159894
3.4284939611219087,37.794764007795685,15.909581116655254,3.4409395832977974,0.7050385576550144,0.05773983201216919
3.9712697505094012,122.87877680230352,61.77450180644756,7.171336467434331,0.493272935917295,1.739928101043795
5.51321474346807,108.53068453676885,65.7084187657267,4.980591763867931,0.7159734807988505,1.3869273114056644
5.569905281495951,36.793720939889575,20.843809424197975,2.206565948883769,1.001215732487086,0.3075162890575992
12.27354894410044,15.511306426723435,4.615078622197439,0.318996390459991,1.3454632885254505,0.6520223956228357
2.6718497641287042,16.088585894565956,20.45345222435701,3.772754170780506,3.2787022345137826,6.180034436078688
24.740581511054316,2.2248546929123783,10.798446897810695,4.765665045725615,65.14397387214805,65.30396440322498
3.3832582547080507,5.629761822847139,5.075774231790026,1.8839435348248854,8.792518116154266,8.219763701493983
2.156552110681526,8.40784228517798,9.867538639787613,2.76146261378199,4.2587924308310985,3.4134519328879036
5.635597610199711,25.921432420441665,21.42718460486647,7.085198898707028,3.8592877774820016,1.7390373173560465
3.1223039487604214,84.64780320657616,37.95248165080922,25.53600863327373,3.5993248526674333,4.281914671941452
3.1583540347340033,141.60981806014152,75.19776375408347,36.69036773500301,3.4989801166338763,1.8923062985256338
4.135245174354252,40.126962999825714,26.889907632434216,7.9368848745736225,8.87565344374096,2.227326577855868
2.228373064331965,18.48868817824186,14.412786895663151,5.43394156555949,3.2221599692228624,2.1699314309813356
4.677949637755737,32.64716362501731,14.180105475479161,8.98937007122662,5.704108496305027,8.070055419061148
10.011153862451456,14.939343210423651,9.790858211676325,5.8712421625797955,36.47370966946127,35.26296158176931
13.255637538393051,15.613869202976003,8.147169501062676,5.97205938819801,4.987631419691576,6.039442780145258
12.496306085000864,17.828152947007695,4.3704390740937935,4.379853056594408,6.593405073686566,1.6084062530647076
5.279854056211085,32.27615483117852,9.994645481553128,10.281643468169234,2.7148365596321296,0.8652238627162641
7.255380244523951,52.92642273146613,9.904281031778448,19.15213977256515,3.430446403533529,1.3623466105286777
2.4088811475951792,55.5847209792209,17.928352681782354,27.50344214824666,4.799594867569693,5.00202559748417
0.785380943039609,17.186154672797194,7.724799019092844,8.567000936643135,2.2912083567890265,2.479758114172091
2.3084217176984065,10.482239627549111,2.7477733501767885,9.606293655465267,2.009681049253315,2.433134764181436
8.516268460477656,12.105214597213635,1.0007466026596619,10.606693979997774,10.497796438001638,5.891782044390141
45.85096235865586,13.957038892765112,3.5755315234932583,11.819325200131805,42.043184998512494,17.77200293256979
9.996310374321702,5.477233429820169,4.178654769928164,0.6487763365040616,8.743922635794771,4.6517893038968126
15.87556850462673,12.88112007710205,0.3480292085416207,0.38279923584217984,6.69943144072295,3.0431825018818497
7.231749577125883,7.513983929896083,5.700107044562567,7.7840924902430295,2.429989805308174,1.732634075552509
9.394176952196283,1.2777844277225188,6.2355587736559865,1.9867671775340718,4.129001520869721,1.5688664918742279
8.00084287106705,10.167860614890259,3.366768694834833,17.93982571018972,0.19000172235098384,1.3836331292803024
6.45948681044959,12.869292975196197,4.348003452304761,2.6532213305292225,3.3068186419767227,0.8850242397098161
5.166011994832791,10.674119373635463,4.948998324920882,15.13724503430164,5.447329176703246,1.9754525295369358
2.740096241771091,8.481085105613305,4.908946372565862,6.238854687322807,7.90661266637729,6.09296655310824
11.609974431656847,25.035370341897313,6.023491797679163,14.348495831899498,13.365192573931811,10.964852676552303
3.2556367427523534,11.251527910348576,3.0096046922293866,2.9509343846745315,4.202257191901651,4.81900387919993
7.467561144253834,5.813546212594492,6.564788839158034,5.161819702823953,4.192137279974229,4.05232834372135
4.635219798613831,9.07844633232811,5.445255101986033,5.493351031136052,3.1336077134034475,2.2947477697530974
5.718470332787636,22.89948925000753,1.47219527788687,5.583825191981579,4.102831210719608,0.9176168410923478
8.688626641531883,24.109561694523283,12.06256123060375,8.213513616305205,1.4436623682061511,4.204710869997404
6.260671123144315,12.440890727952128,2.682713808334115,1.4300078335071453,2.042221836780168,0.8052468228246709
6.012481676264457,3.00000799402033,3.0077259443475173,5.930137049538664,4.191171654996839,2.7931434139542297
7.135383219703211,1.4467519066567085,4.471028635903307,4.28174828216341,9.462347875925754,5.851413269382542
11.002399223931654,9.061870518379783,3.751424108379608,0.266239155187264,15.982183094695586,7.535696616758062
7.931550002223729,3.5402962579537642,2.6031088538936697,2.4716726748781888,4.14986175962667,5.911120351433151
5.819332240624436,2.1107595351199775,4.034201911731853,3.010622557885839,5.708756060789096,4.4224162402733125
6.598760977167071,5.532870461736329,3.9143655083696554,3.511359674514958,3.483384457408709,1.8579869242156342
3.6115734122928562,6.329075429891459,2.311389071996909,2.8543396222251776,4.293100506601197,1.8389543277048357
6.9941876398258715,8.643682706927462,15.916049228652849,3.346797538897829,0.20188923027694786,4.2475740479249335
3.4661339413324748,7.742212666470024,3.1912598285630303,2.7542655638658236,4.305572634703254,2.7203994555838205
2.3495574947714672,5.184109574655692,3.7692855543716504,3.6233486795606633,3.271704301324431,2.7160825647910802
6.396476357651054,1.9126882475444145,2.8385478161154194,2.751402439781834,5.69293568525417,5.323747580084644
5.6399488539944915,6.355546818692911,8.261116164921454,4.668308763200116,10.338851654190647,1.1074127612504536
7.289466116004444,1.593719590907854,0.9722814226506002,1.4795364338447667,4.359843025946988,4.702850264067954
1.3448115192908177,5.081696763861452,5.036457605740557,2.3798358284519474,3.8981008339967604,1.614765135677718
1.5268673415466665,0.7146846623199586,1.6768518882477974,0.5709821711517857,2.3311794628170737,1.6913362101155516
2.526375456523727,9.130742938117642,2.313876228709955,4.9351137535140515,1.1081641270771128,1.5334576689191306
3.849100924219314,12.25488635851362,2.4513735083384613,5.269736795558435,1.2401552636107935,0.5392601655307874
3.965150870020489,4.275120856219978,4.937530439342555,2.392776550713633,4.939845207064175,1.0546012327377066
0.5223876933027202,3.140289124769362,1.7117879641909521,0.9326104576703288,0.2678470406334794,0.3711672263101062
7.5753682047680195,3.0111665573666517,3.56809511943141,0.751442633053866,3.9732672151735757,4.307340839758252
10.7955014645161,2.770192184400793,8.034443399528469,2.1043891409549516,7.826465480804686,4.942840038195873
9.003726766677545,3.3287431989912473,0.7518850724844086,1.9025103459127446,2.917194419876484,0.9349495084065292
3.6512839425555237,2.730081742111625,2.9574696752575815,1.3123459563083828,5.487129460053284,2.4873014754482377
3.241795418429163,1.196014889865631,1.8459615847407023,0.5259002208044964,2.3973079665599113,0.750340745499913
4.053082415513971,3.578908085558946,4.099043787534218,2.796836729388267,1.7306911682737154,0.8953036391641361
5.5020128452578945,5.719731417116814,6.2566624932240495,3.096814266046879,0.6053077872746392,1.695749096865951
4.65772272656951,1.9160477715743198,1.3477477705805132,0.6052166766695196,0.8188962029393552,1.321072116834776
2.4010852077188956,3.7810536340238374,4.763908185003763,3.8647598855731253,0.6514889984382163,0.5043632623162692
9.492846059851889,3.610803889747603,1.8678792094333125,1.5183270779611695,2.818502355362758,4.634808322755412
12.141891148730432,5.859173681414723,4.178080283599778,1.536891996727928,0.576872509029378,6.267772029366225
13.590283114787118,4.614967243119905,2.5062857100227434,1.2280210574577792,3.0795896735244535,3.2385887661429495
2.7964723393410273,0.5293246854557089,2.0067512006258896,1.4045558145560717,2.8251408366707285,4.368578531472514
2.826779804181122,2.719095522378564,2.7542744741625635,2.0683217450685056,1.2148659213962703,1.3254904454661167
3.9409601677645107,3.8724907854740027,3.2658113961952293,3.8077275116697655,0.9077434959068119,1.0136404174156555
8.6577031861107,7.333423058941902,3.3313348500871074,6.992501067649618,2.7087088558098795,2.4000028140589897
3.7868066587366394,2.4843084331165386,1.5030694625848868,0.205939374289482,1.4851304453674334,1.6816347763338175
4.291004579877756,0.05335951303207912,1.391806968080034,3.1141912435331256,1.4723895318052365,0.8414281636966258
11.917211376130341,5.669682373500038,1.2488298968051346,0.5737802424276628,3.8244476448296765,4.729435599458147
11.57292083224354,4.50184163993141,2.5221145276849137,2.5761471434146395,1.8227491376636102,6.028472915122817
13.925677615122064,1.1286801957718169,1.0943998682482041,2.1227216350005,2.42941446237723,4.669999101831374
3.5540309780411503,3.966187974216019,1.8400594928274339,1.1381830299527014,1.2174835150423544,4.656660076376003
3.1286108607052476,1.5062188453607224,1.8862068967211685,1.2587244154725974,0.6115408900927086,1.5211554493835207
6.095971136400845,0.4892363058663411,2.918915144645562,2.33392967962337,1.2473295064334646,1.3539298980871954
7.3245268118835565,0.3613788107060798,5.251535853262558,3.281332696933716,2.82195369939703,2.1244927638353834
5.103623271507608,3.3274550975899557,1.5792402717151441,0.2594855818161812,2.305886967195041,1.498312872359147
5.765943687860816,2.1902106808283937,0.4850355853515323,2.1539055483484333,2.501014093166866,1.6043751488480145
14.834225504996052,0.729019809184617,2.2072592073301753,1.237670775929651,6.056653878365754,3.709926066744079
12.935419887217707,4.093890747468637,1.1431354111086693,1.7463829875681238,4.260301395138155,6.759549397471829
17.069186746979053,2.712470910783281,3.349175656654782,1.1170299988838028,5.114082520953928,3.5118474382156104
4.231046215765129,1.461102166036336,2.123695152639708,0.22416938296695021,1.6198185740476634,4.266598542483357
2.8843157421192682,2.5158161198468223,1.7485412040456036,0.9930162507102148,0.7709857489537433,1.3257230461885228
7.698535001498762,2.9585938470477515,4.620526122419083,1.6183787404719103,3.355240769728071,2.280886056522399
6.798015771916102,1.7958772626680948,5.2461335304654595,1.732269152498599,3.8743153717815835,0.6172418378575415
2.6942799426549633,2.9367117446773543,0.49495986401012454,1.4987760382385393,0.6552441549858641,2.22619313303807
5.868071939340633,0.4065745795114666,1.5829291387619262,2.0488805198683933,2.8194574516647175,2.0764689809538406
14.07377657078866,1.8798973635438112,0.9367413043418791,1.2401741999603817,5.222093001657981,1.2659331183944418
