Gx,Gy,Gz,Ax,Ay,Az
16.586662,4.0312519999999985,13.855507000000003,42.333999999999996,583.9719999999998,40.406
4.908901714675748,14.266365138752088,6.609799294624392,5.304590689329358,2.205410898726273,2.4515842496091698
3.934557920764971,23.17081259771852,5.236094164035553,3.52156538212613,3.565220344017323,1.7092682973608035
9.446048281331972,31.16583816519086,9.774440960822536,2.6140240718501655,2.7171872667654453,1.0464785707694189
23.750510175689097,42.399007121348724,5.641516280563271,5.619317217579263,2.1697406885948447,5.058979066914645
17.90348642693115,39.335678801829225,26.174915832315314,7.134491388589837,2.0544876594574246,1.6139001490049594
40.830568198559504,152.27647245335672,90.67924972977283,18.831739783728295,4.223998566978496,2.619946310390793
7.264688960388381,70.40452843276412,39.764246903635026,8.923896814121806,6.8226048324340525,5.66047660234283
8.357360889029085,14.97317500151118,6.7749029352180274,2.031652668251215,7.572901050628271,4.542871772277596
5.545261625013343,29.978481986065127,6.702636268082897,4.136274956372451,12.309552152296273,10.009478870611606
13.524005220502332,0.8421497920419884,4.567179147306397,4.945266730703288,16.859125007965773,9.56353403870026
13.918682729226873,31.375786660925574,1.4056032921053445,3.4943626129377945,28.74560668457091,16.264124777411908
23.008688718940295,24.38239816718389,11.81681200332371,9.63409430145661,62.78930207438156,36.712828362754685
28.573345585350484,18.59081525182786,12.616476212358798,19.688710949664422,81.5975862881903,62.05616125707987
5.45614489154508,19.60206503530462,9.027336250443245,4.097442458310933,7.908893353519916,10.813234145210108
5.557555551110855,24.642540578005253,14.520262738957012,5.668511086306447,5.389354464121017,9.048433792474928
7.100493371819139,22.200854597811794,13.672148415547499,8.018616762180047,4.891096425529737,6.537356724014035
5.35899682288535,7.885018292424534,23.273975602640977,4.550105789809413,3.7115239264814264,6.561247268686762
4.752872401789859,5.6173577835738016,15.51499085471786,7.064872118123733,5.764415546051764,6.140989942336057
13.909348093076854,160.9970849445469,145.24400720778328,60.63960441590197,20.27803017167775,4.494542244750902
4.839208554477225,18.11283779568124,10.314487984464497,10.449939601508817,3.994923943238945,5.44190562412152
2.2002297190901103,12.623547672982628,13.870796939798913,3.51850378389089,3.13141698993295,4.402467755027089
7.813174851356858,14.484809354485083,7.836851618264763,6.864179246272809,8.37449485537461,0.791513623304679
9.126843924549322,5.795076040444833,6.733571773398528,3.156220616292596,4.148342812017983,1.8871414752057103
13.410742282632716,14.825698990961467,11.378466560657115,6.810331823941494,7.697077627784706,13.567162787825316
43.20418694871086,14.38978927333797,25.39253149746932,15.787868063242723,19.86550250734656,49.9120680113139
13.978986185670424,17.300096069143088,5.4069088243820875,10.82037925119076,3.5852232905252084,22.748601348951862
10.33648850605955,10.07882050953108,2.1308187036306476,2.138411018249459,3.13130130540327,7.564865680201448
2.125061321696521,3.273075109380851,9.626423306440484,2.2599342427817297,5.036736105000436,4.304073593882486
11.835239804112325,21.90697765523741,9.108369031809943,10.139057020646012,3.3236564347855535,3.3317425576717725
17.70857465086,18.362612590539694,8.965323274239061,6.91876269746236,5.45134404133703,7.928193545073562
10.284218952837659,31.08512091766123,19.36526810198779,13.002732344681144,2.2451182737599837,7.136911852598747
19.871220163046747,17.705029359777047,26.15766525292766,22.568566354168265,6.597230639464648,8.261931871425862
4.211718475088181,10.494501918498313,6.090868975028345,3.984254025708536,2.028239225767297,5.625359870571919
10.136723003463592,6.104834706846516,2.441425349708614,1.7459754267800869,11.482890971453894,6.79943872188126
9.328308642075656,22.35383724025452,11.090769815935152,5.8928886169805175,7.612188897873063,9.053812207497728
24.634413717762403,15.25016630702249,13.249041568595587,7.448272802185764,16.429485182893195,10.601358596012124
13.369360541769876,17.7197751532963,7.234333263000912,8.330535746893695,8.996301634602318,6.868378212808779
45.41750692604883,13.620162352617658,28.702728018111138,3.4315480282828568,43.72363161780237,27.32708812860034
18.579465916018,11.292893161996563,8.5427873350283,5.103863811608954,10.512408376189224,6.943544230895889
8.612568343218111,8.096038332618845,3.3917904049632397,2.497184372730698,2.75773385003795,3.0381904501828805
3.2482749529597625,2.8326449145705515,4.426479183749146,6.551307141289783,1.5401912796148618,0.8781634049440302
12.659670164738868,2.0522865608593523,2.027069019971997,4.119855713193221,4.98619500905971,4.411249929540463
2.7537993176629594,8.714549200471922,10.450216868454525,9.398099519439791,2.086482140586474,1.7065391825838705
28.283129146637567,13.5041559438876,20.27576789660047,20.720666503633442,7.54933920825193,9.759337730346527
5.459495422335433,4.487142419323346,9.106707084934332,5.064105991673163,2.7952892572552117,4.533599504044951
14.934895246188141,11.092475503282525,1.9236451971639308,4.0003409440300555,8.61466347187043,2.612326016039199
3.1610009510652635,8.588446592133025,4.185312443585407,5.89550816105448,2.8401877781017246,2.413471975732304
7.972437992873375,2.6661591303883103,1.9410034067040671,4.438356339293541,4.198848878472571,2.1867931217182304
10.890421717148385,5.986668522975394,5.655687183525271,3.547627068268727,11.725620405722779,9.397148990053642
19.046438739572935,2.3116029641347273,3.8893462896210567,7.07040825946027,20.125763461120357,13.41427467168274
16.81543000497861,7.25404227533604,4.772152538621452,7.950998575816043,18.672843809584826,13.897205490419664
7.937426713308648,1.744811886833362,1.5528304702022238,4.196619595213469,6.172444945405128,2.1068288828091233
7.603062336830223,3.246497501212662,1.947949565433836,1.2152066466293154,4.2987092730506085,2.9079476850354755
9.350497893252069,4.152362757984054,2.9457115380971772,2.9371907107633706,6.545007396713765,2.1868499918506834
9.727551258129903,7.431651372648344,4.4422185219257875,5.290273639203026,2.009773024097844,0.88120471869818
10.846254371834567,0.21502448902493074,1.9497571036103731,5.092946546725328,1.9155761340064374,1.4277398089228652
8.441278444876009,16.375542191731306,3.425146216659453,14.290462931986927,4.657681679327924,2.0043067454143304
1.7358579856263228,2.5437106147494237,7.333122168684753,1.7922768883098934,6.824091338004962,2.631631293439608
8.019911015385587,4.979223699390882,3.177240967399702,2.883454179351181,11.315143897519418,2.4720592157787613
3.0700823503360835,2.048001052869105,1.4020168587051993,1.6206650729386842,5.611744807573495,0.8648308100066973
7.642565915717279,7.037763659977225,3.3904106629974344,3.8281613424797762,7.819183191937297,2.704703038700787
9.89812610153167,0.7363845309132414,5.114471279398851,1.2648240928386512,2.057576433937134,1.1772226043537464
24.171213988273237,3.96984451149151,4.2887448912087125,5.861417398146597,25.373340715214177,8.086916861367508
11.294504868636885,4.41213618158675,2.1417277535536914,3.1433193675813187,12.228521761295383,2.990910186389684
7.591869755302779,5.781284950624523,3.52725736744022,4.136959606615899,6.85362944726284,0.4636803749433979
5.539378040637499,2.001378801026995,2.7819394289904684,1.806946082330727,1.6861008225533691,1.1844778985402726
1.2472363602200804,1.8049413449133742,3.0243419214474327,4.098234977829761,7.07586092168416,2.030480151031417
3.947338957396267,6.2022962771598245,9.673700199898585,3.582988467781327,3.134437062507492,3.839183031448951
2.42288647842795,8.66691527928885,6.190661397403856,7.499950583642189,4.1030780465702605,4.745970978676223
9.168696710620665,10.189156369719043,5.638775854907792,8.763058309053996,4.328627941115699,3.451816866638457
1.9121608272221489,1.815002827673859,3.0590801869689894,1.556850859720456,4.634540083846534,1.7812766760574978
3.826221373622457,8.202844053690816,1.55222078678451,1.1298284010356805,4.086848021567472,1.7888229733632073
5.560682227919215,0.9907491630112489,2.7279547563457855,1.6338815141575915,4.21431292794455,2.3607417231880032
9.832830549092591,7.155589019688173,3.181736955514007,1.6576464500969337,8.468476467325885,3.3238219021072357
2.9837576017499146,2.863097983745777,0.4759508352217988,2.08050257436015,6.479372194305481,1.3359841862586828
10.381497713099453,2.029122614270608,2.807181427043198,2.1734826503264397,12.246447134830467,4.253976620833647
5.192878928373014,1.7194151397159827,1.8644786072220048,2.1550177896241034,7.759822536798534,3.183922763592036
3.01760178422854,5.944649226345678,1.1096318495577042,3.265652661728253,5.002524020910569,3.0028106104512178
3.5992043049596014,1.8837303974754918,1.3000229765554,2.2567983347806173,3.6820075145043165,1.2235902350495136
5.353785482356543,1.5641194187109742,2.5151731852405317,2.1913861142514546,3.4716535630841534,1.1336491141725344
3.7134881645690445,6.306302782101812,0.482832034920414,1.2475392988855056,0.1499237968937217,2.704968751509467
8.784060370542036,9.869389780256949,3.0976414714339784,6.949404130287975,3.377628684279764,7.361098775075058
7.433451154188166,2.2742436812574414,3.321264064774932,3.434336860070868,2.8412241461196057,1.8964417128004347
6.929610970988832,5.9894770899535885,1.113024875405507,1.5209913128568555,4.779532022751768,3.1394239965151916
1.1221487613795413,2.9920581533804853,1.1448607498675307,2.2967015908289414,1.9182396259494707,2.7915991625879197
3.601734539876509,3.2338768607552053,1.7576153031181032,0.6038864583283331,3.060467209174165,2.9395831683436513
6.037392402876754,1.5158566740881805,1.271012529383262,1.3063967330093924,2.1919050599128296,1.53143751361821
7.239230398080003,3.150136586973774,1.476017831062008,1.0032633041895729,3.3740589171171123,1.4384861211353315
10.321810912959897,4.946167000562091,1.338911330138089,3.4766812049666167,8.058868992368115,3.5396549634991565
5.512845713277866,3.5313197986140272,0.5097677084557725,1.0693455687220503,2.886415131946923,0.6983888442507917
2.6222242889706937,4.273336078794509,0.8407637648108279,1.0546893123422711,1.9501261737802087,0.7358946738058554
3.5720580308428405,2.0290352451269493,0.18288277866467031,0.5989704268842174,0.5596011101954379,0.28278376361653756
5.707031759882787,2.314189481057995,0.8106274894027471,4.760677884316096,2.7393563253827122,2.4508598907002406
1.1821228166197282,2.607245129652533,1.1676561689619045,0.5096624012900589,2.0437739504563774,1.2934726552573121
10.957988965892444,11.974290111809392,2.2901389578309534,4.98081040761596,2.185375059541363,4.36499151100545
5.223987283304776,1.2719532784836727,1.885124975775188,1.7569296810262836,3.1199349484749628,1.8955702191044734
2.4906051739762645,2.872511960352222,1.7512420365127561,1.2650058305022502,1.0731547058373576,0.21368300287600359
0.2583161593854578,2.465793394007706,1.7289743227642815,2.0935060380201596,0.3853842641781004,0.8202789287937479
