Gx,Gy,Gz,Ax,Ay,Az
20.785604,10.035889999999995,11.70991,33.522,478.552,38.977999999999994
13.504136886534054,4.786679930159952,5.83062658262491,1.3391253623649837,3.38448809266784,3.448297690351231
4.573299864607343,6.373615992394056,3.192553454663544,1.8336009527842005,3.379299494437161,0.6595652496939332
9.902475312328713,7.548392640762,4.746945206107065,2.0457573486507967,4.146368009105837,1.0065560418208264
4.60713349417777,18.752341768303403,8.00075344619836,2.3420711198910813,4.295932790689422,2.1463528980601847
32.21269833936996,130.03422031612845,54.343823251427146,6.664280214094886,3.384295752110911,2.824785575181779
12.186407677626915,40.489105496869016,18.794581385433666,3.2960111789165683,7.631493408215828,5.4519194142253
13.673665630068975,14.623558282343867,3.912041701683916,1.0795628758691147,10.087700478460594,6.969131533124884
11.425100318621036,19.412791769543166,6.539485603145851,5.4476836444065535,19.208540284922854,9.1591700254863
5.448520985996822,15.08805863930622,9.369282140716852,7.167791917703939,29.285886340753503,11.426214638012928
37.089166087641445,12.226816011852007,22.177275429946672,12.636555875889298,92.49256158155072,46.276178600701655
45.98593658766819,11.479110508064938,5.044616802826704,4.753440609402278,65.70970627543825,40.414857485098295
12.79607002903289,3.8638987879719804,8.137010591730295,1.4403329596435333,19.12530423256785,15.872169816296655
3.4703135650589716,17.93485614674287,24.07681310495255,2.636155477348408,3.892773257476769,9.317505703985248
12.578290070115292,13.948226141018377,23.69580899316497,7.871694162105721,7.222466112972452,5.17827450934514
18.42833031048603,55.839564212434446,45.76130694880167,31.817598047261235,8.102810752158037,7.639737180870141
32.365944525065395,143.47481230172866,70.03127574902015,64.55982238572419,18.032831376137146,10.632908002819589
9.524652138154483,37.34336683140793,10.28639806269063,13.920108713945599,8.744475991938424,7.298811140028589
14.619905124477144,1.2399455323126707,10.89553764225307,1.3492136778419968,9.020208507841673,10.160012537947129
8.489167172616726,14.284734587234182,7.894294559052311,7.708875442276276,5.278906671208824,6.616427810536578
22.63016839309442,13.686167837985678,9.424171788755332,7.266311844020313,6.325672350957666,11.525640241048789
73.2188778503878,11.42265736143695,11.534071167741555,8.104751274760696,6.604721265242068,54.06349641269556
9.160167278512185,10.815936469234574,4.095769420881009,8.325226390505424,9.408821887048237,4.381796761056697
8.253129877130197,1.6529009719479615,2.511601734792647,3.722787368751324,3.5114743605854963,2.038825128916445
11.358452842020267,6.664402435138978,4.667917330073337,5.065643094778719,1.7538879313326734,5.890227509981523
12.124811659731652,16.67267604008277,2.149825068251904,12.564378695125908,5.921809707843323,4.787572828788635
25.17589370217887,38.089063084882895,24.88382201939698,39.174140956897745,11.650031160850023,7.060087252224223
13.514758378670239,9.735099346864715,6.754036470431357,4.509975335216415,6.7743850318669585,3.6532711171707986
13.309639403119004,21.53367941326318,5.035069531665385,9.394762414374535,7.181214450393953,5.100486843280245
18.362615985512598,4.27184141167123,3.4671764894914494,2.5365556379205527,2.792134026494303,6.079901474000565
25.21567007938527,14.378808474452828,9.180981257841097,6.925893099826082,6.587565087319062,11.647689948741052
57.40342067524745,3.049789073379225,3.2872440170521746,6.902206734435152,26.461411810600538,27.84140107433583
40.41054344335228,8.820760140138894,2.7120541635841278,3.9726059217689667,16.355486869741735,14.614543844989315
0.2897229849694664,1.982550217400094,1.692066031166163,5.773806350092935,5.210777129677293,6.816683415997577
26.155199590931893,8.152826141855812,9.90413478109574,2.5087513481583974,5.00710835906477,5.786297082338499
13.286765810454702,6.499540813231833,14.09390386355545,4.3901292572973,8.781335984587662,4.6668058793672555
16.606969635045704,13.881149223344508,25.63515189257366,19.236241103951404,4.483471252092846,7.4602219678866035
8.037316647822706,18.805387779618737,26.231858854300075,11.257132389470952,11.943396536600725,4.1681345143862645
7.957237499354191,6.1725173695074815,10.365247064713536,2.585273412573821,8.74464647865188,4.340612893579314
23.400600451265746,6.467505100429788,8.89943102995801,1.9067060250315977,13.218953141996177,8.977721746064242
16.66621088649015,1.8746599599788762,7.6998860790840356,3.756109279079603,10.092516549183502,6.642139121505105
36.31179753591306,1.2027336957625157,6.934171129741048,2.2313323617397525,26.15474837259346,14.597588561661345
64.13714263784858,6.885336828981239,14.34408870146838,7.243424602124659,52.49589746832944,32.28332619359665
9.150503243956832,5.5511571908951245,7.821394395373409,5.412065541481083,6.104326777429445,5.105558901931371
3.618699405357161,4.04094121185964,3.1396396344550297,1.6314427745853541,3.3470988008011577,4.811555117605598
10.938927802004969,3.4196519715963474,5.482170158909775,0.7545567030251172,9.485971810519988,2.82493860605679
9.365153649713086,4.62784419340858,6.385541649732639,2.719012055344143,11.47876511182945,4.5664337017992045
12.293330614970976,1.8525695233938406,19.448764782233784,12.105369914110794,6.400219542049801,6.885978876485785
3.2079704567631424,5.553114806931346,4.529455604791409,3.8132737428852903,4.952976182526786,4.708419734601895
10.902293226420705,5.1001938730227625,9.16190626188194,3.0202843943291917,5.184545215984505,2.8406599895715385
7.007999684889828,6.473213073182233,6.175845650860456,2.681223976121434,6.389178817029088,3.1972564540340147
9.37854513706636,6.792777771375968,5.333071131216073,4.553948582786673,10.476480161890594,7.483988208565056
53.267918065369685,6.00881532103672,13.888490631353148,5.6400914743860415,62.93598965860468,17.34193433265337
13.20902595262775,3.185091496483801,5.542086796998561,5.548278626793024,22.511744612025872,7.311645012497543
7.967901109104686,2.4388655518231985,1.6544181952140282,4.871870781743673,4.47234679445547,4.315925695470761
8.379907249928118,4.138398310517556,6.778390120831724,6.153992058312217,8.743693110689128,2.7668448795652267
8.388041282438877,1.1547129869300126,11.522948699313632,3.694823294158527,5.455954032370671,3.234877189964116
16.100581627501498,3.9040948160705877,19.733288201358487,5.184425366852738,7.111977326870365,5.643763989817451
11.681223737444721,5.473458527678576,11.914824635950152,0.5613532029641802,7.361984151282911,4.678356230935315
7.708496627092657,4.847895258135306,6.1830020345204,3.6763481567209926,10.283525940705625,4.534469923446012
9.260344915855725,1.503035087671643,7.070155267454457,1.8174050916547762,14.753007165957044,5.8614520596700315
17.842722354594205,1.5502892226738456,6.90791510713364,1.5670859194093603,18.99331634266959,8.972720375551573
15.756514037233414,2.97785598595184,0.8430630420589051,0.9672976481603933,18.95787320978262,6.2708787675944775
14.282635094509358,3.7969989223965857,11.166514351601272,2.6792042870327184,32.305354164598306,11.824824317124296
8.247236802820579,2.4825806149599794,9.434731100387342,2.2157051939571715,3.811128966320959,2.165942475613601
3.040913501382273,1.6204185491903118,7.7704260784683115,4.258445421276188,1.7740246950189222,0.45410483006145264
14.38181073935777,2.7808849534506455,5.460406991093884,3.9961911309528064,4.073567227430317,2.5745919329854994
6.934912097122197,1.428245850544215,3.3611617125807065,3.2611085234984527,1.3029922613275065,5.413070894633022
15.617617900383912,7.885735745218279,13.731279976110887,5.294483449323918,7.864032765083746,0.5131612434502677
12.987872603595932,4.012109930231601,7.679803600002609,1.808790256981524,6.632066863597852,2.7501605178844883
7.45661259864069,3.632585748561879,4.151614502411152,1.326169378549203,4.777220370289021,3.937533120605607
8.889755396104654,1.6661295810513097,1.7442266005388456,0.8612966062485586,4.520826214279131,1.4977830252799569
11.323753307839667,1.26039069355771,6.295188968822914,0.24353646807905344,4.478334080841844,5.434059387661366
27.510546446932985,0.9949916290589665,8.23111045538508,1.3609450061760475,13.782432800547278,8.294703389863818
7.449884873239809,2.345341825870921,3.6430872970573063,2.210708354490526,4.128725055008919,2.584784013371014
5.4348700691280785,1.5319495323097105,1.9473859855735904,1.2600656791024714,2.808045172624292,2.5460529663931246
7.592334775614462,2.9656421187325264,1.9041703701313533,1.213905362256862,1.6095716272005647,2.8414477312845965
5.00413335627306,3.962830210332222,6.371224680392287,0.4667476134631682,2.7157888274210893,4.517583188963104
6.384035139779821,8.01982663587809,9.173527650201168,3.5329790099930647,5.234396404927544,1.7507942115287947
9.019403389297576,5.326218861293851,5.7939478871501375,1.7936243483531704,2.1705005043041803,2.2064803242615225
1.6893694566290776,1.1640791678838993,2.772621575942784,0.22102927759252422,2.501172158345109,1.9163214239983661
7.490054219372918,3.096740199597594,4.977711018856835,1.1356843521870565,2.504892598228071,2.0804640441614
15.998797841994016,1.9585903409195355,3.017843382053261,0.4062552179686302,1.8495115270223688,1.547876319480453
16.175788398753543,3.302981698570533,2.279520244519414,2.1152936944534977,6.366744787760563,3.7103791420682337
15.401775650275608,1.3660045003295374,1.721280123255168,1.0646301352582361,4.392712805087842,4.832970558599251
2.3758479093346487,2.730494686483628,2.8789199650345982,1.1016195825622888,0.5372486705386808,0.40247163374854417
4.798856816899036,4.228119980986411,3.169927075055872,1.6504285965389203,2.571354743056803,3.746777068008991
3.778229044170791,3.7829068017950798,4.931657820095553,2.3342998383634765,2.201920047999452,2.1747359346641506
5.881175839448926,3.4399540307593344,2.2161632385381784,0.9980496509787979,4.553536656759682,3.018492493891556
1.456049102347831,10.600191874516428,7.78940732454441,2.6659814539017646,3.0658315061913957,1.8026992202497112
9.141269049365427,1.8254596250008492,2.5824368779338465,0.5542394433234085,2.613982800137961,2.693072651817716
9.711222501641826,2.4621027222352763,2.2633709668599504,1.9283707496958662,1.1787344762649403,1.1202868119328233
7.069015704882508,4.332224446182247,0.8318818876989271,0.5386994930039024,1.7665782855518861,3.0566692839182137
5.284853274881081,3.411078383680088,2.0680654468901722,2.5488285597670535,3.6773821771388095,2.014061684121559
14.897153750699752,2.499172710182945,3.363095324610362,1.1216383459140158,8.34430346381476,6.793111924674293
4.322425029483452,4.96432368460113,1.7379692184892992,1.6331013283891416,2.3566568259620553,3.944952433403147
0.6481251377978505,3.0905838907597456,1.6223586541648325,0.9827638676129686,0.8229719672624531,1.6428790672930438
6.2665086209941805,2.138181644700881,1.3885270565773697,0.7906965297134766,3.096434912250718,2.357304173466709
3.375153166228708,2.3133934500260738,2.336710901374476,2.0898598132962163,2.592900158444354,1.6122535118764867
4.46947217234051,6.663082367177433,5.108129801081138,2.8827202445979925,4.385775869778469,3.385901433927405
5.9149618904688115,4.391394384675115,3.454419366514083,2.8335680568880557,2.000060982227469,1.3067605591756013
2.093998223517176,1.737159092381462,1.4079891091081536,0.7829530308322161,0.8712149852523303,1.9599559498502193
3.2667598842289807,0.17573591688411488,3.2382416400936243,0.40773003472026476,1.4033114096357242,4.650661908113802
10.334453399952098,0.573043541950199,1.8334596812720196,1.0689477950595336,3.2228321978386414,3.824458064796745
7.576820440644749,3.1980129924301366,2.3801083661136357,1.672430865635468,5.695298283445369,5.099457722895964
11.019739579881358,2.2647815363465416,2.1740807115659364,0.28290581271592513,3.9863599628136965,6.766577346890063
2.6772147405647972,1.4873244246179758,1.0022709660350342,0.4448272952357382,1.1541718579202482,1.702137132784106
5.285131474733215,4.2779713942271025,1.7876447158447386,2.600776213765326,3.116322891342549,2.3214315787666244
3.3059595987864028,5.27287896167024,1.414093840540063,1.6020289962323282,3.3376225192962816,1.6027124289183325
2.7754015921307964,3.8978938920729327,1.2096833785762247,0.8836359291238808,2.6682642444527103,2.451120762819238
3.4275793199066076,5.133128478174342,2.66922179066196,2.759219605501957,1.7216568138482367,0.8352719835678263
5.31861727987753,1.9650240505885457,2.663372471323257,0.646415237650516,1.925629081187119,3.0814555169814426
6.3508323142991365,3.790316217665336,1.5147748202086675,1.3024673230262744,1.3312780631331058,1.9999505338098293
4.892978153069145,1.9643991395180573,0.26372748059881984,0.984157471159491,2.4170575949754607,0.6471719394135781
2.5306667656788515,1.982063595403632,0.999823594943594,2.3502364367661097,2.08080949080713,1.4319755956897504
11.933054048108696,1.0254507725594044,2.4043084973482665,0.5480608060278688,5.052670021890204,7.771943485405849
7.554703861131538,1.533472881924337,2.0851042594622995,1.9716764154339208,1.2738373912329528,3.2524223314863185
1.6054034966316468,2.782821353261489,1.2343089755144887,1.081963276073287,1.2433359694692152,1.3108762739399424
6.040949715286411,1.962461822578155,0.9668642124036418,0.6368038233059685,3.4551247187929177,3.0786413323296484
3.316140419633295,1.4569890443399274,0.2614808509927303,1.8291404450084265,1.774340605190383,2.3878736269435086
