Gx,Gy,Gz,Ax,Ay,Az
9.717107999999994,6.149096000000002,3.905582999999999,29.50999999999999,454.94399999999996,9.410000000000004
3.507866954788392,8.84211896991695,3.2281847539518007,1.7577567283688416,1.5187461383204275,3.730019571399219
1.9122188963455486,15.020667063339092,11.069808801231032,6.361216973501457,1.2304625309445276,1.0045258173064981
3.6318424280179435,7.270629775719662,7.472773728399143,3.297792337670567,1.6554608909098374,4.250014923520307
21.723775224678576,47.30606860707099,24.03304275007318,8.29488335638209,3.281273216347028,1.6219044479479376
43.63237074160769,40.91622511746642,33.663828552238016,14.582018634535153,1.9825722954951133,8.438783043909076
23.885931618418148,22.706577449335985,2.9875106035344645,3.592893315074295,6.496519306511188,7.790661564685023
15.748288127712495,22.853047649342265,12.673868201802065,8.44648741113765,18.647665261250204,8.848903902401721
30.01686357039476,23.324608326343625,5.675901508336029,5.384515059547108,22.910854103215144,10.91641928246026
43.84355527302584,16.651118228265027,12.322916839182252,12.468926703355397,89.66142935806012,45.4165615330066
22.556569264590326,23.393666801573552,15.561817334174659,8.681462272730453,46.637661395346065,24.4874375786353
18.869034755265908,7.483817359689607,7.743965342320482,6.844796362784632,18.173729623850356,9.71678344376852
2.001940264386367,10.223109690976049,5.8720185636366375,3.0891203881811773,8.13720288058507,5.1761653762638895
8.676637425298203,9.060723831138427,5.785244556684987,3.7954372629702027,7.005172344371662,4.668040577476272
44.31634436476333,66.21599565210299,109.59189026455604,22.89242766505531,34.704477066497915,10.557567006622216
10.950049767257758,20.73553359024687,19.839135134519353,13.31373772580367,4.935696111080032,11.910442273241836
2.694174061742548,6.16854138767424,11.633503165715219,8.035375733370216,11.088130713552387,7.671219487824875
16.961926597698117,9.912984743130057,2.1006959617269643,5.63962570857679,16.01051362172721,11.120015035781252
18.658546107292,4.614628126857595,11.552878362729672,3.199312548747237,10.431021399646944,21.362628714206306
44.20127709622105,23.579286349714828,4.962710676613232,17.80228669090479,11.321149723258328,42.635747830845006
14.908295133543122,25.667112791641017,13.452813708422655,12.896456062054746,4.285932820819246,4.875778100588487
6.047599401899828,13.67867833966934,6.257897628131146,7.639863152951411,3.5909927881926884,8.488429717046236
21.56520872126679,8.096110416444354,7.312528381122249,6.149173162206797,13.420010139062477,7.840071327264496
46.86451884946241,47.35680946550332,23.57852032517653,36.87457080849099,16.714941171956845,11.300397174031298
29.232674482318377,26.60778196421166,13.806955028573247,18.36441523969533,12.37891821166341,5.942781817569893
4.462123734271722,12.098052197508261,5.96888217987837,6.889502109796125,5.0148970467831235,6.714645955821443
21.32063762351746,16.448583501178657,13.634501930030762,10.03143853919304,13.70190409232032,4.140770118536098
25.499842969180598,7.102825658498311,2.528881626317163,5.044135269826424,9.661838942639118,1.3873978177259025
30.627234135625937,18.30506357715856,23.114341566351612,18.57856560747072,15.782585643061445,26.560874184145113
7.180685698900034,12.171234218686877,10.923953271319306,8.61819095504039,12.106946790586695,4.864707956026438
16.819842767340706,10.260815225552182,8.087785389135007,7.2135931326328,11.969419683956879,5.469083065613716
28.056296988740076,3.7676181072122312,3.0197807760620052,5.819049289600411,20.52839507386615,6.535102793347381
24.793042182486264,17.58814857011359,19.471254115245586,17.828943709598434,11.896962075967911,3.968732565754458
20.65600975375229,5.13702023336287,12.911474206891652,14.005362239098448,13.848860427625478,3.1886150792916608
10.524166214276356,8.96049258423773,13.382871476359577,8.894268449496877,9.877840304884852,3.912440709558913
6.707275294194451,7.485622454384542,10.588954438027379,8.941902936917765,4.810907778640793,3.805441717848309
20.85429765743295,17.211057725182318,15.332116339102434,12.886181254952858,10.486079028157777,4.592891980620379
25.98081002183962,17.45971789760544,16.37300571891447,10.375124897219278,33.22261578339461,13.898626678427453
8.652497218148957,11.038552699948637,13.618394754578453,11.750149885418793,10.552350525776943,10.508314813205702
16.617777997644456,8.284209046522749,10.255642492321053,12.331359586600103,8.288618956310142,4.426536780510646
6.69071912753941,2.316321629297655,0.9720701353894579,3.828385113451871,8.782872406796027,4.823851792065062
13.564298944927078,9.317511274981277,12.112985542535059,9.743424577735468,3.766557549399234,5.819226861624924
29.07399186893121,12.823112654355656,17.963118680583317,16.707093612024806,22.785248997614087,3.8742479207270093
8.41514229299357,3.0679045927144206,7.4441321573126285,8.240509427466174,5.538526308263364,4.139790317540589
7.191408028292967,4.164419876959077,14.128926622269894,6.999804988140886,1.9776553660718996,4.700972046578028
14.766212873233924,6.16917436217933,10.364745465138553,8.163173847300703,11.586818635796893,4.047084398545997
6.51857609108237,5.158636169468707,4.198990704408102,5.31152598889663,18.08001399109463,4.926797817528511
10.063138336795047,16.928250182766636,9.549872300486527,11.593867287681421,14.21554479914358,12.284338837489878
5.057177214611014,4.817488831837686,1.7083482074510459,5.112539732459907,0.2607637755944001,1.2552981261751341
10.359477722973093,4.626356349799055,3.999555080631868,2.0188376989879284,11.055435865166801,5.723513504810518
4.74765373392198,9.453571515655218,6.527499378410504,7.000734274966982,10.819229648880851,7.6452084806704965
6.593898936767548,13.004453873076283,13.222604547642057,15.515929793948729,9.186488110235711,5.099641287674719
11.104566758102102,9.050870505511766,7.261459613922111,7.850003238415429,7.576371898132391,4.516146656372528
11.623213429074408,6.255586295444042,7.22819470177085,2.865003000815287,6.487151791567245,4.25889374089762
9.357663524751974,4.083215111207772,7.329426967415719,5.6768902142721815,1.5025771941185901,2.609934043120815
12.696441518869223,3.0703989434199936,1.9382578365772531,7.2305797026588134,5.012063634207005,1.06162200370471
3.3010077198847854,9.549134609197237,6.853070567414119,3.2848545150898167,12.364157411322719,9.532777921530778
6.562069849652058,1.5783841840838437,2.680115827097333,2.2758190568667533,1.8475065055611566,2.715117884320167
10.163621048361435,2.010911644024746,4.426733482730774,1.8077910521448,6.276176645348923,1.8286830641186964
4.194057586881407,3.973186225221843,2.0287766083705665,1.7993931007523527,7.247043801874013,3.0994980307318127
6.126694634491119,10.406905874733011,6.167202431906219,8.528002029056928,7.354841106274202,4.601480597091813
15.471548659673193,1.146369161372718,2.51172744929786,2.119706233022282,3.834969545953189,3.5707236299867047
9.616403260373987,5.689753098025117,1.496165037427004,1.2913992437456958,5.547077627803209,1.8532657794224454
11.875344382173122,4.419671117531012,3.006126482322893,4.501350355335293,2.378658100027058,1.7570123519302097
8.731360143409153,2.637233753472054,2.4499579792869337,4.034748379667598,3.7582043708055415,1.2219362312819526
11.222058996822971,8.043431200981303,4.754553448087989,0.7074723317658966,5.035892553353551,5.57766636374878
1.5748382991033434,3.894976189476177,2.0848231102659582,2.9831167946447152,3.036912384229586,4.868531498646797
7.190068776911968,1.1541877622684955,2.855336603657981,2.115678869550244,2.136062965004857,0.8295228251098846
4.712473732043181,3.011653856050107,1.2388821943406119,1.0464407790300945,2.8344877242581936,2.5993002971679657
11.023411283049874,3.7953205891881256,2.5028617752897238,2.180003206274425,3.3807072007361096,1.5186069269014737
11.930707251850198,3.714214214975716,2.077480437359083,2.917399592858978,6.374338563354957,3.164806566380222
8.810481271962173,3.1808561597981027,2.8855491452144437,1.256032415095192,4.7359017343241865,1.5852896893860238
9.06381111480107,2.495179806002966,0.9032571338847211,0.5823204429152649,2.0639268852372012,1.023120030390254
4.5101193184597514,1.092677666462436,3.8439423998189506,3.6773862935920105,3.209587682272652,3.752356995941442
9.002046260649747,9.512013727991182,4.493711353820194,1.6070423163401677,2.8327500045451073,5.3367332093158275
5.81784051491673,3.1472715282310473,1.0375046815873639,2.5432876907325523,1.2438567343551412,3.08500012087333
2.70376142050158,4.818411047142917,2.7107038590803083,0.500717117214821,1.8929705369896879,0.599870780383262
8.072095969308513,5.836958149927354,0.8146325526511741,1.297494259577668,2.3856847220765585,1.0931502846799719
11.76081402567514,7.587489659818208,3.192687797746081,2.987078617287207,3.507603998611746,1.8118477212854012
5.9269354660232265,4.369593656732179,1.1188766637475538,3.2648775742151654,2.009913714265432,2.638221848545127
5.052086322113858,3.2763028127311085,1.0169837784284206,0.877094356168909,1.3942421319052067,0.7250916347439191
3.9493156350233654,0.9909380401020551,1.6381771933281961,0.9954831342387381,1.8235743931282005,1.4328853063200622
5.4781937856845255,0.91054602481689,2.438269175257304,0.4621786342684653,1.5071131296776978,1.4829257706466732
4.264674842992886,3.791509576033513,2.7756374651479447,2.1603612676663038,1.5238637415380754,3.2751489289486178
6.8552776440012595,3.7718425210225632,3.3448327432669194,1.4492903930148862,1.9628696237306573,2.427137723573964
0.23867137518027143,1.7327548079709236,1.455780130234552,1.3027432118710436,2.2896178340412137,2.1156059815609916
4.3398961526613595,2.275560847160388,3.1893354111932477,0.591690256917204,2.059970999125252,0.2887845788315829
9.540070170623277,4.469742008889861,3.282433720093741,0.8800394486080817,2.6984920374161043,2.3861390177855366
7.775779080982006,4.456652999027109,2.3496140533510226,3.1841754211318203,3.8347046786267684,2.8030841137475933
1.9750137302816353,1.6461074691694908,0.6170975705008566,1.4724706901401263,2.363387516841055,1.2901138985297866
2.438011674692355,0.7836010624725881,2.142817534092948,0.763163242223323,1.4102969889339,1.5666297337772874
0.8689130330876846,1.8280958256613977,1.1267810057314802,0.8690683885470545,0.6629358373335138,1.432705308055917
2.991791238609488,3.5168612648068116,1.8749800304366224,1.2187032102759585,2.412362649936835,2.9278031620254303
4.331340339744978,3.4485745501541265,1.7466033567700299,2.0143122551843193,0.32024303899252,2.8070706253162845
3.38974812525984,1.767283790764311,1.2122690271705125,0.7860592314260586,2.597688930512022,3.275571098600657
0.9716720829146763,2.030354673136478,0.6444273671980146,1.1070013598806623,1.6559417906139424,1.1347096666621308
4.859144759884039,1.461199221115295,1.1107320667233673,1.5233128450602473,1.7052784976337165,1.9949494858559884
5.834325756338966,3.1427281521747363,1.8336639011640912,2.7878673749175915,3.0879114055574544,2.5929896313454543
1.5554814238113435,3.0878686509731406,1.2910769980790258,1.0836163338810612,1.975724208010467,0.3902936298108731
