Gx,Gy,Gz,Ax,Ay,Az
2.591115000000001,0.2174690000000007,8.308654999999998,28.072000000000003,428.4120000000001,108.29
4.438925713078277,3.972508747183345,7.565817884460504,1.6310783465446979,3.1730032261404006,3.2676360209699142
6.3724386632367045,12.31108378742903,17.560171855573653,1.9844465846616333,2.6809978031815174,1.8062768492864119
3.53791121569402,3.1879024422723257,11.915553446632147,1.1467287148943544,4.022165684697281,0.9681228591295128
15.95842233191787,7.619389885846514,14.694855518323795,0.10324664265613136,4.865187102822566,2.2143355545999075
38.9434612202581,72.36695791762924,42.509395249868014,6.259638658381828,2.038843356085724,4.151143679943484
3.268543577161141,29.623364546868313,7.245025666177873,2.4675472985487095,6.632176090227811,4.901159189750199
16.062940571442773,40.58615963900947,6.875705192677665,6.213685576995914,4.006249765020845,5.542362587822988
14.89581359304473,48.245921828205574,11.056025786433045,7.759853473394007,13.618133163069508,12.741115550548937
38.1460587400546,40.73223475404609,21.36493136191957,12.799495774588216,46.869588347842914,33.08716601965722
35.67162626137302,12.892424772161165,15.836627300626755,13.279074971802165,56.825186944534714,41.39519497192817
9.418537814118974,9.199682457369548,24.238323984649856,4.093803026990864,19.127575335832503,14.38698707641516
6.590427832424162,5.522272641061354,29.82941948088133,3.537130458967321,10.36477444779413,10.220200331229591
18.041691847104705,38.15210292587972,36.88646441250007,9.306173926325723,6.653600664973561,9.103217930550178
19.915015648392416,53.44020758990884,150.4029625836549,13.020099589646959,20.401521618207987,8.832174323593646
11.76133258677929,36.78024644340148,76.14359546044346,9.62039063689118,20.59435361329383,6.692991969047791
20.390494478084314,14.119175680691914,36.812144873611985,8.002122045945304,17.351493656669735,1.9491044227955245
2.6028380430765057,20.232895617326076,16.70054899333086,5.808146756562591,10.342622246646476,8.155753016501363
23.192442768873306,4.079988885631862,23.608628825353914,3.1714622570940745,16.59253658777131,3.9853713870002054
34.48371056023606,23.149277947170116,52.810868400335366,14.472938035401345,39.8774667501112,33.9064447350577
26.489013914455377,3.2838749008322696,12.376787601285864,3.6506830365596974,16.32552144201579,6.204373973037878
8.41225764281519,19.66523498877326,5.715722182142298,8.495210067038977,5.991462550084894,5.202687485861539
5.376399176814377,13.67206826737894,16.698108403528558,10.817905301389057,3.163146060219878,2.850465381919155
21.485188573424907,2.2813768042230773,10.828350010943941,2.662457793309724,13.608316963972838,3.953455250768418
26.118295706937847,30.45570206701748,59.50629129628388,20.55804773949534,19.545529827959157,5.137794937807948
6.346648584497589,9.649973483239503,11.355332238957583,7.173172443212001,3.332933613669693,4.936175730282022
5.776057470902561,4.558724449756634,10.103354091710843,4.464236666277908,10.872333896111245,3.4204081710722756
34.85802612958471,14.622608918505907,2.698667263237895,6.4389217077574195,29.35170405937707,5.13394664693667
27.12998181529582,18.43505375456342,8.32923192487277,8.49587068219896,33.79922761870707,2.7100879337710038
37.54078963057366,25.029051263548006,15.400150051180246,9.377392114081756,35.68123684171729,7.856049980644442
3.401857399241088,2.9967275654415455,14.195813344612267,3.3397894485960067,4.300972248714158,1.3367749600446417
8.088134128702816,4.846318015778405,15.055677510514988,9.594479962717834,5.495634589138985,4.483395683282527
8.001830748118122,10.342458932968096,3.971064475192817,16.923956099931377,10.060980344375064,3.7858652156167025
5.224115994902314,10.03020867240732,7.59611726204347,12.01667706002742,5.1274001255306905,3.1788684543054364
2.9287770874555505,13.6382085216431,11.53256192104865,10.101730423280474,5.981067231800356,4.312048151059374
5.940988622601039,5.527332631228437,5.527633004805942,7.06664088640057,8.997913010766943,4.131407358082853
4.621351981325761,1.13244264127766,4.292741870353155,1.358313750634697,5.549411882130285,4.788507663487819
10.985181310784618,4.497116204867121,6.364803092798256,3.579213002182646,12.941573754396709,9.996421852491194
19.82333249020081,10.232701336663524,2.2201200582001492,3.027519340388589,19.144600257444857,20.031008646317606
7.051800958687135,2.559108013834658,8.417020127122582,4.048087082138541,12.728877610250176,10.75314750436261
3.3046716350194845,5.870871496358405,3.74095027783811,2.8405165243079242,3.0286208430167365,3.7483341662067517
5.960674680939424,4.974855784097307,11.470486092855642,9.96762053860896,6.597631176839057,4.708077313047104
6.026211258934667,3.046873890378599,3.285702732477259,6.257357536375479,4.807804645900618,1.7971890924153087
7.374573757822037,12.056905843948892,3.8119153575282403,16.21634784321184,9.360782593057188,2.4791787432978865
11.450307118957701,3.5543758351992976,4.333671298216873,9.438322341035894,3.919368671450926,5.056441450565409
2.981406437808815,1.5023272343608964,5.781174435540482,1.9209817772948352,2.1105906713413765,2.8892555951108254
18.497022472165817,2.966408076428087,5.745591153306683,2.7530178868494355,9.564195539985601,10.928540079785156
8.942646733504876,3.8921368170082355,5.897949978036021,1.604074352289106,4.620720132600774,4.556603408822041
18.11853463099416,2.1489889577441983,4.8265719629340245,4.278953244415063,4.543048857266429,5.743988226576484
7.8191252929274535,1.6865629161988478,5.0016080386503505,2.162753767702395,0.7590816549420417,1.593803404870298
8.21849158187139,1.2364142180868654,5.559205324486089,3.6129930167988284,2.8554220902450016,1.3545522169540487
12.665500699851327,7.715139473366882,6.64694037693874,3.9068819738282543,4.309362520877848,3.0601644920760145
10.063373763635695,6.518000917670871,7.934535138339856,3.775203985928609,7.284909922706308,3.225278655114681
6.794314158214954,7.29723780897042,1.8649965583610335,5.853488757860382,5.599177942888993,4.841931280469627
3.8494155041578324,5.019780164188056,4.81928087212216,3.7547076596480955,3.1123929042891456,4.525302870005399
14.143003122481552,4.357066705657581,1.6537437706850302,2.1936605236331923,4.063050157856643,4.169151336283661
16.965401791621996,4.520607094597485,5.083075648780984,1.1786792367280534,3.566972218125068,7.697007864732773
6.909934051699263,3.9611674434090234,4.3948379923376395,1.9670043551811727,2.933521355971844,10.336447514198712
7.718325315149857,4.400788195491375,3.3530202251645167,1.9157092477533868,3.0242470003929682,4.848910816760233
5.741566800064153,2.1267675558541135,4.183111076572474,2.7507310835473393,0.8762656677569587,2.7182783096355903
1.7695481726726736,1.9630698336481396,0.27861013952373803,1.719208922412216,3.462388743091804,0.7107376932600864
3.467557701504889,1.1101831446733454,4.768728848890461,1.018186084252907,0.8812380407755149,1.3668070484441623
5.289069987769913,0.7903658646919914,9.807925657554753,5.5132486116990504,5.621536995291361,3.893855028409075
1.3953045097058487,2.886362866601662,2.9504102616894903,2.7102343911417863,1.6786919241926512,1.687243731442244
2.9944782334278557,3.341985820277754,4.947250840141354,0.4916729096656641,1.3488092532351976,1.6441791789583067
8.347923793607398,4.834306631863962,1.7384729485469912,1.0703526373988355,6.252784598043179,2.6253305103117643
2.3396555482447967,3.656592863674692,1.6371323350196072,1.9529495081436385,0.5578351074239803,1.6619478789890831
3.9844206172952292,3.630302068235997,5.460884078042538,2.981064002638209,2.9416708966804683,3.5012249300372464
13.056847897088055,3.4349583112880326,6.879660097697214,2.2236398996546467,2.932797986301084,0.6003058374145543
4.174942376314506,1.403287409343234,2.0675570160003485,0.9814365644069842,1.6200872333715575,1.3894751326267711
6.710556411259251,1.5842965025230367,5.090208099921982,2.971055211598282,1.4407410491266481,0.7380307156288753
4.42241819852453,0.7796710574674321,0.6908605356611034,2.2784983474914293,3.227313911546896,1.5442480685141646
3.6834018041066168,2.2008487865529127,2.4844948215970564,2.319088194481816,0.7218878683937622,2.7951182357945585
2.16212011482436,2.5919600846143926,2.7366685382973297,2.2237001039332656,1.4793908329407375,1.2697103237595426
5.545301352716757,1.9674072537274723,1.6349931943989486,1.7535185900831498,2.5733093580434274,0.4434589773716045
8.713741906556082,2.6995000269507337,1.5642807399543053,0.7106983576617686,4.043738988893598,0.7248743560867458
2.0855414547864704,1.9487469720894446,3.214679724297734,1.0964237403370487,2.5837068749788186,3.2751028790729406
1.9690488313197818,2.3137649421610895,1.9275755798350824,1.0414081136216817,1.0077125282323514,0.7987756320254696
2.469535097770153,1.195342705068575,3.086040713500692,1.3197210128779917,0.7663157028704001,1.5474993471699747
2.812529512933899,1.6260212887233985,0.23326554069968508,0.687700785852548,1.638283525848082,1.2779542143227103
1.5459192290093007,1.6911368027637224,3.559200574786603,0.33630103812459716,1.278593159295812,2.199843664249437
1.212808735782979,0.6613020381621537,2.613429303002457,1.4215229990765754,1.5969914018448332,0.5864720357127821
2.6584376179871776,1.3001511922516975,1.5137108896835754,0.3667760882674554,1.3665564073559118,0.8594524054140008
5.185263271288363,2.3176531250858248,1.3184540441365329,0.9294349079395913,0.6592844026900287,0.3101136620186069
6.397392488895622,2.2918101810604563,0.8184951157056426,0.6514044088654858,2.374718688197748,0.7529169902221846
1.4184379166483698,0.5068760102913787,1.3957057930015828,1.0593326687637374,1.047141491159827,0.5903602294420246
1.7249414417407227,1.6301236767033616,1.5306398621095592,1.0781055961335786,0.3599659932174775,0.2952311113708169
2.1678787114769897,1.3397569894826853,2.185995902948078,0.2321821615475582,0.11373211708052892,1.0224754153488742
1.651109214314831,0.6971768297850188,1.2294680386673098,1.5330977591899178,1.1022269440989922,1.431603145108766
2.0208905850004357,1.1360497215040775,2.6056405506323426,1.4686349442958757,0.7338539355926949,1.7464225630097403
0.6318322239301235,1.065711634306563,1.5472980480156575,0.8379999151335082,0.6926377901976254,1.089444382787042
1.4957056620340705,0.5789308457338026,1.6477298398932338,1.019381062675133,0.880412077677079,0.7052222587070599
3.0373687389669244,0.6901924976341434,2.752590314161508,0.7057882460340568,1.1531273528573058,0.9865092102950016
3.257080089746899,1.3749384035334282,1.93005682718759,0.522112122736347,0.9137128648176832,1.0529629867695531
4.903235069889843,1.9206182019528082,2.185304609289502,1.4044751462875764,1.227410817787273,1.2459819796189084
2.2952347452977024,2.695988475392011,1.1355266704392704,1.3079924531681528,0.3925213705456054,0.8239411919924485
2.383580439976624,0.5121190857343922,1.8342189292607871,1.1046396754307988,0.6727868454871009,0.14516224579964246
1.9547999404839214,1.7919001229806844,1.4357524535678736,0.6228812286363324,0.22985108790993672,0.561775757618427
2.12937249437821,0.9783317544660493,1.5759641684561192,0.8950232074407355,0.9289924557880387,1.0278368843183296
