Gx,Gy,Gz,Ax,Ay,Az
2.988907000000001,2.655394000000005,0.22409100000000115,17.222,401.058,22.704
1.8571867292172473,2.739305007351017,1.6243646068703668,1.594569258434749,5.388300835178489,2.34766447667622
5.522230506092575,10.380254500756095,3.2668571069354972,0.8867849889520146,5.633158515931432,2.3623416171863862
11.426939683119807,19.22665994648988,6.368886469094494,1.3349107534751183,6.802348689277153,3.3764734250104333
21.255670258840006,46.99029035461107,34.92755372975746,3.2042819003327048,8.133474895626797,2.276305450555064
9.627385820850195,18.77214852167031,23.124946769662948,5.8190727112755845,11.616837285566936,6.647415526062245
0.9813217430133516,29.964670441784797,7.09903714845549,5.125779587022297,12.968959330113947,6.031009158798513
2.620478949121612,10.22219501030609,1.4567978626659854,3.045471241725462,22.142083602850327,8.242446981281462
9.97801681854635,5.860789779043457,1.5024443064356265,2.8970044797608003,40.82925137335208,15.109605147740742
18.803037257990628,6.721006987391527,9.767581477881782,1.5244995915649702,83.59072280815026,39.379677974797865
4.756347590499348,9.03010901306214,6.466714541901545,1.382094361135826,12.645918608641585,7.028920950992924
5.301614581406074,5.543256237052295,7.55656144790528,2.0297166391885777,5.809353719033725,5.0511410639933
2.240337507047929,9.799470107993166,9.981986931938343,4.109410678704082,0.8553390341528643,5.379383974662307
7.652875813160654,117.81446946679691,52.28714759323506,47.42293630245213,10.308341437091366,4.784387105408941
2.2594892450521966,25.71177382092704,13.853886935842068,10.529618067729993,4.789051126716466,1.2926495785949204
8.404635051244806,3.161491482866674,4.231021085982617,4.75611520574603,2.1692548140497623,5.163020593747635
10.748243529168654,5.0155669744144555,2.9852345032840755,1.9735702735868017,6.30887877198975,7.606306531070667
18.813329000037864,13.956100671907203,6.058384872231584,6.5634628403941955,4.316930025919101,22.639059193656852
22.926404494296914,6.898534187886807,11.999724124325354,4.604769509645266,8.508110424873234,22.818174230335547
3.235109167680783,13.096059509177685,7.469262091920769,8.289440879803132,2.7300845062861163,5.338890932826599
4.785102112786999,7.495055608175068,4.4942486442045775,8.19104283278565,1.3095778254998978,5.149715765480983
4.716807607731131,9.152687127226823,8.044943350635442,6.766118311880113,2.2690548565700883,4.251893999353806
26.928780424454914,27.030806761037425,21.19485939839358,32.28233485231345,6.665685619277009,10.450264773415354
3.5216833001329033,7.997111411050184,8.165217978830851,3.044587202950912,1.5101117987202755,3.348658258698228
7.131467320384248,2.4693651009050126,6.609235263779624,3.9734103191920673,1.226959486329664,5.077255915118778
8.644392055099264,9.860188549449413,2.709105063694025,1.7268554723027687,6.714194254326743,3.9828388967332673
21.63070930514563,14.43579087957102,3.9128130475017273,10.58011280288769,29.274383823058095,17.957845798065417
3.283372105289971,13.465114407814736,8.42320429465127,1.8716950892048725,7.586324171036696,8.394079584695818
3.447388579368793,7.49097149210325,4.439266247453303,3.530766345187427,3.9967002655695985,3.4531285887542604
5.000192273046,10.158965538314767,11.87572821862015,7.417933555897872,6.228136399408593,1.817114400549438
6.054606936403773,17.789316360647433,11.46682703535321,15.22429722991995,7.292201353901159,0.4971235948575743
12.741929042155437,21.953551996554037,14.658268533798196,17.384628359444367,14.272570159116286,6.782904842037346
8.537452292640282,2.035689512572476,2.9289563874819327,2.4658127148355726,7.629794699859685,4.786242495436809
9.504750202561144,5.248628087229738,3.1556930780792523,2.8791668409198636,9.999884605634334,5.7255597246313075
5.011357779290876,1.562458523082665,4.03535778115776,2.3676428414618487,3.190504139930697,5.526254186825767
45.26688585399187,3.5596117118681754,3.824413789870854,5.890741514436103,33.971397053984205,8.671100354745633
8.803644437751112,3.704585531820292,2.7714071008222265,3.622732739958247,7.381471110915673,3.1447840552218636
1.586594413935661,6.387172436678783,2.824957711161093,3.8113710894117716,4.214005428087697,2.477017097969391
0.8322168697082245,6.927213507022192,5.79037776246449,7.972403874833559,6.52074068778973,0.6745226264424105
3.4809963109961286,7.9678162177235805,18.40382895288147,11.783754075975509,8.729089319112866,3.2211600334753236
6.1766785936872495,7.316114896007942,10.31490109710254,6.835167251095305,5.879118655995786,4.16264459369103
11.65730501720074,1.8578433867486746,1.1869949480840638,0.5587257864343022,7.420662458111121,3.4039644930367468
19.527278889103975,0.5204767445722867,1.0427334763185054,0.4186536741784772,13.36555623365727,5.827837076880597
22.380539803741264,7.156940509558559,4.181379208509696,1.3028375727804178,14.71750431033347,5.879317635803624
41.3460856387951,4.92940755117015,5.951225222686803,4.806380793506021,27.66806478383989,8.135211005778602
7.784657745629637,1.9713334038290105,4.601997583968979,3.5221759830803996,4.7163452966777415,2.6393857187623393
7.206515571847156,7.574642708185212,1.744754039720291,3.451300590685887,1.9888782022109928,1.6305106430277885
7.064730535096665,2.3055039246517874,2.548643027665813,3.547456488580541,6.727067662614807,1.0809802009932006
14.675789985949077,16.965799412315,13.757208138889474,10.512369071315149,17.188558256013835,8.93442026504575
2.918459831361725,7.157106166907692,2.8619415440598632,2.603676872036716,1.0651434106706965,2.924896098459954
5.525191748339884,0.6951179216184927,1.3674861981574749,0.43923383805967664,2.349214326789045,1.8221380714980029
16.964612567261888,4.61231742068198,1.3715829114144427,1.1213641747485708,3.4124588939358302,4.7654889925850945
31.305480564081115,1.6839972656825943,1.7204982202927879,2.5316957325034637,10.673823809295568,8.529409307238401
26.35958086860642,6.566538111301548,1.881603145307933,3.2564526514352363,12.274980507524472,7.247332318924358
9.046695458806724,4.81352892653115,1.6926901493589455,2.965228383581827,1.639514844309706,3.46830622169518
2.582685563232205,7.702826570349431,1.2457562033303526,2.435783045886374,2.481542817195216,2.687774928523193
6.476608564661251,1.7194462153928913,1.612428121547472,3.1059854979296437,2.5171221926022205,1.7399629759736728
19.97702231667446,18.179109239574704,5.383808603539315,6.227665102568598,10.919355333558862,9.766443229721746
4.120660014848285,6.183188719073954,2.442617955119637,2.277016073645297,3.600649533833728,1.485428488620992
5.546426861210158,3.679286461075566,1.7608484020162152,2.111223203988457,1.838912378091471,2.47603109984469
9.79261476670987,4.766144630339384,0.5656900957142936,1.4900787042028334,1.0733300923752824,4.030936734826704
29.36985103678102,5.766145678252486,3.231290280085987,4.1942885591896335,8.504894766035237,11.63959783062423
16.53506715985177,4.910796401214999,1.9939418070204886,0.6370231065834884,5.534495137526031,6.674005118599265
10.465428707664943,2.927980686699639,1.647459532971231,1.5283579554456264,0.8751345778834838,3.8806162205322257
8.305939477005264,6.5478673056884675,1.743394430352682,3.3314329229860697,1.4724560066535473,4.849269075946572
8.781798963416074,4.870874449665902,1.0962240862719406,4.142598708638302,2.6370056713473993,4.559634740709371
13.333805702814434,16.380596804265455,4.592856254754054,4.017975605576556,3.546457586333831,7.609090503935194
7.398835182388247,2.713753041712524,2.18661768357558,1.3006872112056715,4.198952358919191,3.058969983341888
10.679307801979386,2.6550074644137984,2.8627796210134724,2.277925617006127,5.301640975542519,4.505742840089492
1.2714106051455625,4.524566710855616,0.3564220671278803,2.1000399206701337,3.588649076748762,1.7394796026290067
20.763980485192725,9.368359644403467,2.7220565835437873,2.6465984006001815,8.237896155715315,9.33330212041059
10.954126163258044,4.049915734082983,2.287988110859921,1.6380446975254823,6.063341775995661,4.7024510990450885
6.038622981214625,0.7390876160660994,1.4687009677050673,0.9279915357780424,0.9110482553444315,2.5186065955911587
8.670465801355636,4.884894688386706,1.83267215638672,1.6318865199863093,1.872826648420881,4.509866980383877
16.559550502387026,9.253720089644052,1.1526110286196334,4.107238790352613,6.22548546061279,7.635004030736341
6.324135057153899,10.822125646817163,3.6868397605645087,2.4379448320634496,2.249251914151312,4.054661907589367
3.4027629736193328,2.3448879239744898,1.3738047174705454,0.9051730876754075,1.595368778576958,0.8995398032370693
8.473257545957145,2.8474070875308235,2.1095108386962984,1.6888875655146602,5.0069967139937335,1.8818492432400347
6.882015470631666,2.210936116475513,0.9532602600915011,1.3898133078622235,5.752893504582153,3.3960938067638344
14.175721226241748,8.518712571054317,2.0884961239420528,1.7408236325875266,6.299432714397166,5.5178807769654945
8.040822299899368,2.1587235338426787,1.0873098259107448,1.1681961987812401,6.666671061375918,3.065110533556265
2.4528250245419194,3.3015978935907473,1.242868760514046,1.4014863049558044,2.998727411657963,1.9155957531255683
4.298323677112106,0.5133100772082859,1.3647059162401836,0.11114638353899144,0.8197020958038032,1.2193288773902895
12.875341868444725,6.842778067187471,1.9670512152029938,2.9369674090480733,7.0059968331483145,5.870196055077651
3.9192277276455503,5.211003778691937,3.483739369218855,1.7736602014776293,2.6531245914033375,1.5400805131804822
2.487605218629654,4.021399030151789,0.7444495818873711,1.2941640809392416,0.8878335404267427,1.2918708612169523
2.4238149982195405,1.6840087071848542,1.1351732226942397,1.0638349839314514,1.655162327253107,0.4266763357503535
5.617487413059097,2.5366194259145884,2.041248504900328,0.3751003162575816,4.11228502597523,2.217658904069716
9.592747412780463,5.365785606110325,1.4104406961807023,0.9437162992632082,4.219005889248172,3.3127302741954607
5.191915766041536,1.4355671861426205,0.3699053870385529,1.3571905551117214,4.599824653489866,0.9581979497542303
4.98377703124195,2.0740786520103316,1.1663518535004715,1.6328224061979137,4.198540116850165,1.8079352288836732
2.554837525975664,1.9314727493022328,0.7363066488602679,0.8726266787126719,3.1430775453529485,0.40073641524304454
9.957747371661345,5.823255374014068,1.894876377504367,2.1182764184463685,3.444353056076197,3.37532652534361
2.5947642025898334,2.022477116424338,1.484914553061442,1.3468539698201922,2.7233089479779444,0.6367340226508263
2.5926594899963207,1.6214812666439349,1.0821948442819733,0.8402502773377821,1.2857763357463605,2.1430973884862135
1.9433997039387423,2.379016379790004,0.3598127292307231,0.7569065967062896,0.43548288402674157,1.034119155532324
2.1088054393757893,5.346130349571492,1.3475195624139216,0.44574703978098357,2.353780878745945,1.0672126717700463
2.757073661644109,3.04217590052943,0.13693760626892268,1.1049807746912683,3.2014466526652328,1.6217942579614177
2.012041497811973,1.1092390920129769,0.5665286356294591,0.8052264338389485,1.6793700349606968,0.6702312156707311
