Gx,Gy,Gz,Ax,Ay,Az
2.3489069999999996,6.140995999999999,2.3858860000000006,64.97800000000001,529.9019999999999,0.5839999999999991
3.0919070351889535,4.51999190803977,6.880320586999383,1.589221394990287,0.7381693172639565,1.9035278643654825
6.403649532318694,19.46845121619892,6.9712531121063,2.347620805086281,2.788596802047909,0.8660385088385082
1.8702798622630223,41.80037113173694,9.902204702689962,0.934556203247877,1.3506892400833808,3.3149253472359104
15.513344964083096,86.77562598830015,24.013438834026633,2.287654423390045,0.7553861335720741,2.8315052718128118
9.819505375611703,155.56997853694833,34.05022527781131,7.0160653040329395,0.21614442516493468,7.051108538523926
0.7138082275996369,25.465657061881526,10.76045243331742,0.8889182790684503,3.377964827260434,6.849895421843895
3.847959942371032,28.90369212243404,2.442986028444967,3.6362069251505784,5.2276385072878,6.958555693451802
15.7491090780722,23.63618349013052,9.756129392282142,0.2941579427968868,14.85311723986284,13.057660339670846
28.355006663805817,42.62432557096926,9.647040984981441,1.614379821237191,60.10374303482346,45.969653720638235
17.10740403971338,6.77379682478481,11.766545459800534,4.725154557862703,28.321390800652217,24.480261526059774
3.346111125563224,22.703748843290974,9.749731524287778,3.3296891784262983,6.090568292262774,6.206297991381601
8.082011608024672,14.028335484568819,1.9558048578246428,1.2786600081017647,4.5604719140280245,2.7443489284180536
2.1129665708402126,10.410732598187568,13.279496090550749,1.368139550711042,5.742381790823557,2.926949590182611
19.37756927981736,66.02654846872575,67.95552888485487,26.324281182613696,9.833744346920785,6.8100305477105945
7.161736970805718,20.17573035951486,9.461855902123796,9.299945091295436,3.7425541571984002,8.182403314258435
5.6611716293630705,13.242612541403409,4.938489246382098,2.5466859149892516,2.354978327573236,8.150588380110287
4.779488603143792,23.68516097339419,7.809968799637047,6.06846139358294,5.526192595405811,11.207525543537757
7.464289245743406,1.0234752190930978,6.26633715669092,2.2135064800488213,10.973758694040134,12.945438185975512
19.63633857112356,15.269191627071365,6.677356385046613,7.37717235349843,7.309583141062368,25.256019664696087
3.081045034508539,12.267791208177531,2.1273159826225174,5.608937986748328,2.450191297973442,4.402561773270822
3.1998843724282917,8.249290862701045,2.8138997465117828,2.115424974501427,1.2010215558165167,0.9929216288196737
5.336962168152745,10.809227169145187,5.089280356934337,5.860606970002064,1.7374020121957388,1.9484968167292114
6.674931019300027,24.14320732369441,6.839760407973966,22.09081622056724,1.5585018248002906,4.516566943593308
2.1569968347237043,9.154096960374074,7.658058989860541,10.94506418617309,3.1439113690946034,7.055840215094983
5.75264031112185,5.333822023217922,5.772742508249536,1.390991071151069,5.389915290375468,3.20556486579916
6.707217907982479,3.483389313381163,3.6786225001754866,2.039121801816037,9.136134168483329,3.914767141702218
2.9932712005280484,5.854423220652594,1.9253420445861935,1.6568352294792044,4.906364314910678,4.203262094813901
13.27985912577515,12.398045691151756,10.934959783445482,5.427998680106937,23.237391476503017,20.773971039895574
4.50962285611665,10.000488791049285,3.1020541765347445,6.41920112523356,10.158198375847817,5.793755844033829
5.2322688154028025,13.73660508637621,6.129248359733319,4.359450457958403,5.59884071307989,1.9285907262600783
2.0078723606509468,7.617160092138083,6.502920946855251,8.842337784996149,1.6803623312712124,3.0146520874732006
2.6773626833732918,6.786490658983831,8.564340572671366,6.632476117343407,3.55565563422823,3.267607054083909
3.344548188432014,25.568126291858274,13.827522824308067,20.665231402432372,5.971074731477082,4.188419751383639
2.715471806317011,6.206706785124098,5.583977761988558,6.50860355553343,1.723036173307531,1.2664124482282717
1.7385534599104648,3.5887014170185876,5.823756569523188,7.736364036280992,3.6565045454808422,1.1564856130168781
7.393442364189465,7.294130713921531,0.7335970821799275,5.069273156123589,10.559579256962815,4.848251940600413
13.041746696710499,8.87404854368084,4.643397390973703,2.1513817535563926,18.725887783799305,12.323652458887311
10.969247850881507,7.649749763650169,2.4704270534481036,3.6142716704620974,6.151846086445688,7.07327333171363
4.891885086800221,2.477156148815914,2.8399804081120235,1.718648950625031,9.065197391894332,3.674050621311301
3.9830182981744984,6.699992609568621,7.248259525800886,3.022712951346333,1.526865868175459,2.9425285013389515
0.5929053152741246,7.421989458217246,6.792751661335777,3.2319318806047654,3.7797622190194566,1.415752326510157
6.268870979764997,5.149726512694997,8.963638991767573,3.4732974206672336,4.532165343789817,2.4180600726878274
1.4921521834048308,2.534710009457661,2.800957709361799,2.4527759219746184,6.869157068756368,2.9718712066819695
2.3357302121612227,1.5630567928944459,4.31748650981976,2.188594394052108,9.839146177856106,4.3973953845174085
4.411502477435424,6.5101889497884455,6.0806332439988795,3.140954395372633,19.94164312128333,7.0974591892161945
4.453748229240202,4.011856454223582,1.8698739845897365,3.1010084127941897,14.42731263433593,4.762184712814118
6.6405567614989485,3.3719190844540945,5.395786659880202,4.90737283528079,17.648996276111586,8.879421902233334
5.652763931976433,4.997119835038737,5.255151070976931,5.37956621653514,11.519347605064874,3.345594307211183
2.125732576975161,3.0654012703914124,4.183878348521209,2.354921161133482,1.85956850710291,0.8594129529702093
3.9603575084289515,7.8398307437505474,6.2546185140733925,0.9042702317830861,5.25537482074367,1.590711765659066
3.550483804814421,7.596949277602004,6.382321825577468,4.416590929231743,1.56582342541266,4.054293652168664
3.2187968490847236,8.686269175450702,3.995046260140749,4.933518081489796,11.778473248439763,2.6239381863327083
1.9545996152542964,8.121443965683115,4.51100282262191,3.78546034450695,8.503601646721558,4.585222947483146
2.0424989837309115,4.353443165043388,2.4812008315983354,2.332077649763961,12.997145488968894,5.317417628570829
2.8738575756599567,4.091029732685398,1.7056418011986725,1.7623106566626876,11.996681140134601,4.557312133823338
4.234663546434221,5.199090128048098,3.3514067696174896,2.734792096600804,15.100690747490093,7.86424043709736
3.0298261179428225,4.3326486912619195,4.54718882912348,1.3886442682775468,10.342328471225672,6.494841516927447
1.2343908427670884,3.1756374348826726,1.4232831195160858,0.19290853023136192,5.729079332023674,2.2917211910369653
4.115050253722935,3.8214652626277292,1.5165200604640097,3.194431688098823,4.305365272041795,3.3447127266279932
1.4273577444188266,8.126582849558284,1.703442940760866,5.27089011702068,4.346602937236745,2.185564863596187
1.6854765101567397,4.518869078719312,2.913946989705622,4.930126371835636,5.064622321764451,0.4450241958050344
1.275291967709813,5.847568941890809,2.089470842994608,4.4555428848698835,4.215750162445827,2.1093627021846078
2.180743261816111,3.545511656227351,4.246265449077124,2.2528578557048777,1.3864863207061733,2.3229607657696025
3.897703313924877,7.7539359592593255,0.8886314036418523,2.6501260074318487,2.3424202796020857,4.146367987638726
1.876378271483861,2.7826883455153477,4.138675174161234,0.9300341125280817,4.930829452613742,1.8339265472119808
4.697033108303396,5.272768107216784,4.373704718523769,4.6420359461747305,4.315872059878397,3.2540767792586984
2.6083556993514674,2.353541684335578,2.037028209276573,2.8775798352061686,2.225699597262639,1.415552408531221
2.566597580846649,5.43767074699693,1.9243953435198358,1.4760951231946446,2.016101678368654,3.3294401516201537
0.5067112835440533,6.397198108173752,4.198556627108537,3.0211278957313144,3.3758936354777576,0.867668648737428
1.8420576755264604,0.3645510451130594,1.3006508072830747,1.7072323323919207,4.726840691058661,1.240733605328084
0.12066498666050779,1.7194792787495772,2.2702931703744254,0.6360522014758664,1.0834997221325642,2.5697560289239973
1.0284359261675777,2.766275081416425,4.566784756089442,2.181570709027512,1.835635886046195,1.2687706551933053
2.876143958142693,2.1355617495273442,4.265292686808755,1.9562561034324804,4.266888203837074,1.875065021022792
1.2823836173238188,1.141454239402677,2.4857002981049576,1.3973739726277956,3.1604135651926293,1.3449028017508038
3.7178984909104367,5.291505354875935,4.69718110940223,0.2977197055898539,2.425910548560953,2.4145880469336274
1.816869385821178,1.4175800379834564,2.839233432043734,1.8788929798750027,4.094231709829713,3.7301685964673448
2.935570033180385,1.6648711247629437,1.8890271172066218,0.7641777209512965,3.134346643151786,2.87282555384295
3.235025302882715,3.1923975649112197,2.1784552118730773,0.9156596410958062,0.7119179455166692,1.8855403918177875
0.9581544966553313,4.088028441760637,2.0324968401839234,3.828631807453253,2.9532898257242453,0.59177121388852
2.575980804279263,1.539061650989559,1.1399489013815673,1.0879383804143252,2.6087336600366,2.297911872446396
2.5437180126703303,5.346986911258123,1.13734658933383,2.606309464352264,2.078187822369538,2.0729238360515647
2.9292519171135463,4.563001980020412,3.381490566035866,2.236949393455548,5.536169616420392,3.925153067783503
1.830625601931686,3.6071707561476263,1.3310039009086587,0.5431999147324763,2.5545098212941895,3.411947746970442
2.355782700392003,3.6849753279338446,3.3526067399804753,0.37225805395725486,2.6832625397109684,3.454383491296439
4.499993229601831,7.520562778396631,0.7357268519774516,2.313419850177737,3.6549498946712577,4.871939639865548
1.51192889754545,5.461000326752234,0.49198657179642585,0.6752688353537432,2.5760582291555463,4.4541858964349474
4.665666688209381,3.984679278482183,3.5478131723226887,3.59958097404126,1.6984941580583037,2.6788606356039404
1.7916308660939049,3.4434534339028344,2.884579197440846,1.3595283860756129,0.13684340088802055,1.1536434675852467
3.6235609853058417,3.2061509199434135,2.3253621517824685,0.7537956846927696,4.700055611944749,3.7659433680162517
2.090205684217528,2.7444639024788966,2.445102591460991,0.8806592485079715,1.6708655027029258,2.275586538106573
3.5021629175109,2.7059943037292284,1.4143441766951743,1.3434436362965125,3.1213687347708006,1.5776730581009197
4.8114351387064636,2.6023326233866024,0.6260159598437459,2.029094794829941,1.9930160418648948,3.426524504820132
1.8378272187739915,1.9697177755164634,0.11486028539763117,0.8771801731622986,1.1834850327114979,2.7114012386216064
6.133008927470704,4.606559431521388,2.089396697217625,2.33596459104068,2.65985646066567,5.1126062740783125
2.796966697541149,2.190366654763294,2.198275269733881,0.6706006129926368,2.68378792160426,4.592930841080374
7.308764677672754,0.5972071707013347,2.414201181163048,0.7430357814889391,0.3596944774308769,5.0337577247305285
1.5665143051591954,4.541747121908129,1.243380579759853,1.2336999646051827,1.365983259097896,1.6010872265835898
1.5648103770992303,1.9403112421443043,2.0687472903740955,1.469359753875904,3.4915259047443836,3.4585731289461252
