Gx,Gy,Gz,Ax,Ay,Az
1.653067999999999,5.575473999999998,0.277682,21.798000000000002,499.25800000000004,0.15599999999999825
5.480630533641574,9.30288788040803,3.2353610326211446,3.983768668405816,2.5058706354636535,4.63746391596681
7.638214967743842,5.320601415478946,2.0805347020244596,1.2025063386641905,0.3696396366887131,2.7115019673058574
7.526278988290925,1.8711096885298406,3.7232246862225447,0.5488659677195552,1.4246828502538094,2.5141531688205054
7.891812899167751,8.508198230908905,3.1574884472193276,1.3435114179575698,0.8686018873651915,2.0214901000282537
16.769369683902163,37.622092145516646,26.42711802512348,13.993621610258925,2.7755280139686827,4.09841430062971
9.109004957589034,7.172536282642026,4.5853654279085045,0.9726332606193462,2.278718538735989,1.0986240950853077
5.096973893342861,4.938994001907615,6.358573761234645,1.6356565333397732,2.687964976020281,2.944058941923694
9.894063069862694,9.275215626214813,1.211994954285297,2.051852215314343,5.671867138843159,4.921129749433928
3.0984066937720445,5.940353009335131,0.6303332395024607,2.5566978608859174,9.145393220731012,5.599619560268838
39.14017529394867,10.001618503657536,7.563782883816847,1.1347006513270947,60.258348774282666,38.772681346854334
8.535936749627425,14.36829897911603,3.5435579241173887,3.5366300713730556,9.829040929665853,7.810670720582726
10.913806641586069,3.306361099079159,6.200255775042984,1.5961073348436032,2.3692187993614766,4.777087920467776
6.414466610177958,20.649915810555594,4.8000651184410605,4.778919005907132,1.3963484169505667,2.2998696293319543
4.832508001978597,4.144518319640806,4.704804453399163,2.1039253490387395,1.7737627666785638,3.668669470687766
9.889105750103884,36.88201991817174,34.120765748705715,8.37705062150585,9.712409584325535,0.760533405360604
7.021969246475878,17.515416780101543,13.055868184954065,4.998884668924646,3.622924300506563,2.762160117556231
1.3239522717090253,12.759891278996072,5.076829063845325,2.562391444143053,1.5409863104884107,3.869229467544175
2.0407903488821972,8.768647096664317,2.3199007729172116,3.5049196073731896,3.039835575359979,3.412489543413381
2.2522042809846767,9.621229705055649,1.9291308401190663,2.7017943742910213,9.240617910533805,1.8883409615647229
13.75021702332253,2.617693152859176,2.0610068147587612,3.7274535641013222,14.792156482122012,15.434387134782826
9.648176052685123,8.623746989543834,3.8171149775800703,2.576631534431821,1.8990763335327365,7.004093340617916
5.086268076993352,12.350236483781158,2.732676617172021,5.418303569338585,1.7678303293157291,3.705395164431931
2.213683899410415,7.748791444550889,2.373724611181421,4.133255233341755,3.840501053496652,0.9677933804509044
5.154071619883407,8.556626531814608,1.8531015783109919,7.416064876391131,1.7250608322415817,1.67804294483729
8.652146313072562,24.078737997206932,2.501977054584433,14.76614848405922,6.37685348598546,0.9696262000916641
6.553298674299068,18.956819540748477,0.8490765897464485,13.008807056614415,1.5223464939458562,3.2690308772726637
4.887615373731438,14.972580005855212,2.6606709490848477,9.931616942733356,3.1876364761373996,2.4377213874015187
1.2027216584023745,10.017951051771675,2.0054232216439463,7.737630847387594,2.6165741151308484,1.2882455279149057
6.739472847599454,2.924737992246575,2.0318020877567635,2.1640100285719943,4.4944414316494,2.3135491012796026
3.6827015768948206,7.096588342731099,1.1082238307639607,8.710931952989856,13.68305277666511,8.368117311742187
9.287297994726636,11.211188601895955,2.5110456193885273,6.28619104562743,11.005186641146896,5.897264570844965
5.746013325471382,10.023641581594475,1.8677249110527259,7.806919303044524,6.734540682728138,2.5791502590655546
5.559290878516268,3.0009362343872894,0.6604503571261151,1.7772867692411447,5.582620248738195,0.9709317569385507
0.3119671466102728,4.014536912587202,1.7889885596917885,6.787574060207605,0.5399361617428777,2.29026186633682
6.666770539970648,2.6979687372605063,1.4377093989686027,3.546580838239147,7.913012314068706,2.378405960416353
4.106828611454655,8.321642128023402,4.638535733618697,12.109709478906979,3.2126079805957892,2.577598336390184
2.9853982943386113,3.57423702589272,2.0662731390022104,7.712317364046969,4.491282546909407,1.6147584141128641
2.790678847943939,4.780626497157695,2.854557564273694,2.4108350340894735,4.147836832084593,1.0191411398623833
6.218626100401279,0.43090494592314593,1.607287224106001,1.438801530548846,4.904705126400412,0.26428324840998585
1.9285509254774362,1.8049562208066372,1.9419168005107528,2.2827759449440905,7.998376766146618,4.868774122150692
4.676315017756435,5.112397882141214,7.361788393610567,2.9486674399613375,11.2740892716022,5.571314547470964
3.1124325330905442,4.600709242221415,0.9753883960604512,2.602013875722078,5.45720051054784,1.507820205392753
2.775326533717197,3.4671552735582125,2.141823289437506,1.8692413981435252,6.52102574967807,0.8776565550679313
0.9631687857150892,3.6738432786518582,1.541295284133066,2.5477488269897606,3.1000427780475115,2.0230865649076595
6.742415923593438,1.4903900567773012,3.2926972593664643,2.6814778555438625,8.84885009430593,0.2956111114456639
5.063382798402081,7.9950144570445065,7.7380710628623,8.008999657697377,5.407829613151192,2.373038623628099
2.3532735356047003,2.8483814634821965,1.9227557651656328,3.9883417683325524,3.855247307603119,1.6226962515623227
3.3796437028472717,2.1448554024596556,1.5592978706336538,2.158008481737674,4.780904565362856,1.5963774764262761
3.9842946925601126,0.42364207378360885,2.9161929685625374,1.4338032956101028,4.594609751545876,0.7507027794316039
2.309037959993162,1.835670981977691,2.101974133245666,2.2773929769788275,6.271541105277037,1.0699607908524833
6.146390981629519,3.5921459574973964,2.6340936319415302,2.097710523559007,11.28481698634534,1.031934694237334
2.9359230294782415,3.518935891866797,2.8856491852854185,1.564146032413264,2.457891272295476,0.6405862962466359
1.8269708356219707,1.6037505531853151,3.7616637393461523,1.6437661713802512,2.7671510588439157,1.4870832321391505
2.474732762228697,0.3779127345586034,1.7300001577566715,2.204031248655281,5.0583305654767665,2.2670571057341005
3.448528334149599,1.9582829836381668,2.287294181593501,1.6381908039303026,5.969843269340189,2.1016984827404626
0.9936609973333493,5.649492937549734,9.750289839816935,4.09602793832822,3.143547845313146,1.611440353857965
3.351759990528517,1.2962354762724306,1.6448729582980577,3.1216017996733543,4.615503927494809,0.14929784867222334
3.827980197176567,0.4938746474972804,1.0072977435009844,1.8553632447031203,5.538284370674391,1.7782244098229272
1.1681845862849476,2.0236279901912706,4.923171199542643,1.1777178363999519,2.0511472390668413,1.7218656359390951
0.8380809928641505,1.6897761722546387,3.4080163188346186,1.2040275529784277,4.259049778723394,0.9799250835678894
3.8505378245405226,3.612937640591233,0.8066164499541775,3.503466025465961,12.023351124708737,2.870146621059469
2.0961282625520066,1.9601321877996005,2.953075234537434,2.0248942779532375,2.4085523233731214,0.17311799713444626
0.6689087119356134,1.058443203099753,5.087629419246658,0.5310515145339259,0.9053039771702232,0.6388186789193239
1.59428428305941,0.2958121941346016,3.2993959626467526,1.4706192993596447,4.6610395896660375,2.2049990347658657
0.7574738916152643,1.2753712833333635,3.1766289699503476,2.018239742984744,3.2594355108476853,2.0981009064589564
2.186064824640015,3.5121633835325095,7.831144525900648,3.7603274071973694,0.44925416257078993,0.8003704464620067
3.240873198550474,1.108063429422887,0.7181507838391504,1.3409431327568304,3.4039613280412584,1.6618604892700144
4.2959115958472305,0.6038608453919496,1.6305835100210642,2.1050591004854895,5.106710555211595,2.7548576017595674
1.4516356407977073,1.9408147030782619,3.538262366250972,0.28465046080514733,1.9338372185973536,1.1755263118929247
0.3367103965785268,1.0349340099923556,0.779767848216991,1.252631868418752,2.253432044396149,0.8383982444182432
0.9160921192041802,0.8467883006492828,0.4307114708311295,1.4060388611765708,5.2390836632036,0.7078727526688049
2.5950980201599405,1.560529523739537,4.80283613658336,1.9346080204088236,2.1252865446909324,0.8382972746247337
0.3692408424816319,0.6262427704409456,5.1468841017612865,0.4710725832528474,1.9002354455166834,1.035131868610536
1.3736549121077821,0.41070155949015125,3.185548069473122,0.9419734721585379,2.541835231041964,1.8544044954498173
1.343233185921184,1.7152399525640452,1.3772383785866282,1.8682003831889036,1.669781107883826,0.7342028084567777
1.995104016018803,2.8631099031577745,5.116118377170561,4.061903262912326,1.249637442270857,0.07987659551496154
2.4307791555463947,2.2832623719635627,0.816808168083222,1.2545582606476977,3.685635915157646,2.009233688844064
2.1832031848038027,0.9211573972681817,2.3202365627775383,2.890855590558813,3.4239478787744533,2.037922496041826
2.221808920681679,1.3946822299422852,2.846436578202835,0.29342818639357915,1.0832038229539862,1.5591725095373659
0.7480104578234597,1.8283828443925187,0.896373234421183,1.1521911516317762,1.1744252653684448,0.03983785300065859
2.7851184182330972,1.4100062548211882,0.9629463573791571,0.5487307688186329,1.211961696220651,1.2694177863233176
3.9680395186119695,1.300551912944714,3.171329603839503,1.3143780102354936,1.8312972667179728,1.6666189787904713
1.197160743829769,1.3347398016945182,3.4854319097772395,0.21646597793643482,1.6645364519168533,1.624803856712301
0.44429979004824194,0.29260613510834477,2.1147459949201104,1.458863696119702,1.1315265354406647,1.258505790297886
1.780689489266242,1.290740714184765,0.33243317537997213,1.4511738007529962,1.1179314939794687,1.1151898023923372
2.0060382028699726,1.683688259350769,0.4445196675435982,3.3534043586175284,1.593416115371312,1.5732181316170892
1.4340852111629436,2.7107117650296155,1.0659824700500273,0.7431693934268601,3.0654495689225056,0.6949415144417418
1.8175124761247525,0.6500593713550219,1.6563508441928656,2.2275032345456784,2.30745695965902,0.9999952403196513
1.7735505438246646,0.5030029712552654,0.5784198307135066,0.3984681813907328,1.1572425188782893,0.8434011224350711
1.7997113936034097,0.8620344153203071,0.7353043720532523,0.3584396835704207,0.03693915853024487,0.4224657011787882
3.298103881978077,2.74911857419288,1.7740488346910996,0.4297037186760162,1.6262020173869058,1.6621583698250597
5.791985959543876,1.5046262049778754,1.538745741029457,0.8759223165021108,1.6010306614383258,1.6746217258637668
1.1007119998342763,1.7775343064687572,2.142034004228466,0.4488305205789821,0.9074255754862995,2.0670479715050316
1.2622166249604208,0.5742607203285122,0.8872740653822994,1.24557111671415,0.3628232723739723,0.2114543001341177
1.909624267456524,0.9952190886974778,0.390394927359167,0.5550532468610222,0.21181666666204582,0.8495933356181984
2.137403808112149,0.10603084472652548,0.9704370845170154,2.0656048856305946,1.865422509286101,1.6708656743319654
1.7743294411184536,1.5279347990797851,1.3962021055720593,1.4013013210974405,1.9128109882661803,0.9807356252581175
1.9362379637882436,0.27212368069073833,1.1887069238063093,1.5714692682319313,1.9274505709220862,0.2811485242091542
