Gx,Gy,Gz,Ax,Ay,Az
0.750869,8.982163,5.839146,96.84400000000001,688.278,283.226
1.8739049644194805,8.824277105785423,3.193379521422898,1.2115710352047824,0.34004818336977977,1.301598556959406
6.992579254179248,9.878694293111659,4.423051190291245,1.9200840126885776,1.2777437498894286,1.6132339612383688
7.387173371654422,27.958633538765476,13.068221437636911,1.370228137422231,1.4763229857426126,2.9180211112444345
5.6661014228331545,27.582955556580707,17.547254734889794,5.268221767967115,0.6488817444816334,0.6442913407002643
12.045585927890697,88.56633356380219,50.38310257271753,8.527163651839222,1.2227068960616192,1.3494196629660458
25.063468643963738,130.70168796691752,71.05124106610288,17.793514731029063,2.342787166783314,3.476855095032929
8.762048142470325,57.949922891958515,21.201702160997666,7.746575747286651,1.7965361652912728,2.8803190143535042
4.525942921871032,18.891675532219512,10.56372028277186,1.8960821738860305,3.5549055435750083,3.861835796723318
6.5925161284017495,29.29472670737187,12.883160905527495,2.297556203679992,3.559090348185189,6.573584882697757
7.348114548569731,11.065258217779483,3.7078115429236336,1.7851737495630804,5.862520393965697,7.931473753084885
58.21176093423685,20.081061916366277,26.114742062560495,12.902141515521851,26.43444823945243,54.10667921393413
7.973756566578752,13.107865789127427,6.724531288483384,1.7549440022692528,10.31858780463813,14.191242714712935
6.219951317788952,14.217447666341746,14.877998166120927,3.6421079862554326,2.334448145335426,5.197460025543375
4.593167803629878,21.6828769141679,26.452300940325763,6.500817115974786,3.550942225981824,1.0601663985015544
8.541852079455127,10.815016436182189,14.924056111795517,3.4443676355030926,1.5340759945269626,3.1381613505716475
10.259647057536437,16.65119543775043,38.90276206726319,4.789892103815115,5.343489995583644,2.9264007570371877
16.382852853818292,22.079585236870866,130.86625032067818,11.793439602096663,0.11321745864975456,4.893572562067865
7.279669672738501,4.1667729540700185,17.229187268963955,2.3897868322179043,2.7582606964712535,0.6606546788133681
15.382839113371404,6.5949411548986925,4.071568004437073,1.1728022294983615,9.164734899400102,2.1829753201925337
6.949850453179594,5.001454888372679,15.973453191196077,3.5871311355434874,10.564373683768645,6.162183496092224
11.03818103040324,7.74723404886263,4.456446191843319,4.0184016550865405,13.480579696829171,4.9678383601740475
15.368374872020897,21.357021524452083,10.268431562019686,4.224383581603018,41.26059503319731,10.44912862521178
6.772755589808889,5.971088448725588,11.047509431492909,4.9277721240475865,23.15810248425966,6.914428736286204
4.240221416982034,5.531734608345265,5.187291776307391,4.538124532501387,8.850582191823861,0.9897191158106236
9.270256321485407,15.185736945761182,4.662991547031668,6.532733765805687,2.16208912325309,0.8925927590092142
3.5715256823985997,6.315457870009533,1.7483056786019195,2.0341715191041763,3.0726683630597367,1.1602896770103688
4.038315220358917,10.92696682803796,9.23481723739922,4.306584991750817,4.480120467499227,1.517103043402687
20.365689331555366,50.56295882846403,17.737932977219952,27.73885676450732,12.082541368495416,1.5018790223122653
9.641103871116238,17.658118744789117,11.46608427880209,8.182225241082666,6.182163291658193,2.5446643692382263
4.1109298066567845,9.009333220842448,1.2678857349669521,6.755974741692617,10.073980496442246,3.9550551136648315
7.384963957036097,7.983825393576522,7.245357730744226,5.864053651538059,14.714268645969591,5.416991533704839
10.450031755997086,10.93224496959077,5.544990314698382,3.2602335961671693,13.136591305681312,4.656236559062861
18.50299242454355,13.883123615332625,10.362968575991278,10.744568511433751,34.7235967466782,5.867397553831735
17.108551960700833,18.637172208821603,20.648552497166534,3.543805176680394,43.10167421477669,10.820452089940156
3.868992361158057,4.879489922224249,6.127913693711284,4.053477130657339,6.003743248071878,1.2848566507675105
4.472255853278495,9.029250687387838,7.046537262295072,6.523373199021932,7.876487086517619,2.1331549071571856
1.1732873458431128,13.618980136800744,16.070961178670906,7.612242038865597,7.455236134373162,2.1250100542452564
2.0359594298298305,16.866251295038296,9.537087525430385,11.441820381383833,4.075842293656982,2.0171555415547333
7.302744165702251,29.64781125968606,19.535785211771042,16.678515670212725,8.673324969521024,2.7521308279958316
8.83007015201652,17.292421300335356,14.035328210880392,12.954314127229818,11.44948723323469,3.3663990834594864
2.3478727625475235,6.494394777361152,2.2522635137345346,7.524698647101313,9.04393751659546,5.542583669727031
4.000023675260161,12.504634717006438,13.203963210082728,2.64236071413312,13.739762258770261,6.375184561744445
3.997461210389475,4.424245146269815,6.612840203552363,2.051247473993722,6.9443357663432685,2.08694600660229
3.6163166883549205,4.469431986252453,1.7768948327862322,4.823938554020145,11.91808238266109,5.46802085490257
13.424194328427717,5.87056398594687,3.0778732750473603,9.86575008823526,28.796452452880413,19.311221739243717
1.9643351403448934,3.7120131154995524,5.543552089587868,2.556625914161682,4.066471607494266,1.8036727893372182
2.2175410360560344,7.6284044918570615,3.7590611112331103,3.599186439123194,7.119715952754993,1.52336215550023
4.131366057194219,12.499130078577656,2.0052873781928304,6.771935424688524,3.4816565428889508,3.0759408149125984
3.835832791044346,7.314181020395805,6.955677988848102,6.587233380817852,5.821902443871021,2.7387442730841878
5.975052462808001,20.00854643864487,18.53882758668104,8.427219888050603,12.330380961636456,4.165150382836144
8.069078005287503,24.783201368594366,12.136193196410069,13.984299013539351,2.6854685399509854,3.595504787412635
3.281858256206814,2.0912519755856085,0.7213321306071525,2.6150652637201373,5.372504416442091,3.0522245206973078
7.459409849165195,5.486761091690722,5.680561261808492,4.235717111387536,7.981280499627527,1.7283360768949154
2.838610065044874,4.739157128963228,3.2798929064758386,4.383785634255759,1.2157542988486396,0.39267003815002294
4.020193625080449,2.5288537162822378,3.9390525034220087,2.56577920145163,2.374626265571527,2.724356055118916
15.914424093184381,4.118469865139565,5.512420214098343,9.534198137631549,18.207668090009832,15.366130740820893
8.314888336601962,4.581064235269623,1.9676259886789094,0.7092149988666285,5.003861873329604,4.547716672313648
6.167959107930766,4.042311065315618,4.0591013054388645,5.8233029958198586,2.4647066931663515,1.2792830063766136
4.318664849941443,4.653704389982025,9.928252647258725,3.9925065775308615,0.8193813687148918,4.3066655027112954
2.9020991220337873,3.188252734440014,3.477767829322643,2.5573933681279013,1.4465161995124856,1.9949669491613622
9.093158155637695,8.385826793120325,13.453418132615568,13.788061668025872,0.8542404247762678,0.9334667191994451
11.625290542531443,12.642521396223126,16.214936302951013,12.547682293205487,8.866904142792023,1.0904954562716933
6.027658773726937,5.557204672985269,1.7203096249124596,4.0184466495016595,2.3490438877678774,2.5725180421269083
1.8792552735931276,3.114721751210142,6.100487191208086,3.865228741426216,1.5652978399682913,2.2730805327987222
5.00065029545341,2.6563085061668223,2.468192748095704,2.8963611787828873,4.252885707411609,1.3533479670130577
1.0322909652400347,0.8653491481120482,2.0102832228523577,1.7678922013424208,0.7786767272521923,0.5705996378021809
12.745211847778583,5.252344140776004,8.586855256856364,2.801749065090381,11.076455024673537,8.488112892277544
10.94834185136041,2.4871602075716277,5.868063776238291,2.9652941892701357,6.975109992480048,4.660122153399411
8.140375056101986,2.359530256702778,1.8025328953648427,3.8169002560899514,5.863322535631635,2.3560352353852254
3.824820802512343,0.7284830859264727,1.609180482321107,1.8958134883837676,1.890415803026253,3.866604905757895
1.0210652780578946,0.4633417636605919,1.5156707455486351,1.5459658129995895,1.0226672383423834,1.1770023577682773
3.88496559535202,3.0717606679880114,1.8319348410081324,2.3300288273592913,5.111009283223659,1.26275750707305
3.082726163398172,3.907166486741445,10.604168830675645,6.459521929509943,8.42357380020618,0.6541647778956861
2.9108233730550035,2.7753016727558397,3.0744053948859316,3.064624977353897,1.7202287975113377,1.1341396137960345
4.2613188488807054,0.31988599892273817,1.6120915524940378,1.4699124742217156,4.143601810171033,1.9782527012144657
6.060832918909255,1.375036481404584,1.7658048486439208,4.063329167356905,3.0788964616835983,1.9201069623115166
3.0713691881514937,1.6816062527692168,1.7457799035551156,2.634511947560473,2.2955713899629795,2.602226137712255
3.5479932269363545,1.987156337126981,6.132485387890892,1.7346527276492474,6.3824837693489425,4.858521262735696
5.0830721699572905,3.831779113496599,4.855901747009916,1.297762946525425,6.991932131262344,5.36568969457253
4.925032631212785,1.8380227397051188,3.5012719948397883,3.4196535059711866,1.304945836504421,0.6256535090096627
1.0171908429373315,0.9035917817411131,0.16631965541521837,2.7491298284300045,3.63404055383511,1.858378636783135
4.096770171265613,1.5660573620725071,2.4627539466518473,1.79831992973121,3.5014044155424364,0.7466499135444774
3.947298023861281,1.1289770058247206,0.6265111344518542,2.8066580348986165,3.9194936697791776,0.8022468050539583
4.132168839752898,2.3745502228740625,1.6461709358387644,9.017790157863345,3.7081918509028693,2.7353605477996643
3.697748074933464,1.7179456063149194,4.411358026010362,3.1780976569733963,1.879897476529434,1.2101050158993258
2.3426413326281783,2.35747359245148,1.0409812694011649,3.1356926715680467,2.3995680701629376,1.4980415408922614
6.969422761585127,1.164416279588067,2.5554823124342185,1.7865206570534942,7.178286687248286,0.8334895992045375
2.216698638390271,0.3332153857194983,3.490265040171019,1.521532818224625,1.1328279635443022,1.232040946423305
4.211293223474103,0.9738654600223702,0.8336385100049268,0.1168837193675585,1.9106477206525345,1.5990566145636655
11.996128080994366,2.475862926410672,4.94832967026562,3.309333045792726,8.996464569948587,1.0744084959667848
1.7420544994472729,0.84572871669326,2.4388592269690856,1.4685788111411866,0.4775915899408741,1.0993144729003481
2.2498036427857633,0.8975282001545701,1.2376949118114369,1.751882957019547,0.3605813275363522,1.5927877683637408
1.296966295335296,1.255307226974475,2.094289499410437,1.6254818331703238,0.7854731924382903,0.7875420971107544
3.9351499816552744,0.7655837639178587,1.293578596281454,1.2068234026956923,2.1861434692349633,1.2400271185925658
3.816517298064288,3.351502197731559,6.954105087991364,3.169850878099787,4.6388724358112965,2.0705958687631494
6.10191712104286,0.9877033740435683,5.650318886339779,1.120885274623513,3.171408533351848,1.2205103050440604
5.093644713947338,0.9515440739943242,2.5175642462688557,0.5636464462373185,3.2284552483043414,0.6773991660836004
2.958913281474717,0.3948818653303863,1.632753104305131,2.7948608068844925,0.5406781851254314,0.33196205608071083
1.8810427908964533,0.6922447908739715,0.8078148528921683,0.5218887436118728,1.3958763426533856,1.0923346070285682
1.501062623077006,1.0669416746731186,2.5021304035788665,1.2917253538932394,1.4416593409723288,0.7752642940271938
0.42480388442999445,3.4181744855655354,3.9009919314363346,3.855791929227388,7.0124141615407884,1.4557406917573585
0.4608198772663817,0.7847428087266441,0.5244193492479677,1.1109741320351392,3.3202372596078766,0.8635322131745048
2.9774727482134025,1.1951797584124058,1.0482244429207055,0.524725920621285,1.6803619781385726,0.41134148318650093
3.3951429651197422,0.1974818407023216,0.5802486224412334,0.5494601980410403,2.6631156920986916,0.2843217310007335
0.7966214695544082,1.5785923121629906,0.6926102971252346,0.4515009612339442,0.5099711398643831,0.9725445134346471
2.058986980481437,0.8839813095286612,1.2179131969558576,1.411612800809659,3.5988781147603777,0.4580941991182153
3.3796434150089874,1.5918283402637963,1.245223436770072,0.6466069110414743,3.7089656201723784,0.9181229013968233
1.0705337315130843,1.3039966977878077,1.1806416462917975,0.684689720176537,2.17480944774733,0.26362468302382375
2.7283701319621203,0.33018096136172675,1.4555068397660722,1.212436305449264,1.6213241021368268,0.7261669846281253
2.5479350042879534,0.35862132845950534,0.7233014699452087,0.3796081436463923,2.518982852598106,1.0854790941312045
1.5416665794656723,1.0605272614080956,1.6206994408549866,0.7626842721607016,0.6288028383098287,0.5527425439278483
6.000168686154533,0.8244228141376063,2.237509225151439,2.0947759703124094,5.008820363198817,1.3296914602467091
5.509775531958021,0.6885572184739395,1.5114207519811882,0.29197324219983595,3.4698891919341732,1.3239806345376446
2.0116563993339596,1.0006228921316975,1.1867098954502258,0.6612846054468019,2.2066618335717143,0.49595162636688356
2.6856982276970536,0.34489088682267505,0.9611747268469746,1.3694861364128623,3.456405758887595,0.2921488704285682
2.369737670039699,1.0924110538215597,1.0429767344886416,0.623175272842206,1.327324636676421,0.3697287200146319
1.5703248431974917,0.9081026867027461,2.180575752791939,0.62053963440481,0.23947293819655352,0.8974826851007135
7.950483350516608,1.3942881171557928,2.669483592300815,1.9248283851061132,4.267105439237279,0.31009659349461366
0.9898928745744232,1.444422106001449,0.25777139178182806,0.8393762295979148,0.7621014524596005,0.23909677292371498
