Gx,Gy,Gz,Ax,Ay,Az
11.375264000000001,21.819961,1.5690960000000005,11.771999999999998,567.9300000000001,20.950000000000003
7.920275487653042,19.221936926870004,2.925629747357894,2.584382863664464,3.1703389441667036,5.864383264178656
4.41031264265848,29.559741539098763,8.521052803812466,4.700873679522557,4.005887141520135,4.979322907537942
9.04093330163811,21.11669097500657,6.838917279086876,5.577960904775914,3.6856947763428543,1.8107245963484107
2.9633816194622136,46.82685909225805,11.305056185029867,5.068911548885579,2.52408801391584,2.3625161569898907
25.492239907829415,92.57726601184945,44.56625811385234,12.859557594858426,2.5937304297547596,4.230055667926321
9.470800280015125,110.37931767850301,13.960471773744889,12.105153371755875,6.869024322406762,2.8676610738716066
9.105047550820945,49.69774384202973,11.026697221296933,2.200486178115692,5.984624998191093,4.651695945492794
10.457139412937558,49.93505769978216,2.8590176486793553,5.702773916085762,10.419348491033087,8.938994132063534
18.96149645991872,32.878080471520796,7.529366879446432,3.4569363242430993,16.652576299031733,14.460317488077644
27.02522264247553,21.08971841244769,5.050976207295168,3.1884424182788083,25.60951196166732,20.560043039012744
67.11111510602298,37.85846137014738,15.855956491586193,1.9573439448190748,67.96695922093394,48.745868575539866
31.138898279035196,16.754885987185844,4.535143445793986,1.4273432443879028,35.1089527883646,22.671593973709218
1.0027476341377546,36.236066807010154,2.3097855044054945,2.2998603260100174,3.604185420919257,3.319622831697605
8.14080407379544,21.247282837868383,8.287566775773616,0.9111694101732272,7.5884926745348125,7.391889384262371
1.675543622871475,43.49231333245733,34.093305059400336,14.171717133028796,9.320340548003792,2.845290570841914
11.524115077578244,81.36780078380717,37.44887907798618,19.36451662956197,6.376927437762291,2.3366382796033647
15.915574581848452,68.90312581645334,43.126122874850466,22.214894523361988,3.8971205279648085,10.957783075751623
3.519359739104103,48.60608719425152,18.913002024473073,10.983266505124146,4.416694032824742,8.014386901391735
9.603361592048207,26.36329386515044,12.1652425377072,5.20322031388097,8.726712146212346,7.382810153321396
4.108490224284522,46.21788744766149,4.492668533634169,11.232303337487368,9.193056168076984,18.399206930899947
7.945944082973963,37.92793825953695,9.31247922448879,8.98027500208377,5.883586233202581,13.613582791445944
9.913713221110404,32.9696509108717,5.79862423586035,10.311434708130168,3.5122009822320015,12.977710163150949
18.031567201324325,19.039939326648696,8.25928579745978,13.257597538492515,7.913674219437152,24.046050302445533
9.62749625453004,15.926604658657352,1.2291583552693546,5.918070023965544,4.375807195793916,5.871500552515286
8.361741729805916,31.682802386668445,4.744968564808054,13.731349132444867,4.196399520033598,0.33711172671569317
13.927755426367472,46.05745530641187,15.447979362182217,24.364145111818697,6.784974467115633,5.7982205357197
11.706735419967401,32.21491050906633,1.9951939526005438,9.489561158668476,5.315513993719918,2.320397473441596
4.497520335027866,41.6399316296668,5.3032840005401525,18.987948938942818,4.996698898241899,9.119501074271044
2.9746355027222835,22.521043768162116,6.833355784147097,10.27398524644978,4.427668795045109,2.6745864079230848
4.55822774451008,13.99716508712872,10.006088541824138,10.650596308941076,5.509679863421145,10.822504388363917
14.025252486964751,17.555789034102986,2.542577050008924,9.507910921720352,13.957204999144762,16.1917782270128
2.5454805791604684,12.922141483740972,8.157622477717636,12.199865275575714,1.493485504248503,0.2001577577639224
3.95203147722792,21.731893652413902,5.879554898746033,6.947893877579907,7.256923807621916,10.591826286329434
9.32172615116146,20.73927115931668,10.083333952082832,10.773040885346743,7.330757083371954,11.540389850823965
4.216538670685128,6.148009701007192,8.567853644045108,1.7814889507082499,6.936978615023327,7.09822334382946
2.9177622061599044,5.3972477416642715,8.375938544911582,7.837205844311642,7.302742892753393,3.347446634707773
3.801873937566856,15.023387739862038,13.638996846547146,8.509042805474028,6.577838997145437,3.614570647773172
1.9693602445413083,8.522169612786122,7.470285057610289,4.826934312619824,3.88785111415105,1.8503693243554362
2.890610104263105,5.28668345802125,14.096368153719443,7.942285291062596,4.863361820444531,3.83715761432635
3.2582892526668306,2.180681520149867,8.590059888168728,9.447666837135833,3.5997903399257436,3.3515432290779126
11.716049307708824,5.091628146961196,5.1750041816346295,1.2689063535907599,12.055905277192473,5.512593795199387
5.706336859130483,11.01209812389984,10.653875149052503,13.259816906663042,10.665662651072932,1.4957644076052836
5.870190388433261,9.689303593390312,5.168683069375183,7.370165406917496,11.23285597753907,3.862713293917459
6.240355508209533,6.9381453987817086,1.083106681398416,2.0349915641048386,10.283298392685499,2.559736547794788
10.595475821791878,6.474194669784197,9.47604466800476,11.649977745850363,10.064082753618996,5.419934600811675
5.60640388695996,7.082034653977741,10.151179853573094,11.115162054527659,1.3193160827001973,1.5453591647367004
5.2582805550818605,9.608176873928485,1.368615787930024,6.254938770299712,12.347530808194653,2.917364021615103
4.934863141316546,3.66528537611907,6.703879165992651,11.657276849955801,4.598381260970069,2.29667301473
1.5305752854772443,8.722059784484697,3.0080021366038996,6.323603634761467,5.75025808306431,2.9785105449303892
0.878211234022328,7.198206552817412,3.8029459625680406,7.532212193184185,6.647832854414831,1.6623887300302032
3.21265616968419,11.416981891524319,6.3057806033065225,9.73504415413995,6.3819813453230205,4.012950501086816
4.306560261215034,12.776639071072081,2.929169210411868,9.202577534924268,9.290669361848655,2.496315800509345
2.0834487490072737,4.5576810889059525,4.845605168095705,9.2569948984685,2.7775637262659147,1.8799436990410707
5.767193465916114,8.408498211306696,2.3585981945026466,3.523071585694437,13.7446957563332,3.936771417929619
3.48016823959061,3.81576759267705,3.8875792975720342,0.965271621885373,2.9754010199827814,1.3451813329151607
8.652242101911241,11.285083437676496,3.973368501889809,3.782119954553824,11.7079827956884,3.8253608156300043
7.405787535707208,8.341187359897276,7.206958500674591,5.426114220713182,6.352939327214485,1.9092584401202348
1.6968585864716474,9.370074876679354,6.31552016430523,3.0323410544134175,11.193580960611198,3.4217470275335247
2.9514949190238378,7.715224581442361,4.81683213745089,7.9675080849199365,2.7981891920026345,2.476926950687605
4.899150847473291,5.27365898675117,0.8158164283709608,2.1962202695728914,5.07651856282193,3.2271469617851785
4.884036204860448,8.404550783635068,1.8762224168562396,2.8232232225254488,7.028127150129004,2.821117051586077
4.995756560422725,6.018621690165247,3.5930459252584095,3.880701363319411,5.351518875669211,1.2634701783457345
1.677552334785162,2.4911707004871504,2.3948423533194565,7.67407557819414,1.7316309575940798,0.7259436522773741
3.8196554416885604,9.307806909804249,5.76645971628303,4.871829405926932,2.486888888656622,0.8840535618504389
7.722752990053982,1.84449885110038,4.688783473948116,2.1744328670366837,6.763226050415622,3.485691188364952
1.302051321351878,6.583319826697452,3.2293448118441264,1.344152555316597,4.447577334151924,2.4627580099342463
8.092617480553182,4.8678123320390485,2.4772468087619504,0.6462501499546658,10.249010782034166,3.6681650316322205
7.528075498262556,3.1697664334120823,2.741907710680792,2.0454029851731383,6.038125369308091,4.405533227673755
4.195776061790805,5.803370339976058,1.663117966716355,5.136584936500035,8.411380130661154,3.159465698075706
4.0137062988648005,1.7765550980888778,5.68042632001252,1.4297494268168567,5.2002849935273785,2.506364126876467
7.645221494781057,7.020946793292713,4.092834575224513,3.618043736605114,6.1578349565086565,3.658547407627929
4.587189613013445,5.046174774758991,3.680120636285679,3.0599868181791727,4.518804674748125,2.4087285315129447
6.605636431639596,1.283115041219651,2.04766382381018,1.10743128068238,4.953175305810361,1.9653783338453292
6.956520348713338,5.732435728309411,1.3135241604172367,3.21048466438609,4.219427391902385,3.276788393358484
4.273474448415028,1.749912598566518,3.583953588069402,2.9285296625729385,0.7797385917533814,2.025558781161667
12.067486270737314,7.809767466823697,6.630671858375673,3.3531241080537093,3.4593257620588362,4.3917592121489335
1.6098915370775613,2.450385810742919,1.4125273741907085,0.4841748303903817,2.9677091155664366,2.612895344399558
6.086651819519992,2.7903587512502375,0.8962947782649171,0.7251588743899599,8.156649451493971,3.3279605178230023
3.195628139785304,5.892255063097017,1.472762948443586,0.9912684106964427,3.3346844077458835,2.2821594104351224
2.2388487740350156,3.1354303857771555,2.9288936156488505,2.6972096512415424,4.337317023753436,1.849312069734633
10.36114167211591,6.4562708145417345,3.903568099426687,1.959103871057927,6.558261271361532,3.8862217550130627
7.627095145081249,2.800462387858849,4.69393412834427,2.1085948340865714,3.7797543133751135,2.9006384179552285
5.023271261891789,2.113514473208042,1.9560218623749441,2.5736488353395077,1.9541505141374897,0.8935794324342773
4.142279702175239,4.046889762222172,2.198931846935671,0.014857231666863755,3.185465083009913,1.630381289440557
8.231548243427685,4.855321008767122,1.2260548361959824,0.939508895801177,5.5541696990609575,4.3192614332948205
1.8870421711621876,1.6336983492419055,1.2942958274668162,1.4641834203647213,2.4922740014496423,1.1293960991596619
11.211434409003527,4.430333060828758,3.2783581421123493,2.506602699077427,5.587971628848309,4.750951980301101
2.069944052226427,3.8238370839296185,1.2317748469757785,0.988476099756456,2.1730634670416,1.1236161509807472
0.5185576435908875,4.480558614806647,0.6181827740563673,1.1987941546444567,4.903561480876066,2.7353658607806395
3.6366070736621015,2.2108071999764656,2.4302887460078795,1.154547684055278,0.7600245111191304,1.7596636941682575
1.1622542996030771,2.9695767807549376,1.5779672122880914,2.3616271473520105,3.739357075042422,2.3564294146714118
9.752119321940025,3.0266019771703765,2.6613054416364763,1.9629537348434558,5.967695745939928,3.424486467709453
3.125307873654577,3.579364504697732,1.9392457547381619,0.7738333253035685,3.0732588398799465,1.8888747762298392
3.4993510623287736,4.8323044257960355,2.0679194627887987,2.7318372908140915,2.757659084119595,1.2048054951747769
3.8904129116203814,1.7962044911260941,1.1317896341155997,1.0102765112253556,0.3807648857964397,0.28865316041859446
6.236606068220111,2.7203678679516785,0.3435176432110246,1.064239528359894,3.6329094263474615,2.140986426878891
3.9573060158795843,4.595597917660017,1.258804732074924,2.0358079172607564,5.073870811591199,4.302159419148772
6.960308725942605,4.2642416611548635,2.237066229798476,1.2393147576109897,4.630545771059872,1.9965654470724732
