Gx,Gy,Gz,Ax,Ay,Az
9.357811999999997,6.781057000000002,6.499933999999999,21.249999999999996,564.1799999999998,23.633999999999997
1.1508557245526019,7.402661811491765,6.016843505688958,1.4266956042000642,0.733712508000889,1.7105664154556226
4.561680812197737,3.360584403807436,4.847994583098621,2.682871800170861,0.900816546634792,0.7800586800214264
11.827514299806175,13.420072514320152,5.6804475177605305,0.7990258770965201,1.5308380400901753,1.0115677895122435
10.870285924732814,12.038962824483384,11.959537808616464,0.621044075223354,2.0390017419168105,1.3341452945898005
12.67953883234926,23.84875043913477,39.19115312837955,3.617898956807497,3.05077990646595,1.135180488682184
1.5399102224303336,90.89732170332873,56.89677526310058,1.7945846544294073,1.3704583498875058,5.816163094230624
5.878128174960618,14.345758119979642,1.3544362858346892,1.1439735415302659,0.3764975427928924,2.708264746869285
17.479944332704022,10.235433417695198,1.3348744763710774,0.5743805580092766,4.2761490940668185,2.1246180273773865
19.94731988243331,17.72357031745218,5.083002724004851,1.7065160979999479,10.299120346693766,8.735919997989656
26.394232473444863,27.872892707300974,6.3537603899693265,4.428488047749337,16.196383634730186,11.826610563853786
60.531753657033825,39.64020568630238,1.6945793691783106,7.320961669963789,50.35215793137558,39.382783629292085
58.648504764875526,28.411057161733478,5.9428680232298055,5.628854924570029,46.73055841629097,40.219148705940086
22.17893608711084,10.71589925667186,6.32094010209941,1.7829980951383433,5.72807949477903,7.032142878452201
10.573497359353032,8.755202746040423,10.828864727775075,1.157552728489946,4.012095391729916,1.8720142006352152
7.432826034553124,15.360782467108784,9.52598080091016,4.852974920825549,7.107354001193498,4.379635599978309
9.834101242754851,10.27033028246582,13.303560457307286,3.6520782985314875,7.206898880977937,1.1073949959214002
15.649041060492818,78.41248976575613,49.347557459617576,32.80420180024345,3.3971720151162903,3.0905989054202427
3.244156418802209,32.08202070265069,29.282577880562098,17.46026383719118,6.947774653512043,4.032860320198313
2.494395294869409,23.302529717359775,5.444958080624095,10.351716547031373,9.757013490788093,7.957912285958237
9.081585059649619,3.4115425823212564,5.46311278300996,0.31106987492379784,8.944301239314711,2.4680727502897146
6.9068144360341535,6.610105933163065,2.1116421215155534,1.9884947475581003,1.0760053459004448,3.9271475869466657
9.571078190178664,13.531216725426624,4.630143048485816,7.5017687941149145,4.64480529835644,1.6530712626941324
35.1895776546776,17.402264601390403,17.04382305924687,5.628867214862178,7.52442752950396,36.511560545694046
9.060969565083715,4.310379036253115,6.800104593531955,1.1917800976014243,3.8657961648827945,8.47148281010278
4.9818597513501475,10.425362634566081,3.531061799995485,7.354013681769665,3.169111098261482,4.095462589704577
2.152100559590734,12.177718400967294,3.974127246867081,9.575790764729597,7.267791327611573,1.51569794322626
4.230212813993846,3.3698714707021122,3.6561676005735757,3.4689910154467487,1.454526515120816,2.002014743193389
11.346940037899772,8.915528940652054,1.8656450267108915,8.777921325072084,2.1333774288798844,4.430255549801156
12.292789967350302,24.93079265102044,9.778772425618135,22.361946973418107,9.465888771742367,3.9218684545995695
7.03958631215562,11.701874262669849,5.956074438872173,7.262545209066422,3.211862519114242,4.419301752792641
3.985539642458942,5.128550494856631,0.19074927538872785,5.440976034686623,1.7123804388512036,0.7457904115280585
3.146360404238533,4.0379161729983855,5.650025977711338,5.217050990080604,5.348504327123999,3.4135071195995432
1.9806435745136317,1.0286021482705479,2.0968916037022094,1.2296075928222614,1.8911816790534308,5.685189056259651
7.6854357398566036,9.360116476779362,4.429308455569116,8.216255213646994,4.882448123410176,10.020414724603812
14.4395176620163,9.064029621961524,5.8439765697962995,7.257744511914773,3.0743781778816643,15.210612956544635
11.620498720212519,0.3339613245787335,4.5888417958293095,3.8633456132132755,7.223608017216589,3.189915561866686
5.591979798148595,0.5664597571530652,2.5976275192537144,2.2306793509817022,1.6433047882595913,2.342243040587858
4.822403027280873,2.651883387158544,4.677424816539461,3.1959735311512243,3.288693122366418,0.4236749732664343
6.885350432263716,1.156962355289619,2.8534651868162175,6.30927581412895,6.879813817684997,3.455070290594725
0.5441478151497758,13.28007859703982,3.443799145514676,10.714429804342206,2.3145866572595053,1.1095870158087942
8.679617277789927,4.964156317095956,0.5883746036912658,8.498481779639746,5.093074761055267,4.197064108493385
5.314544967548017,0.17485451075158737,2.8085889288073034,3.9313748402210456,3.4474053745420354,3.926167680325137
3.7081278257778227,2.0818310072927457,3.3595608189274664,1.8066316463577263,9.764966850372945,3.365252113977838
5.5746327323940035,0.2679700265414167,1.7818456867546217,4.990581653788081,5.877613746162504,1.577650066367429
6.203381966439608,2.46159477071331,0.5421991688287003,1.519089650720567,4.31567295181595,0.8464375354190365
11.218068362041997,6.923122776401553,7.420806400530061,5.984486801801726,6.94330534549537,7.0018571041294
6.031216691408091,4.182795215010429,5.213238409937865,1.2797997275275055,6.841005009095095,4.170654850111301
1.6526719849310936,3.7394910057773796,1.884967290734982,2.272331368428616,3.2003655826362154,1.9758518973575252
3.0343814531255733,3.481616303436891,0.3632679253923347,2.8295204654529993,6.00332219680655,0.8034157911565072
3.208714218086897,3.7547848762227534,3.741298686395561,3.8236524537024095,1.26343403876731,0.8297784867805196
4.2286691734866615,4.58250385809246,4.699987115493642,2.8244265931914314,5.228023008306073,2.0634694353072245
5.412563873680413,7.145487945518023,5.464205000469656,6.872115539358643,8.95077482963433,3.7662714759763665
6.742335182792631,1.7520093593613253,2.8489500304558515,1.8532141235527104,3.029743212543207,3.6795483371055067
2.780099154293289,1.5575435236032311,3.0313130348997674,3.7019140145445935,3.1253006749395387,1.6859667480054419
2.7752851099293325,1.0138561084392008,2.3436689416320897,2.255509478159239,7.34849286310704,2.4457077436970334
2.088428306988809,2.447118955551112,3.338217012474118,1.973326656827911,2.1050555320512414,1.94730601968114
6.117790034473332,4.458406021741462,1.8938660220755232,3.589175759565533,5.28496080641272,2.06215068158099
4.239135362967521,2.141889315027234,5.253493945068915,6.3549486300381615,9.440812947369063,4.089386910502298
0.9704555036251262,3.0125765313938455,1.0703427017584692,1.7368880995874287,5.681168134890483,3.3747876668074848
3.1359745736898366,1.8876927352735917,1.5347727449499917,1.186868595942727,2.249020406865991,2.4088044527896497
4.038547888466161,0.5501066875624827,1.8048265579207676,1.3508731613813656,3.7797561769966443,1.166771379790577
2.009384859275497,3.125486763875171,4.1078986873049335,0.5289329838609227,1.6362609842581017,1.652679736383857
2.337754377351047,4.379074412408519,2.9232268162458497,3.198619179603104,2.5755751135642355,2.462104096234361
3.2190093584448363,3.314926992787364,5.353953469468355,2.606116873438366,7.496319412173766,4.252222013319951
2.278398213714134,1.2115569028358455,3.078099565479988,2.048340688670009,4.302916027778005,2.1519243954344636
8.075622389054377,1.5850656703331152,3.0235580876873436,2.150921988394441,6.762416928378538,2.781048165478871
3.1588663571309548,1.5199510966663812,0.8110166470698917,1.086118144147245,0.9910118626585643,1.3379782209632167
5.635137339636889,2.0057595628784797,1.4142137479758947,2.3306802020361452,5.284026262465673,2.0216003217268192
4.161674647959784,1.6302817168352186,2.564157120984283,2.9392846054965127,6.705447132400739,1.8788036924508862
2.915486794658702,4.625376952400611,2.0879965829592058,1.9910806714160412,9.553672184597966,3.7284926849243667
0.9209010438556025,0.8366803216410148,2.20043464160521,1.2538092509482237,3.926487572479048,1.1640670342590118
0.9208012744824459,1.0934590510283415,3.028550207482816,0.18531752404558535,2.5759153453786734,0.3866619900156041
4.291681722814872,1.5637417184813485,1.9808949874249535,1.1610476476899445,3.2446212600424653,1.9551229129688161
3.8964072015372224,0.4972806995700108,0.6294518840309875,1.8910833548810797,1.778419357369531,2.7087411106074515
5.667838239828611,1.8049166380724742,2.962770821929499,2.1859111944463696,4.439985863456143,3.729365053971662
2.6983821341634995,0.7835701268824677,3.5334476114148585,1.12784817782601,2.0731994755436194,1.2115007503108666
3.7130836716003808,0.6868732279244327,0.9046532933906818,1.1928895942619742,1.9923570570242413,1.520887846214565
4.81138071123478,0.746747361766628,1.9958891679235413,0.8306076216098595,1.7428070409873646,0.2476547718757362
3.8618126521620546,1.410349414620337,1.3899075432407806,1.2277231934006116,5.163107104424041,2.395312408971174
0.7987311417661624,1.2965728650898112,0.7875631188880662,1.2871315172273134,1.7620803982822673,0.694949698253531
0.6571631790263389,3.293077504775487,1.4756567527690838,1.1563942999657355,4.716027668586895,2.5178259770571514
0.5415851000573397,1.2620774135379473,0.5986747338949321,2.026095118585583,3.2349105060679895,0.8082753992019824
1.5088065585542323,1.522117212207298,1.7176943345783071,0.6357453095575771,1.479921586678988,0.8045837151871982
1.4147524978384782,0.44354335597269295,1.2439706497875123,0.2736639971967383,2.467665011586858,0.7084048492672258
0.7332906201983876,1.3951195166025414,1.4096009762503907,1.6894095488002572,2.6744919749328724,1.8735814710114953
1.6468813200605315,0.7860156899240449,1.698701802371611,0.9181219267286416,0.8455421098030553,1.2505151313786458
4.112577613050962,2.0961558758616388,3.346009137218668,1.254134508431022,1.4603759914657743,1.217363842655297
1.7775972358919763,0.7503917162352792,2.271289603391113,0.7949088291490504,1.4584480716426809,0.7350755718177365
2.424071187784357,1.418947507509346,1.2080842943284045,0.43341363807392674,1.9374163595903224,1.4021244348250612
2.4038085535536626,1.194438126446545,0.876675804128072,0.8478459542921837,1.8708860544096593,1.047800478010105
3.13714495580103,0.9123837246724754,0.9395260099513789,0.9501800828410868,1.0223014644340687,0.16365454479067704
3.3255537038184184,1.0579017650740263,0.33125721698088445,0.5296097479115456,0.6662470188654511,1.4217781303280008
2.9607333478829156,3.1519042925731413,1.1838090515595434,0.9767196425420117,1.1834356910881372,1.2359324279922739
2.1822164715428403,0.6891606714451503,0.7478496595539152,0.6964185870821554,0.6777301846263744,0.7078748939947852
1.9830206181394026,0.6118031620303976,0.765039683816898,1.4666396872141534,0.9924580641345634,0.6989498245992192
0.14981377094208354,1.8296911850470243,1.154909531881355,0.30399262955977546,2.1303559470537032,1.6739441917255233
0.6082441207756593,0.5900168729737075,1.0169636064513112,0.5326831437157773,0.8737902981039347,0.7576760362960413
0.9399867050408935,1.6223875968262427,1.8502065433025017,1.2300239932533086,1.3959334166751984,1.0742127416682508
2.2675902579945655,1.5292434029000623,0.8924201523264563,1.1436762442179402,0.7489226917233537,1.2642467537168018
1.3170157524075028,1.4844964007685801,1.2246305249083014,0.7442358845722276,1.0095184606492404,1.14223287443931
1.814141434183424,0.7933729431914177,0.2934051657295028,0.2875051738514659,1.1112336958157412,0.9287176632818646
2.712560646223276,1.5562208379181974,0.8785418519192074,0.8799849411114024,1.0157291509028075,1.1030435002175925
3.085814182418011,0.19936923218765942,1.1121402080307792,0.8119090065013063,1.055400772113032,0.29313320903077994
2.050704457264586,1.0769532902285708,0.8316415529626562,0.44633524424777743,1.0040570517312184,0.722258563792681
2.1516984058238613,1.334913045689474,1.3455698680191575,0.15296072452279708,1.1221000502146772,0.3936182673797787
1.5369492444531592,1.4238230905715679,0.8978558153742896,1.048601104434232,0.9905239867062487,1.0223856161431597
0.3875995922500265,0.37269030098689776,0.1024747032897642,0.397802307878134,0.9323382074079867,0.4538255397436526
1.171748634937976,1.1099094408392653,1.0433467675494927,0.5126010667465206,0.44808328837364186,0.8508172545112025
0.4183487873775583,0.9454957905152832,0.7483632071492271,0.4047232134059956,0.5421174544755466,0.46317002109825367
1.2375192043415488,1.1564355449561818,1.5086166367552545,0.5818880452237366,0.36790315164007353,1.419945862534035
0.7049071084660442,0.7763410201970661,1.3807165312756104,0.7089644960694288,1.560323877207825,1.2921783565146532
2.8046156800937125,1.1416604753617414,0.6628894369502906,0.15755554438850397,0.39279408723974146,0.5901939267365726
0.9690812695771776,0.9477032689285542,1.107432359450192,0.5018155531829713,1.1175280920408137,0.9799237639243891
0.8457426024126867,1.7463992850668624,1.445929435624839,0.8362714528783528,0.2347347272858234,0.6194313317367932
1.4498476064434045,0.3323975215533399,0.8118833143825445,0.6174047146097053,1.6497298767472994,0.9407128006559089
0.7638256355445628,1.0208022543768653,0.9521894942864203,0.5487686162825695,0.5434244519562771,1.0958929191791835
2.4782282961656423,0.8301529138088748,0.5307704583405232,0.47073388892051393,1.0829883517984793,0.7184007063603699
0.315541530256744,1.1421461745029977,1.412827762021639,0.3837126775699606,0.23201932663014505,0.5216269578313073
3.1113502818747323,0.461333116000732,0.6216062591930364,0.5142263774103487,0.8423911275953362,0.4281186937396363
