Gx,Gy,Gz,Ax,Ay,Az
7.638049999999997,5.118099000000001,13.395374999999998,10.408,497.40799999999996,34.46600000000001
4.090709815290717,24.95200205669489,8.5442059451805,2.190979138977724,3.318771837633218,1.878483713982079
3.0277545210321,16.799115505002252,3.7104977567013604,1.8426709160946977,3.101347075398926,0.4284081374639632
9.17340817792854,11.8512891253874,6.891651583029249,1.5885780204417628,4.140475877403165,1.7902329900113312
7.202062347134279,47.061765993232584,12.572663194642288,2.4127058126252634,6.582499315007557,4.181860337375583
29.331810738105883,163.00954365336858,53.33610458615993,10.846592614864305,5.204658919501618,3.8239293997123025
7.224154935487002,60.45076694432516,18.600018121154495,7.353234569021255,8.031497096629657,5.9696957785092675
14.264177491563771,25.78050015866143,14.158478576913826,2.6149382293925365,10.781475824359642,6.98672194025823
13.651856390541624,13.775615574417992,10.985159263148466,1.1400616257198923,11.817188762843818,5.59237813791791
17.4159115087204,11.0186695963622,11.72567127115913,3.857176930770311,20.30447347860819,9.608220012225162
20.807591579533096,29.57350260912057,12.266935072094158,3.9289793045655483,54.24388134080493,34.39674143837798
48.58822140955648,8.076669709836182,8.150162761926634,3.5079560749041696,61.10140120707271,38.659529284691395
9.222416870243293,4.125027869917133,11.256481505950719,5.426336422694442,19.22222602226145,13.364065205192182
9.46303966013765,21.21495748265919,8.16226199199266,6.9317008320934095,7.430474940756222,10.629886030586956
11.46767028357707,4.981203825938452,10.302956926876007,1.8546099737534982,8.549031232295635,5.556511162598258
11.587374913986988,31.51710412235814,15.118482683417794,10.204668950144978,7.8248369293700195,6.673603444842246
9.75726829651524,123.887455157506,88.214336656785,39.59502761468867,13.709518357991797,8.082181252370024
7.089498073756227,29.36927788103427,16.683539312738716,9.28077349235531,2.8668217857840634,3.7948054501849113
9.395435187582855,29.475442287489997,13.300937822549443,8.76597713117699,15.459398498696103,1.9385907017566568
9.574168147739673,25.951655496960814,2.860880107780472,8.35206804485586,5.297800166422437,6.889155412184085
8.509137367762746,25.61530412784763,6.111880239674796,5.811790554652089,5.502308738875684,1.8581035545151907
25.73893566195266,14.39319308069393,3.3890907042829563,5.862547964247843,9.780256855610563,33.53843879311144
12.032871530990837,14.050749629851838,5.804666504620257,5.071118764453576,5.811296890338817,3.9284355812524785
13.891652769270152,28.62891193962919,9.352725687618332,14.738598928959227,8.992242763792797,5.030767703312194
3.275066884057372,36.00834511673729,2.4198565700095065,12.847691128870943,7.5514689876271435,3.0168994276909022
17.359764377700635,18.80937905336092,9.083206357149173,9.708298909729534,0.9454310775927756,6.320234346982949
30.74646433647827,83.29946428996308,4.222543655982238,55.06339975824014,18.691814642626216,10.395062235154457
9.000641266835956,48.11819428298924,6.975221572685951,23.777944844807134,4.507905792517485,7.562070484327469
3.3439866354168504,37.73000749963268,7.061461264642317,26.805533024122244,1.5518554506397957,3.581097937761192
12.97783094645751,7.14771494789739,8.329210749535655,3.892275508697708,10.828188686602303,1.4494890744929771
2.5967922492244875,11.630019982658517,6.790473791400063,9.324848232846943,7.954632212786521,2.7774374831374056
41.894108057179835,28.555401476846658,6.549451632134805,15.978138832847906,23.97791846337181,16.602539235958645
51.527206513865885,5.671258749791811,10.081012715331719,8.497065239245638,32.591460140552236,25.529163079858545
27.43034407523614,16.57257660284498,3.7585163498403644,11.799093877670343,16.063795530607795,12.103863455176555
17.727189700950476,13.87149947383019,1.3806990832561132,8.872930397753327,8.923915769688618,6.707553346169132
1.6580961281545366,10.407204314981898,7.705075902799674,10.651190614746382,6.773380987599765,4.6279559835770865
3.5027955827393518,10.419682616152146,0.7241127921208484,3.855437915513813,4.439459265165479,1.9218436657433924
20.237914767311377,30.874883274226654,8.909158676717741,24.930801530759805,18.55414397583743,3.029379380447651
3.673308517603198,14.003367810663933,5.350355771727843,12.851755136218978,1.377835262553337,1.544584106745764
11.476690530564955,6.707366511103895,6.130091091907676,5.6750035872254285,2.755605061759801,1.7661714716086727
20.64692083499751,9.036325863957167,3.1662676517035173,7.671653948203775,15.7512032502991,0.49054762680494535
7.914784237042248,6.203868326398918,2.0136689094273814,1.189483862936091,5.2006755123488215,1.6002052980197383
29.568630395674354,11.373503138111236,12.079305329422331,12.635627785986271,40.83484782525706,11.184010663187204
13.715573598008394,12.689128846972437,1.4929750445707428,10.952828013660753,9.557104027116825,1.9909529427763104
11.736618373829103,8.679619206646747,3.2774991266727724,8.530934164213498,15.896269717853988,5.438804748378563
8.3394435121197,4.600030341596478,6.792152957845244,8.553426704660785,9.540216309328253,3.2618204096064587
4.806501277764295,3.156245222296678,3.7095162406050215,4.729339303576973,1.2619205896824914,0.7496967270069158
10.278137553971865,24.94782555210248,17.019419475747288,10.407179338755107,2.0322116339453795,4.596833644237218
11.754663793747419,13.117022508064174,9.1566446432591,6.307298428643483,8.5307960936932,3.808977509215256
8.984790738319408,9.698306630910682,5.623265490118898,7.675640597998119,8.063901000823936,1.493778478365831
12.087832824460227,2.9860438841928256,3.1952603111933655,5.727395717704296,7.919260742399023,2.334883060817104
2.846096425512381,1.406172084456966,2.410115172137745,1.1060148550604987,1.0962661988716331,1.3414268364850086
14.948709892855902,6.004247695393372,3.1414391067144485,3.7865385180447193,12.157164096941841,5.2514363352541364
23.58553131062999,4.270810544102894,4.209302158125497,3.0909087186180724,24.398409870532785,7.809602858526839
14.211929892421159,0.8291872245760533,5.280986234811626,4.515048780079884,11.882756926258462,6.44034607005882
3.7033933474853655,3.275618985236302,3.596907817242041,3.618524323846456,1.6235839857524812,2.987977963034396
5.963435610934023,6.14365461115426,5.950467197463703,4.288088285516558,3.6088771617304456,2.080318741087835
7.469847921497962,4.376534962828022,8.047082896704287,3.971955118751272,3.0794396662369246,2.4993156926965985
4.86462582815325,17.45939611815835,18.953828841526676,8.981756759972997,1.6604624858981665,2.4087499642950627
4.037977026411902,3.1510113811878524,6.900594521874985,5.023065223004677,1.4201155756275414,1.1370388363964126
2.5558859356222294,2.781280986384285,0.9811226077700902,2.812644384682129,1.426557461120381,1.272144893520092
2.267048702979019,2.8698276256615096,3.709664005327325,2.700723378240579,2.4492346082540677,2.2154837007926074
5.082487762873438,2.352143779087109,2.0687255239985873,0.5732849198295554,1.5570175212437078,4.76093258247302
22.10745674267696,0.8701520076422127,2.4993409810713083,3.4594412826305865,16.909436858340136,6.162511100598382
8.289668676582252,3.019315296952651,2.947549744690441,3.3031197922229443,4.5217604902069155,0.1122823194811349
6.250940244926221,6.649703002035728,5.579676966768146,1.7982366920848412,6.418426254878937,3.76191398165747
7.1840808844229525,1.4238194447828534,6.086744873624619,1.1437174688751637,3.0603019057165826,5.754619554486
5.478965438953093,3.6920333904169285,2.331086894076152,1.6353408726944985,1.0522837859602632,0.6861717148690806
5.651495490203257,1.2563619884650619,5.140892129625346,6.468226788547416,2.4717389841619006,2.8577431594568643
3.17642054442186,3.0551418074922996,3.3910215777664794,2.2003594888220124,3.7573766087322995,2.7218595843349687
5.0594562125189615,1.267831815674927,2.161530817492431,4.528018168705442,1.9685943874578922,3.1928642654675055
3.9845993044777424,1.292131139673132,1.4845132513144481,1.9266187769437497,1.910679218450093,0.851717250212775
6.095910147300923,2.4753432336170227,1.5299313165555473,1.3740495882421928,0.09281921752633354,1.6144330624206602
13.682682205793709,2.1153237744270323,3.682359500143887,0.9214409955130584,6.775619940440977,4.053277004752372
11.71942346308133,2.214699982214838,3.025785260887009,1.4340791739411864,6.52241893812014,1.643632970289612
10.734288033843576,0.17908764732923968,4.039897520982206,0.48605925970239655,3.5980671895982375,2.915803957059555
5.495389179447296,3.168819485626065,2.9045461352384323,1.262400098716179,2.8303748259694177,0.8618870665090365
3.906842443064961,1.156412621487348,3.230822006351186,1.359726740187403,0.5174491017501445,2.8923328234218695
1.6684387916017132,1.8376775231337752,2.0016885225088266,1.9971003437374404,1.9394344166482143,1.5803833319126475
5.063666372588281,0.8660927285696818,5.000715073797352,3.139533033646746,2.4592799328113295,1.7710513593495272
3.8131829077457438,1.0619755168396505,0.9295639964810768,2.1599704035644525,1.6563828913348795,0.448373309491602
3.777844407839158,2.6332819777578655,1.0201094473250811,1.3705461772115664,0.6628167510573135,2.2378165544447266
6.067776518678634,0.6090115920522182,0.9285624637433875,1.9958648050632772,3.0330606339647472,1.011436415830396
2.051963055784938,3.271683507335048,1.6295742414140693,0.7194838621871018,0.5466828749170697,0.8563150458991333
12.450065266832432,3.3898626292436416,4.803163720316435,0.04938424911096382,5.705125580484432,1.3744138092917109
7.208730010139678,1.000755389897883,1.4069643197878947,0.5679225389721526,2.89374656272129,0.40248430410017355
5.004059365908019,1.160499799984993,1.9542246367386102,0.8589118984061473,2.3995538159181597,1.5137552016126734
3.3610976149897933,2.526611704967376,1.5093342931769516,0.980125102240711,0.20814620867307687,3.283258281850488
4.0317680327902625,1.027865983805413,0.542805662263676,1.2184398326236925,1.60709747353279,0.8174740823882793
4.24751116115151,2.120977632849769,2.4123226705931775,0.44355169816885565,0.7815029286738008,2.1937783518843044
1.1250686856341616,0.8374278688914306,0.5809811090217379,0.5048749609969576,0.381135262025544,0.5969624304108608
1.9158992589492456,1.7395553802070487,1.8904859837190888,1.3266642139530231,0.9433611318784388,1.952152575750031
3.294560534603365,0.9724314335230085,1.0661237776347499,0.6060493910425273,1.7643284040908918,0.6075851878993599
3.587045352618957,1.3275068047109535,0.8138713308878021,0.575413086550783,1.1770797449449037,0.12470698067174094
2.8899579783278457,2.768626814917613,0.19963603297873092,0.6946263894034183,1.365887548314841,1.0021095826885036
7.930973347397747,3.5535177543944685,2.1505673624822936,0.686154084464121,4.305735156595756,1.4171120666481227
4.535440301227904,1.9952966945896016,1.172084157275131,0.7263327033975007,0.9365766701479509,1.028913639666084
1.6888093871420031,1.2041693507365174,0.6981232619801069,0.9858278787382397,1.6402503275135532,1.2116261478378352
1.1671234258720904,1.0465497075087355,1.379905179464321,1.2575459650805056,0.8368930383611544,1.699008180248137
1.561347741381528,0.526951096665887,0.9207793582447436,0.44702603559727494,1.551446025507788,1.7863014835174071
2.4747979847402757,1.9359705144601898,3.5980907325033273,0.7279473169323787,1.5332364100704368,0.7020262836431393
2.9056960296252723,1.6543455579824506,1.9694465321759225,0.8687325238973955,0.30722798703629833,0.7798530756817492
2.4227317086377216,0.16945697726642606,1.5290874444104428,0.12641694291181396,1.3463211830892148,2.4964508977461395
2.710538545143096,1.7344699282935647,1.7314118034591586,0.26900798951089266,1.8596606340835975,0.9485018937358581
2.592337210549784,1.6952741264353344,0.8857041327358481,0.1916632882667143,1.4543219308956856,1.0556761226645366
3.166333049062761,2.897216149823348,0.9163192571093204,1.015250501195739,0.5805608420409886,1.2426009642358455
0.4785881010020979,0.6213901414392768,0.29116187069785676,0.9655249642375462,1.2381534177352955,1.7033755402480721
3.2348175712157845,1.5361271528558331,0.4224156284296057,0.9214373686174521,1.9331592880181323,1.5493403559952752
3.9025921059319337,1.2325180060697154,0.8680504984676731,0.8264152348485709,0.9503588881723075,1.3323046277615158
0.7349480859423126,1.0781418493454933,0.9489315697993609,0.5702262466758756,1.792251142303458,0.6103285927242792
3.6661729805538665,0.9761592694905679,1.8944097499223223,0.8914019514804963,0.9707580563909881,1.8341537899002203
0.3610083295535564,1.600894223372604,3.169984497858334,0.9080992062207041,0.2725555420212572,0.7086695470827903
0.3164277250257658,1.513534463559894,2.5944244111706403,0.44956084098081633,0.3391806899773014,1.0683631714020194
0.6995377673983225,1.237113442450752,1.8159669352251835,0.15432980308971284,1.1697515163415078,1.6118675708570374
2.7280072628288115,1.7407843914108005,0.2106007193631422,0.6139805694552994,0.5971485030872073,0.8415013423852267
2.007963785320595,1.3110259158961501,0.7011786250918578,0.8523966627933236,1.2826737011722253,1.6854107573611723
2.150313680653395,2.1672284624082017,0.32344032766691966,0.8626382706664386,0.9196024481913623,1.8996617798086362
3.8661576128360844,1.8024998952710594,0.34219371133761567,1.135270106236333,1.2278067824311765,0.5984825308682618
1.3893896085469186,0.7740234037653815,1.178300973787514,0.12312267923261264,1.4585627341387069,1.0379755801126394
3.380284753109748,0.7839478633596698,1.0995843779081969,0.4850111132343476,1.2811392683376417,0.5759866401352081
