Gx,Gy,Gz,Ax,Ay,Az
1.753497999999996,4.380416000000003,7.1220399999999975,29.445999999999998,523.188,55.034
7.960036162403494,19.66599683021732,6.642326003241165,3.115635968775562,2.2708365389325174,9.281701306005418
9.63459342925102,20.446603604930633,8.223310604056207,1.8271811034260417,0.7147071673389632,2.23962843079121
5.451604737344998,5.3948993212489125,12.54234081947793,5.255466781560387,2.3704116094685146,3.945667509987176
26.502072776554268,44.80213479143665,6.440015639308776,5.664206419724695,4.987874295148231,3.0395390063453305
46.602401607132165,119.12285798301525,16.762775087600662,12.994600671638027,6.5083944209602596,3.075851517689259
52.18009549183304,136.3441002476313,51.96771679448412,16.007815170012304,4.358188122079462,2.358329601199274
13.513029096304045,77.14976581190304,8.561243593525079,7.148770691652336,1.1163806037802886,4.67667675966489
7.233168122520162,4.722726942569965,1.929406143030503,0.5950486897212783,4.107556674012585,4.702433518173486
8.33101579548667,40.93426324975309,19.349556490766858,5.629097057645797,4.902104510312091,2.019544969279619
24.760488473527474,29.616264209995716,4.7478610053860955,10.1374797720059,15.917287378207408,12.20820882997105
38.4105370066367,20.37757567747735,30.209094811935977,23.04061123383777,87.25737136556427,65.91602671238466
22.55236548002582,12.03537804668594,16.968314143173476,4.456310441453862,17.92212028375026,10.659055655368958
25.236520484919254,17.52213320141833,9.933333630245787,1.8139533111419408,7.092852768574548,7.471278684493698
21.98249082586555,18.89347759004777,14.78932504507075,2.338115276717365,8.561474407028477,5.424853951333767
6.2584268684321245,14.670784750176404,15.373849803155277,3.7663016769978315,4.846991328988283,2.2793107974317217
42.008083851351515,57.824955244558275,32.253987330786195,20.095473175667983,18.65385525649839,3.8293022793959737
38.089206987240615,30.985582254671723,38.09064295382635,12.39205094538681,13.603666230307837,2.9988401850340685
7.692451666361127,14.394272573342565,11.629869574260479,6.460313476026619,16.758973540014953,6.637806405859522
0.5744402568246635,18.705985085000478,5.514609882241926,5.068862277235765,12.734121617294571,7.170800125846136
28.958988752717794,33.37009724609597,3.960496068675114,14.67679497402543,18.944729398735944,9.47784063043446
19.88150024689567,4.363300881298609,11.843151659114682,4.974130418977543,9.642755584392592,15.312690157341642
28.85188409272972,5.560203967197308,8.057646489754392,9.659782309919354,13.929299915687201,34.90362022081671
20.998651617779977,31.91705573107046,13.47246487092289,5.719970766500951,12.033744194833108,11.41579026771109
19.359152728308924,37.7663200728767,8.153461281828834,10.718543358202352,12.644178877514872,3.983301172407847
12.458678647869906,23.12728330598399,14.506905161125276,10.640762897414696,1.864065890419758,4.102501518774546
8.616052195761071,13.321779094942071,12.321877617378947,12.499347158333896,2.687689759244105,1.6156669513030857
11.83868798730107,37.6130609700874,19.531315223855685,22.498038911795362,9.656034198628838,3.0346337114881083
9.601467141729954,62.84096147281888,12.974751293987847,31.442529688515634,9.795602687769335,6.414315793432506
9.07424438485235,35.90965332935073,14.396995324334336,22.980654130270256,7.66355764949422,4.37447302185267
17.59310991027342,20.849057310513373,8.821173556635694,10.989140424626822,1.3887831954747156,5.166419865232981
12.254062299754759,19.194855975074073,3.682047312719446,7.931774810602056,4.183401753276589,8.400117253471091
17.752998772740966,1.2334535126177466,10.235425264781957,6.395011038576249,7.1133743359244965,10.401867674410985
25.338826016532394,6.698553179291819,5.557658975286469,5.614774962086125,15.812848197995677,17.19861984794415
16.750000084921034,4.684611514524481,5.8201246188402385,8.250176890115872,12.661984894074827,7.221563878730895
13.495591507343002,17.159840174516344,6.5911635098570525,11.783768719957632,9.413187436558301,1.9030549282474767
16.338073742121882,26.89606212222919,10.945057027766577,11.939034841247022,9.700799582180968,2.6653435999403063
16.836013138341983,10.425479568695659,5.33825538682173,6.5953610008550525,6.986035017597474,3.23013911265721
5.463417844410829,13.824531050111156,5.5815047054296425,14.155570386768836,5.548638694953642,2.6910924584877813
16.892524481843367,8.775884843527834,4.3222243563037335,4.171642063441923,10.551866813082066,7.967033003966667
39.73954620785227,16.46928998088483,6.974102511940133,12.151144722780236,17.47462408590036,9.119410343644075
14.712301025061617,17.7587742532316,8.932893806092471,11.19642430004431,6.195495058003,2.547485320595807
20.743508920179572,6.552645542171963,4.701638637162759,6.16569873332469,6.69030004246583,3.6942051233576443
43.27828409478615,18.88182500272053,8.753984070808295,6.691069066450319,34.317898574195134,12.235656461091832
18.24507484558941,16.718685557404502,13.959422408601188,2.806300300150127,26.21571557601409,12.08959946615336
20.59889081647301,7.144349528239228,0.9213187252194028,8.63271416374323,18.44283900153711,9.452063058626935
8.912176236598823,7.44919752889394,12.893910202742022,8.366200465599078,14.532222047834086,3.2912746968360316
12.826110027312604,13.287007852016236,3.924071799146198,9.110366480306268,8.946024650379153,3.6900934279174558
16.351852784475888,7.641228967411614,3.849979206669808,5.522096737545235,7.602348508607019,4.942908669632346
20.80124782282864,19.804021169127758,1.9293953056265076,14.973997126474112,8.224057285806579,3.538361697483816
1.7034516900567669,0.40765409618827336,7.33729793196327,8.13119710160102,11.183264126342289,7.607622675028271
24.845101137954504,15.583749495692615,3.4265538044016917,9.796879969422172,22.48705858909853,9.895965086883574
2.8107329860954327,8.57916720845707,7.368305053092723,3.8141626302611398,14.209108973255104,5.19244913245378
11.292017895552092,10.225598587942324,2.133167986479512,7.799044053412826,9.520469413166813,6.253702537218063
18.608396382912442,8.792460104441668,10.478764814200622,5.088179746857351,20.239273749174806,14.595442978439694
6.451648757631861,8.225124915210356,9.256331361449265,5.214636623213462,9.333094843072555,11.619545710530977
9.535624552571774,3.700826424020476,4.238099493435177,1.083841392623598,10.477797685412526,10.675904281366439
12.05611051765239,2.6485509794898334,7.6881933395490245,5.741400233852845,10.002397822306676,6.5246275658963455
4.9531578444477695,9.713678184807748,0.406147306722316,3.4263249358519,9.949545752617134,5.681242569906314
5.8549143581828,3.349577068526246,3.294829732200037,5.808303307103492,5.466253146134213,0.7710356036766011
11.89925845836884,9.575963646141359,1.5156379285301838,9.859306604581043,7.078743102638763,6.707604409607946
5.259934367261257,2.880278115980021,3.6191860983621966,3.087576012536979,1.1299002272043843,4.470550989984843
12.490008277285934,9.458759258137984,1.2538260771324188,5.8281373254087825,9.738291245689858,7.001035815692875
5.483068510994866,3.550886221221661,0.3144008901681083,3.7044103768472367,9.037531337390318,7.462744579102722
12.296795738755696,2.259178804504981,3.126358963114653,4.578236929177826,8.903494870613665,6.246407610678254
8.20409123261065,8.072271217344923,7.203401076465756,4.732884424196844,8.97974563809279,13.063248019701247
8.99895951708464,1.21902116878865,1.8753183503924578,3.2006306429199585,3.483959795381256,9.543209764452092
10.522243260002712,5.404501513209155,3.892114209829391,0.966749081518497,4.7372928297110475,7.015669652343377
16.55606488486219,0.3982343498751564,3.406112552255494,5.728433928572318,7.896485991045019,8.009580710075152
2.4704367240769867,4.6653862147969765,2.5535084787306266,2.4119660582559064,3.8395422983139196,6.030481125416265
8.302289394142244,2.065280715333545,0.5935203318250504,3.450858143307362,4.141229998064021,2.1029430255342474
5.741119392991147,6.756448877193484,4.2907013130499765,4.02453362609379,2.336233118820343,5.619385231433379
7.998233660093184,2.213354021268391,2.6071441187814335,0.5773517956346417,3.8384411846362765,4.748736890123477
8.626733081085124,4.41968577432926,1.5903455290819155,5.039709171741126,1.0174541165945639,5.993240362021113
5.7253266294217005,2.8150310391817674,3.2364134560246995,3.4331133071037314,3.454133311027645,5.893415491862743
11.761419422230116,5.371738447553045,2.4823511895279546,3.189855372207796,8.240764558764742,5.638481490192858
5.698713739856444,3.088111232261537,6.7433444311971655,3.114517681854148,5.943091624413128,8.559202248932547
8.648881568959041,3.4514145880268425,2.6672449144292925,2.7969052634165377,2.0820153516194377,6.152054446860325
8.03418389550408,2.6347312171283837,1.5827563064904164,0.5652556491184852,2.80997504566975,3.5525527435954234
11.505693946412949,4.166804160048679,2.439711630046053,2.977536597796938,7.378214820678711,5.29172795415516
1.8814830682699235,3.6465117641829274,1.9435678287974583,2.3730871768750768,3.020705372182059,4.849524954035297
6.903479205237988,2.3563293550064768,1.5269626911415057,2.6690254855704247,2.464000836736538,2.6339221896669804
4.737230619703508,3.8366669717429196,2.213898590715487,2.0779652569118876,5.39776749318317,6.0750844077898485
5.543363912250431,1.864696699524729,2.658219032364883,1.2953910931908328,4.82901503552582,2.505228135638583
5.356579492816368,2.014081146325776,2.683592563204723,2.17906514772122,1.2887637259277622,3.1947802262549976
10.397608607472929,2.9005411881991603,2.3250329032887933,3.226602768002764,2.085621274441326,5.543926239054292
6.0878165801601964,1.5982905629259243,1.1377697804738378,1.582785423137915,1.957017916735156,1.0156590871792075
3.3975368782684723,4.453818197248534,4.420559741951543,1.6254344325460517,3.3200555796062594,4.220187217831139
6.368091688361984,0.7038833483256607,1.3154804112872567,0.782964150184681,2.3087018698581714,4.6316664961161536
2.924644357127915,0.70236968638485,1.5567501308029437,0.5405136608116905,1.5330626778958643,0.9967374625928953
7.106289789979725,0.6196257651316046,1.7748383125191316,2.5211075085330226,5.133162084520401,3.718032461156565
1.7470178186223375,0.3776543224547018,0.6975279123814806,2.736069592642433,1.7153737665193838,2.9136352820366485
5.219862575277938,1.4818399426356055,3.1225265122995505,2.243149180904158,1.0467497070644962,2.6967828191726695
5.004089923169287,6.125444156615908,2.06492006985751,2.068878921440496,5.176089491737292,6.309633429743282
5.657069445858335,2.695614557919819,2.4171644454609105,1.384255763568091,2.977441345288253,1.8586370717452243
3.924866841469323,1.76940922812146,1.0201733129681272,1.7848127886585632,1.4596842996045363,3.7096477203719083
9.016242703724586,4.3926984920554375,2.4524196334304245,1.4934009604703056,3.3609075784309543,4.271252064246405
3.645129190101181,3.0599062353799673,0.8556682515478209,0.5546085095948927,1.0937899690750101,0.8243374215609744
3.1984127187356406,3.6181964568006295,1.9352862343570978,2.316505942694275,3.39473013950087,2.0732212748808574
