Gx,Gy,Gz,Ax,Ay,Az
10.118865999999997,25.103422999999992,3.2786699999999978,5.758,422.71999999999997,78.6
3.4967544818873564,33.64069253453171,4.847635657817419,4.125898415310376,1.8193415276134492,1.2037511935988026
9.562419590553251,15.71269066702244,11.807262669834307,1.9586912048965883,1.9136136896056997,5.278087378191479
7.973484990856856,49.415426288456544,20.55373140171045,3.70998259845673,2.39662606013278,3.240469966876709
24.032962722507758,225.2715865373015,68.6599794728256,17.565592307795843,3.283220925933155,8.379589163287507
24.23309267153863,157.5418739258029,34.12577807443474,14.014560819073402,6.975179097321288,11.583970240475619
3.8680221723540966,36.66806836777456,4.386738498794929,3.9543422369810837,10.691717004572311,9.291228779687314
15.442312576868197,36.39997502845831,17.49064013941419,3.4113328422989024,16.490292351042136,13.967784860997906
2.9923997482622258,20.74095586405629,5.486103630863906,3.1108117022488067,33.923573913315494,18.402444015855195
7.452801749851136,20.617274250124435,4.717652080421467,7.879344407174674,86.51324688162197,47.541849192665936
15.59110157602448,9.61384897322428,14.980530372438732,2.9371412740464247,8.862069293188744,2.0881284361639096
4.1048140812897,14.50906701602827,13.41326850691456,1.6729498685331488,12.320541775453671,8.474192934587794
3.1115716382551875,23.064736689835296,19.594027882283186,5.685072386115122,8.765514328482785,2.713825680350148
16.060509267303832,61.81597738319156,91.64483147479326,21.22900001289103,5.2014475762818275,5.416365577277191
17.79466090246354,40.628684341970896,14.909086906886099,11.541823057648715,3.785362081960326,13.869058225235705
5.108522004174423,12.941249197213416,19.332993328736084,9.217410978216062,12.381310018524124,5.276955462604695
18.908680207358678,14.195308688786845,2.8977223528982337,1.02302484023809,3.353130955616976,17.45245453043988
11.443720492177993,6.499282574967209,8.933062776193362,4.029769347483702,18.118080385853748,18.39754520876809
31.129394843198853,21.006909558787754,4.5184591343578475,3.135863754827829,13.852468947312975,25.473496790871977
13.863475261756527,21.16728750178678,8.88182910323585,8.134698522720878,8.809349488062962,6.952301892421032
3.8319633618811286,10.833052394616898,11.444060118353546,7.510368798352216,2.321560573911497,2.2566079995159942
9.354958959312903,31.192158069016592,17.50631924737815,9.784105448246812,6.125346840964619,2.7140137702700713
11.375031175344336,21.898345125135137,22.63143374453126,12.772083956411029,10.071976443538997,3.0274165820961056
5.289643357454095,20.03644735177907,5.923550737518152,9.726217272960069,3.1185552202998577,5.868265463515414
2.037639493491187,27.66881496207005,10.663736487775404,17.885446062272475,3.980379504015024,5.463491023664886
14.617820625830495,16.897731519971106,11.2287582378099,9.472631672729126,14.90050156189088,11.497392120926396
23.097586822312614,27.25661849069133,8.608431826268767,11.00939616643768,24.338262327692807,14.751650836818964
21.680691258387466,21.62476758557969,15.367389389302577,14.35224923815455,18.222154475047972,7.880158179570096
17.467536405258585,8.798958273243132,9.241901283314055,0.7034747053120454,0.8701200761632957,4.56154456067049
11.0086253712301,22.879996828770967,14.227460776377628,23.656154226893875,5.3982159711577715,1.742403715065018
8.388300130191256,10.262881189008805,5.237650321467369,9.100866207112658,2.1774223298667987,1.3079477491181106
12.705361119926089,28.51431802269496,27.246999907339152,29.562818075302186,9.249737926506548,1.8123570110026856
8.78808647896631,8.08048737659083,11.49418656408531,4.02812479762852,1.2917981172464295,6.571338318495418
13.07950827203284,10.094162281533768,4.283908370800628,6.4212737919343486,15.372945191730693,4.499454919325252
16.51419738778584,11.66020101840345,4.861683665590151,7.656513845779862,4.736198826857359,4.880465090673455
14.791493528391895,14.991533264824055,16.558490404913208,10.387301071679,10.581334267257823,12.308324512742736
21.599474808896403,9.568443240208696,6.122425676865824,10.300939551246525,6.179037192107384,4.765635204098829
12.706622897326906,11.682408964018625,7.111532478039432,7.842634694626762,15.714131734000746,5.530065529018053
8.536712114390106,22.184892360912496,8.44591082747068,25.290726213408398,8.946216651681755,0.3344055024590748
5.704412247574985,12.9747311784621,17.32029424395719,14.661902849454773,9.101482852897586,1.2171557585635622
4.603525350737402,1.4002091991233112,6.966547676873282,15.503496436237423,8.326618594540301,4.958389562770457
2.5432126683686413,11.76123012476509,4.548022419730902,13.725237751026242,3.626124494416733,4.279611692447219
22.1535651044555,4.945545830350693,7.858498512466963,5.8759870222268,14.906231770076765,9.191754123763635
9.08627009048621,12.13107494900468,11.948627673701457,6.916824812912365,12.71168532183987,4.584384795713569
20.75084699971958,11.042206151988955,3.020492666132451,1.6336102398318355,10.460954062994114,13.289965418546933
16.221386915268074,2.788283486260589,7.94839942150788,4.6849736966288535,6.682951310864414,3.6913451612744472
23.192429485990093,5.259261237196031,5.779373546530206,1.622021626880544,19.42327278899027,7.8805360307300925
13.10355175053031,8.900231765774858,9.24432312281315,7.965489507338809,5.774736980297094,2.9870509785838886
7.604938677237789,7.573026364754765,4.878773365972518,6.7091390141881355,5.070412824589527,1.1197290575943992
11.94164691478151,10.003179624843789,7.029161634666441,2.5877391999727553,5.779036444792343,6.376519505656286
10.398118260794595,3.0694402968849155,12.38146781493368,9.669044005294072,2.3494201526921246,4.036106227340221
14.33086215529359,6.9352691978745815,2.6357770198361483,4.361509796510855,6.7370377015783145,8.860784965724498
3.6613281263791606,1.2829430176600596,0.5707592882751129,1.7045593318681516,6.134303790775673,5.4038988323636605
14.258560858408966,5.326377881530643,4.269805637555317,3.2090238350891593,1.9923773032622984,6.441404144421668
18.63921426238045,11.77018504199015,6.9342544473013525,6.252700607998447,6.525514431333986,6.338816489587463
20.023157832908876,6.074427706123146,0.44067868391941,3.474615122305902,2.587604252761041,9.215031303033545
6.065720244317225,5.196962481636952,6.285466617624015,1.745059383469513,2.2874163064368553,2.2283755633090494
10.779657620482702,1.6235644872553203,2.4804851706441506,1.6812206121730102,4.936912784477982,2.551383189769336
14.788538886868167,4.688889607963325,2.0064903948536386,1.4725488671997884,1.678297335007148,5.099584608763327
7.31685789037345,5.477510747616319,3.411400103364357,3.1148549438274142,2.8291230555390854,2.837139359496865
13.89439148336893,8.399579761752756,4.256751713994235,1.070803969971582,6.913200519231568,4.124988729081894
5.885739198450857,3.606912090953903,2.826197080442837,3.401566215372733,3.569864732540437,3.7774884490809892
5.291369050339155,2.9703053280004665,5.774916736413738,1.224334261152752,3.213128107870523,2.6659617771809176
9.80029353494144,6.861456666939094,4.232775431392233,1.505118125194205,4.619365800060518,3.8309834716704443
5.954071258504178,3.086349594632097,2.526226461133347,2.7926610341874154,3.440025652473893,1.2440087616618816
9.739316618698156,5.032639044354189,2.0516211318590214,3.590759912483026,2.4556028462818014,1.4718990073757503
1.9231330793399444,5.614801496497973,1.6271250461962472,2.1167667142163262,1.779240988372848,0.18960461871093692
8.645601016499235,6.253933537891919,1.9349347770461325,4.387296283623982,1.3588513952378953,2.0675713756274248
5.539191769537055,3.381605511260939,2.687587004286759,4.303604233863478,1.5202020218762542,1.74509106733527
4.941948639333359,2.7159149970302874,0.4694083850512795,1.0210108091495598,1.8501401182330364,2.099628835482027
6.0661593355233645,2.823262383263195,3.2437223333110596,1.9760383013539922,1.4435003079383784,2.985841101780433
4.498879464558076,5.189037121925548,3.1338130252479712,2.524521994080309,2.564341273581212,1.3412866331590119
7.200362861116026,1.1128606102877254,1.0565343353179226,0.6760442295495205,0.6672760394783256,2.1500579027561866
4.811125195649643,2.874329393182767,2.08635948644945,2.0947504251681752,0.4978602689264576,0.48016507501397293
4.415417591384342,2.8876570447408327,2.5451923641486447,2.01520699377226,2.904924569175807,1.5448445846762136
3.085522786938767,1.8187230576140334,3.3393419396744624,0.5177447568826556,2.177117026373148,1.6127290833258952
9.047965995374751,1.9026124729581393,1.7366160629150391,1.8994141460166165,3.966350299218166,1.229303645994521
1.691688167999471,3.425146520912373,0.7409779302913689,1.5939748425286133,0.7951222366618571,1.880412739761524
2.588318569655361,2.3191514415444634,2.6928922411861906,1.6493013654076139,2.114767476812498,1.9119342835820734
1.921402902977685,3.7354322316361745,1.96659290397082,1.6887227666119007,2.3281636840136715,0.8478636814282102
2.8895412293590272,2.3232569404714036,0.9944743664636864,1.4353484499621572,1.1696013481608023,1.3481693936645627
5.608948791684636,2.236525461183712,2.0672830728700555,1.4667847187243839,1.0477757070795302,1.2703664644051667
7.929265026193202,4.138062492810416,1.7361149604504176,0.8303759461359763,3.504837908042597,0.9301623607773559
3.410652922409511,3.831884709003422,1.7864896532054284,0.6177175946615485,1.0092806262778249,0.44303881829481095
2.888966445474758,1.886886948646082,0.4147838598825094,0.44856396297690765,2.8718339037362517,1.0243443902900282
3.486805394785148,0.8132516313550182,0.20888939166701373,0.6398481945220987,1.0911155475329593,0.6963982190744716
6.353497357466353,0.9943282799547493,2.637639341061847,2.5339606956382936,2.1691542778683,1.0936980070970204
3.470359473272262,0.8419422149251762,2.248331317792476,1.2252970221925452,1.1972881822603831,1.5813218647659648
2.9832638934898643,1.5535545360226959,0.43913732241212433,1.7178882607938806,2.2212409282547925,0.7718503334545929
3.188642851883386,2.7715208388424775,1.1125423184062586,0.3465249171844221,0.4976156385765203,1.2788387120678226
3.5346545890856156,2.032174022004971,1.0730654845879541,1.2643788150682764,1.2321730769651051,2.0693816568799965
5.72667132876264,2.1862623015251743,1.471552592539532,1.7309841518604185,2.0902443230415835,2.2024920531124157
4.033711896240879,2.1048827970683592,1.3228692042848929,0.7045737811846734,0.931356505524098,0.2106719874620156
5.585415361134428,2.958966205960701,0.3277873223408099,2.123204726477776,2.3032323129374204,1.8691488194428243
5.59025554949528,3.4397337401278842,1.931530421422725,0.6367774027715453,2.34676307802411,0.8049856085663294
3.6738664524235847,1.1064886664676994,1.0859565614669566,2.048849029317621,2.0629756661260803,1.0254088898535496
1.317818292361568,0.9054572502367743,1.5864434152925915,0.6451132789103186,0.5719498431500286,1.4909368752820773
3.064012690099775,0.9553713375538174,1.233366528123233,0.9123450174977168,1.856061804902732,1.2714248337400944
4.654011113696899,0.8390791180445182,0.5950619670694334,0.8756474153046138,1.5710844093524254,1.0470749459253594
