Gx,Gy,Gz,Ax,Ay,Az
5.271261999999999,27.805835000000002,3.1234310000000023,15.016000000000004,547.3679999999999,93.548
2.1417517852515213,32.54286567041171,6.876878069185205,4.4939988224335945,1.049037128962647,1.9913534497450112
5.857674333649791,23.12383985749629,4.350136203403544,3.554551936136782,2.1840433989494237,2.3404299204918115
13.289501998154059,12.486290293505679,6.826889815907163,1.8850741687403718,2.3955400602305916,2.6446184309081815
11.826512622333695,27.64481567087129,13.178498817803295,2.052530190289684,3.117626874980145,2.3664840022359135
20.843588052391194,29.171670486067402,26.7006508106085,3.3435994659601618,3.894045203812866,0.7508914570043225
4.083475952909989,164.35957308095837,64.89828207021726,16.512029805164147,5.610395736808752,5.674281563591804
6.634033038485186,42.74088953704517,8.959100621481266,2.1199901106597308,5.866721101063397,2.7103998689805664
10.602316705238616,17.629630794582045,10.105187814358125,4.005211334052283,6.24422837258817,5.516778958842415
8.495816532684007,39.76125339365676,7.322717821167811,3.3327853727038814,9.397364904051008,6.387260187812269
8.67019561442973,24.985042900647873,6.2173165627240214,3.553169335677452,21.90988639083033,12.162328659234372
6.295892674785983,9.011809859278499,12.129216362948364,3.0621284262547652,57.15736274861298,30.41425018442991
13.221115714184439,38.91987956722559,3.872379120118782,8.031005982584754,54.47563294817871,44.22018925741051
2.108069645444554,22.81458066938631,9.30261071275789,1.9793315474759556,14.635772805550813,12.568233073215438
7.789565047509125,21.30014088957333,11.059417521632218,3.9679223713776137,12.582186484924923,9.24006107509074
5.202368105864758,11.378039846888136,12.405041770267205,2.983840030431424,8.53932724172863,3.5472861587029487
7.324252934012259,42.0599758646763,32.29805334288822,12.373030453545526,6.9783954693716135,3.0463981525477695
9.114070283186084,57.30865737173033,92.09457511650193,24.037553015407994,7.33832033126898,5.278223899129422
11.004678874445537,71.88774844337308,47.46456534376802,23.062352939897984,5.434050705758507,1.4016407700719409
1.4686302852790805,10.270070309304943,15.872619014254074,2.5100053102597633,3.219108157671831,2.7745658900117824
7.2105907161780545,30.002853496064848,10.032789003080788,9.651716219216619,4.309644086515306,2.714553782379652
3.22200589658315,16.30940206619392,5.021546702703832,3.579059744977442,7.617232739804986,9.490190439966575
6.656841829539224,13.717126917526876,9.218697800888316,3.169085591280597,8.27191057033104,8.777482306502675
15.961858218916808,5.939735434540802,14.938163859478221,5.252017546394769,10.454411319058565,35.38756029315062
6.259548437601526,11.91175963317576,4.333175485159404,4.1408712649133,3.546220686504838,12.22264362977834
1.1719314215640362,29.1387687038325,6.385923323548572,9.487100590765339,2.3846453972702157,1.9448207891022866
2.840936293331686,14.427952255162547,7.596642336855736,5.41252763164035,5.014960463222673,8.406890234056325
3.3002238131422406,7.772499961052266,2.541052764104988,8.937770865415743,2.7429230550191055,3.565709862848522
7.484665031915363,2.43503360125292,10.665284467749403,9.922298652727857,5.699123394484387,3.8810621311037097
7.185763321492819,34.09831840290594,15.733406264288318,30.07044344203232,5.981775824927688,2.717968055221465
3.675388144224247,9.001677610234688,9.5223972714002,14.13809771408717,5.886369941087967,2.5348699433600905
15.504929003778418,11.872073207129159,7.234799688878343,5.15878238639295,6.791312535233035,5.67474260149704
4.248996135793889,11.851585727239145,4.477925961369087,5.745378944914791,7.905144159288261,4.772117424178771
4.495983074847115,6.6335354378446665,10.753723675513156,8.548762271648302,11.7940948111808,4.077362578359028
10.558590435813475,3.9986151642204457,5.757432908999584,7.452072047420423,13.891054745538698,7.204036446333028
18.626701980990685,11.607477369885514,11.073491040290968,5.185585478637027,29.10700329468691,15.526930138787453
14.088247148443255,7.987928373327227,4.716741712092363,3.182839702850379,11.870115022763258,6.342631573321017
7.819959181731119,5.6417465560261535,14.045399867269738,6.093564014040767,9.64524677826977,4.304765285849517
1.7220114075617503,13.273458417262596,9.691942139204555,13.079388452184146,5.955592590659989,1.7516356341780832
5.955978976557334,4.937598484495581,4.744764258340437,4.45518235511607,1.5839248845093503,2.046593639596868
9.440318580708,14.518893852806688,6.816872227336766,14.460992870712728,6.860803666746528,0.8864270721486796
5.955943568771187,12.880554689673792,13.727585415581581,12.905715227781771,4.44878383006222,1.098874018009699
1.8785260477943,3.9728513296887122,5.573695010448267,3.66783220197211,3.544577733385397,0.8200413174558494
3.072846858591245,2.363636696112104,5.0137366950683155,4.042754112372204,2.914702110036401,1.9165614368296244
7.06950713238897,7.6765101752694465,6.327930806067148,5.590229734344752,17.481129596475395,3.829396973944204
6.259304757039646,1.075368091647372,8.031653770608258,5.8730276791708125,10.880519310252085,1.6224266609799514
13.289959508556311,6.591044381651434,5.8551965934095325,5.197532337935559,21.929119581469937,8.224009934900165
17.03395901094921,3.2195287767622047,2.969840495995048,3.173176300769218,19.40402585663017,7.430930658495033
7.939496085680401,3.028556598241657,7.688957673690955,3.6603426138087487,6.458670967185051,2.5345387972569244
7.121663387225452,3.3323117041950283,2.437052743824602,4.098102856046486,8.93762755195615,3.127946745596451
7.019958222043292,8.633390401968764,8.344211001179714,3.6882289617775688,9.529597315763036,3.1660441881418935
2.2018804994425274,6.486292723094862,10.051858339836757,6.660522455785288,6.656555841505314,1.5975707552068514
1.4329262452016216,9.220203216665896,10.739610624688789,7.353823597398417,1.4926706624736625,0.6248064067597942
4.381612921577659,9.65929252521193,11.608698241976235,4.637893728715206,5.837576505102844,1.5510512802426277
5.9198368377998305,2.6217376531863215,5.1188897459875315,1.5422977806174727,7.842179487538079,1.5834736644027332
9.844869884962481,6.188491300991611,5.675842702188407,2.2928853656015,11.568548275107394,3.990911946791918
6.462438685215787,2.3994445888093487,4.095372591965619,0.3260240001599584,11.482844006120779,4.042473291956905
12.74011628208378,4.844205090314795,0.6826315603608664,3.294799407401176,13.697466612886592,5.846194329767661
17.808883664451418,4.821142467992943,5.629945655763627,2.285269590073613,18.180516323050835,8.833425458056688
21.088311872505596,2.7648135753763925,5.243419630579086,2.825169721266631,16.9467789915841,6.769082841598237
4.574926405807987,5.3250200371584535,1.5519997101108491,3.4420730316889188,6.185007152614254,1.1529930432441828
5.719895045865987,1.493116259154509,9.317754067739106,3.4245484425929984,8.460629445737728,4.451462476512348
3.9368570584776097,2.753593172496395,2.681005285080051,3.8555575865147063,3.9151938968716506,2.4566967694049358
2.6130757748539626,3.075632538567134,3.469665111407876,6.162378917073167,4.161577182140356,1.2565212428177297
2.6584058937815978,2.696374810856412,7.210449056987229,5.15161635281118,1.7598288305150591,1.1940700243675497
5.357113752559761,4.7758805587220925,2.665939820940821,2.7748586539823323,1.674432327803082,3.5144414336834275
2.7053517179175053,2.460514527523046,0.9812606825021041,0.4882447595667577,5.214880956691779,4.030111983039242
8.58714267039231,3.18143113666989,7.197111132758138,1.7193266463865573,11.55720042694683,4.587284908756258
2.4844812994404983,2.475809393254514,2.3084150004390946,1.7442141424850934,3.503289948436993,0.9735363825582172
10.854822629977082,2.9431574563630503,1.7243367069254072,1.1367142680292404,8.521844615645312,6.731141187087055
14.24162171524946,3.428849195525354,5.451490347219369,0.9602571373409509,11.375173893245707,7.50702711156937
10.480317992477802,4.635986684021898,2.4983134915864462,1.3419869068552277,4.85980449654974,4.7913415020719325
4.247658597104798,2.741272384292821,2.903790595116874,3.2866516956625214,1.80199973905261,2.333432527346627
4.864061565706597,2.6476293253139795,2.4823117311283327,2.6295503703813257,2.7664661988803037,3.4898354379212315
6.484002343288532,4.224830883317049,3.389208496375402,2.443536071892466,2.641288591210221,3.4334061221913297
0.8270456855441899,2.7203671147835755,1.7098328109195484,4.06375771925799,3.629248312691714,1.0071362323828943
3.588915180088411,3.013645110878636,3.1901666190724933,2.801586715657241,2.3471924197665213,2.851912363534549
3.3193155068519324,0.5436550645917502,1.212987172724173,1.5484084047382027,1.716058196404901,1.6456013726644385
4.869154232080905,1.890141797595564,0.5389275960374572,1.467083430746622,2.379069889195975,3.6840983984200415
6.721831016462457,2.2783237889912806,3.97701174072227,1.3479907643510187,1.3621477573095024,1.203119420923854
3.8525826458085435,4.303183676133167,2.0211477061947476,1.183311827754109,4.65004140331013,3.422324574170284
7.926725639806281,1.2618898767358557,3.284469248445258,2.0976683785798156,3.059627924164584,5.246537797623976
11.938851224590277,4.66678169533955,2.2503065052208022,1.6296970172401999,5.397967736578436,5.837014175069226
6.175918439284416,4.3624214673235215,3.285597909854915,1.1960403557599115,1.6217622042042275,2.4616605860394842
1.8532119266498153,0.4651465674549585,3.2459305122581816,1.9009610338863514,0.736433742228593,1.2964141472356179
1.9560424019329399,1.7312230262962889,1.5316526914449144,1.2397102169882728,0.600363184523415,2.1472700214113365
3.2886188722504417,1.5620649029934113,2.911907451885994,2.2024623537728845,0.46674933207440567,0.9045854331424885
0.27987553836693646,1.8365663437916029,3.347186036798048,2.9039349995263213,2.5569669288291323,0.16201728200604787
4.245037388974188,3.867281548565218,4.173920529282579,0.7438580153968498,2.113028843312329,1.6820966207031522
4.553368020763463,2.395312743082107,1.8104445566515153,0.9993175931557953,2.0217089967527073,2.5530407969325535
4.676254645646115,1.574550297188553,1.0950211590977732,0.7566424490377648,1.6049785791912237,0.8277432929721861
3.0785270372585436,2.7906577919769138,3.1696817177573258,1.375709917912025,1.3528824471680454,1.109024942474711
4.21449464878652,2.6671567467178017,2.770247560907817,0.9071824328593058,2.1725420490927463,2.386649522906505
6.389688835906716,1.555686750724895,1.002548226181096,1.3173045293725385,1.5436572022402717,2.5165289220826623
7.578075309611022,1.3872864705068375,2.0764993277741586,1.0414809991740333,3.2371262720057588,2.8414827350838823
5.5547713230301365,2.986826223431471,1.9293526082477153,1.767544802732195,1.152485716748383,0.4150971260374458
4.247697027345398,2.5328259515811133,1.265326481178397,1.3676346044619003,2.3639618075919993,0.9390962297954719
3.48338019396972,2.3269578922027843,1.9452437685246287,0.5463524270386109,0.468830019879657,0.4603102757440296
1.4071664884244426,0.45869812796750237,2.5639936464818147,2.153427722859782,1.0287890285397658,0.6448449488504827
1.786124635734322,2.0097082743236396,3.1990988808786223,1.8427374316581857,0.41793760870431806,0.17880652331869415
3.7141341892417494,1.5572475290208818,3.5638107862217914,1.1241994408255105,2.1777475649838003,0.7049569222938166
6.192983387783086,3.4977721776963806,1.4305929246960265,0.8165871929320991,1.4618147345282382,2.568817189245266
4.064189308224804,1.2853347768270609,0.9474217950796159,0.02421526543407973,1.9192668663352017,1.518188394973037
1.088155902986953,1.9765087857454764,1.5314003394794387,0.5104647734927759,1.3615299485853174,0.4804271253472282
4.011398875706246,1.6920781920838184,1.3809340561336791,1.0964463169598586,1.6814102491937415,1.821782595892089
6.459793210036041,2.1791410201388954,0.8576870685383561,0.873790348327073,2.3164445459118963,1.965101087987888
5.017422129882475,1.5322532609250854,1.6319503802574307,0.7233852767802125,3.288434409571775,1.2149890866974475
2.7553172920559907,1.6592841690177205,1.1993741720826152,0.9391539318875929,0.9794480918635105,0.7186683634319132
3.5257041025586457,2.3812076707570937,1.2913416923757775,0.2662955950803715,1.6320192622632548,1.450487912773672
4.158178690146891,1.9826685306361935,1.6613922370413328,0.5820369740041647,0.842981884458176,1.2795509107491014
1.991046467822939,1.57602553327239,2.142816204593805,1.6584637806488232,0.9771230246542559,0.6097595345502923
3.1494238381610553,2.043228232261101,0.6897362313392912,0.4608649601332855,0.7137850581414767,0.8100657034800821
0.7847069493262505,3.1131247508874402,1.3587139162322983,0.8802814133065269,2.0256129036845802,0.6356659036514948
3.9884231955792155,2.820128694176537,1.308512865461299,0.5401136973545666,1.6589034659425699,0.9655961909348278
1.9726495543717404,2.0039552567702477,0.7902678537838453,0.7047692008439146,0.672108364070365,0.13678948297667523
2.4273732865830997,2.4190144493373382,1.0399961991757039,0.013040937623953752,0.21303466472393812,1.2480922763081364
3.5347745157495,1.7183576967079814,0.5710663863538318,0.40938765336952876,1.399538669518573,2.173650498551266
5.062674920571834,1.5244129466304683,1.2017123327036665,0.2955813774832349,2.118857678704624,1.3606922618132125
4.0731485591182786,1.0204493773014398,0.9802794099046832,0.9133853095703869,1.6255559095890508,0.5863317692890199
0.24386412700810692,2.4117808424811606,0.29525556495721,0.4070684736517161,1.2238316736517374,0.6996211796757029
