Gx,Gy,Gz,Ax,Ay,Az
1.6072579999999994,8.804782000000001,3.2485690000000007,33.842,487.336,37.69
3.968251000743139,6.665140144988525,1.500367235560866,0.9478199229200011,1.0047645307129969,4.665160859212461
7.152579971290734,11.09956398631662,7.148974648648235,2.988061328871417,0.8369765581689552,2.630556440203545
5.469950331355137,11.045361943854811,5.859674124193884,2.417287570625222,1.5076781799933907,0.3736943508346674
11.177791892810435,24.517543046159094,2.8483197483579525,4.2736868332822295,1.7103270119998708,2.6074684589315473
36.87329512802353,140.2778440970494,22.930047511063645,20.298661107968897,5.67666118096583,4.101923179659067
6.485933252721542,11.27079940063098,13.12062283696651,0.2411269496079632,1.5716895156319832,0.9006847350867998
1.6052576988140184,3.7062949301797867,3.569375392150073,1.4969509887942858,0.2099741372932399,1.556810270130875
3.0727674099995976,12.268125398298576,5.653884622822882,1.126915623966101,2.7808212597482234,2.2991881419719213
10.114246100113666,3.7300764063056064,5.421964099427624,1.7436946221643148,5.668154600469379,6.664563219683963
32.720871928847124,38.395793199348915,1.4382579144217953,10.746374140461366,67.65360618547585,31.700449793492304
4.6777728958432165,4.705768970526279,5.409210310007434,2.360610766129086,12.627531498304755,5.220820767667768
5.686714297132499,12.858672960455097,4.079245915802201,2.384504470453852,6.83329511257595,1.8230289556534012
5.697562271658339,2.027852202458907,0.771172930490556,1.052022821262473,2.6030949483141295,0.4421902594485744
11.909940194704088,11.926914687983013,15.189920165994216,3.408668087930492,2.926507818486254,2.6064329272835147
40.26417416604611,24.827571210307816,69.00710651593951,5.746717213910803,15.44811189100411,3.7555996665087035
6.460515534987713,10.263149001201747,15.266415391338123,3.1995654680454493,4.629663886065328,2.451798068206828
4.916277410104967,5.767277982829912,5.05840250469851,2.442547489393807,4.272038725482621,2.2534484289436025
1.5079683457083186,10.186245144023461,1.94243644212378,1.8215053779873855,2.1038762872751295,1.3740393843820558
10.458408775799992,5.077934936657184,5.814298354008795,0.7245112425321778,2.6571856547312014,7.9638103336124395
34.03464799813231,14.664856272821334,6.995580273855697,7.3500176831078,21.011515842246105,28.498264494958583
11.346289500029936,9.812005540991406,3.8918583071334107,6.439897089138209,9.643484019542766,9.97745653640848
3.7565321208723685,8.357097976060693,3.874336553714552,1.360265241467188,3.447603954662991,3.071983450303952
4.6729071815327305,2.1836919569254225,2.8631189226023004,1.0531084278427705,1.3102189630754586,1.6034986596243699
6.65111735044684,11.893391127553492,5.770274552593845,5.023843954013693,1.4094802026247482,1.244105509254366
19.683294362310534,27.27563962326079,17.738928539827807,5.965927246004527,7.0112713526994055,7.135757684234686
5.159722879578183,15.651389965904935,9.21254708371445,3.7223994900855044,1.793413288997277,4.636851671150288
5.455325740411039,3.8876729195325166,7.820965856580182,4.166642545373164,3.524586528595318,2.1616805976501126
4.446257304301077,5.488616616697926,2.1377209770415853,0.5005405191103401,1.7613412875128356,0.6647975509676928
6.62631175155601,7.240673318127993,3.001804190962202,3.4703635090856757,5.08011868736135,6.691236640116142
12.57525909079493,13.548031166957069,7.555142784744603,3.3737314028800482,16.173066159893143,16.837812013094105
9.048417463525883,6.478799748607453,0.6273647371129595,1.6663970830225192,8.07277340530106,6.1104660487779565
5.498624302324665,2.4837711318008546,3.7352599584832142,1.0842159161580902,1.8224966068047486,2.5157416192439923
5.696068206286269,2.926115563733669,1.8248762455045264,3.4483220667230734,3.882416194484274,3.5207801950542796
9.734175931669666,2.2537088724795695,3.2313786184316244,0.6492996244006008,4.937965020217767,5.3656695075033864
19.7894854913678,7.436431421407776,3.315602136368278,5.9224398682772765,9.18678234177841,7.430371151193754
4.654930158764145,6.5540411126121985,4.651205920099155,7.720909195108475,6.797723321239101,7.763947658139717
2.9405624255644423,1.036062207382174,2.1850136364903556,2.449296102251557,6.184919040420612,4.618922876908765
5.295920934263403,5.504901373325906,4.028476606465772,2.342034682640239,3.6884005471354637,1.4041962238417844
10.799873194601446,2.7492942516295606,7.159816688780817,3.57526048477646,16.725359693609686,9.011334550688199
12.036062193656136,6.6504592816658095,4.280787127766238,3.8773968817862174,26.68375253274228,12.550385676536466
6.734400129259229,0.7263284719190438,3.643848994935074,1.9957914428214463,16.642807639959944,9.5674051446138
3.44323023479014,2.273177049592122,3.08014776012263,3.7982689138222567,10.574372880443226,3.821382861541366
6.983367640213815,5.175739974732518,0.12421333315524778,1.924198379965364,3.346301636846625,2.0318214620718704
10.835774595307539,8.572710405363512,5.868487789178415,6.001424181415945,5.815255033962484,4.138802607254239
13.620199731384991,11.102079994759402,5.519767768390654,7.222338626211648,4.888067213372258,7.121055292398777
14.739212026849481,5.331952219175703,1.9977205752252964,1.8308989351409408,7.788048329231219,2.8269032549324145
3.7629457050526782,1.244165178080986,1.83316225004823,2.067133812792139,4.676964784397691,1.573764479761182
4.773868665739803,1.3785532611661462,2.147568957115365,1.7882621415618891,6.220553534284094,3.0576547609714892
12.37481408110228,3.1786532163291183,5.94031637752291,3.193467268870414,16.650503907371327,2.9358582702081164
11.630738289382505,4.090746593086253,5.3956303362617355,2.51727912168537,19.14653715263596,1.8838148842568025
12.318891302787382,1.461196551270372,3.869105965192899,0.9501582138240972,10.31600521445014,3.260575258891689
5.656786001806894,0.5663359206539184,3.233576059576216,3.854220683310345,9.84535449356034,0.5574680508097145
3.5964837887742824,5.898106431677008,0.5472367467426272,3.4227438621008526,3.8179449680021698,1.744056038080479
9.759495343109768,5.903713942572271,4.161452704613256,5.740519932523698,4.691702432786197,3.8303688959730513
8.95778207791781,9.828882680469341,3.031027475271674,7.1125491315599305,2.6936719692224993,5.777723189790926
9.559781917649572,7.414357576803209,1.4207703162396979,5.673396137075242,6.982902313862002,5.8721463495835176
1.8289507055366803,5.0129734679834,1.11935697255148,4.292433590397132,5.527777865519155,4.507897615339867
8.504715438728459,2.2637250397185174,1.0830892060295803,2.220059940186248,4.62209665796382,2.070629243497331
11.210514532337875,2.644053609691733,4.909198716072521,1.2664811701599887,11.264107854813435,2.6367919492344556
9.628220495109215,0.34887128681718393,3.4704585728924986,0.721951812861819,11.422546233141704,1.6271735108768057
10.731773730577634,0.9396123029077352,2.5676328128141632,2.5377126230976947,7.986387709645964,1.1246406587539821
6.606035445160596,2.1574886567883356,1.0805164471681308,2.2730140558394383,8.386343950737045,2.217152668259
1.9956177680617115,3.374002709951216,2.11526983213738,3.2728043551820893,4.113264296387284,1.7843147615611787
5.8601027852539,5.063097642338722,3.145846034182254,5.386537058214089,2.267139956834,3.7278055440972597
2.5037230645934354,5.551967053594112,2.4737330685649708,5.436703879687992,1.9473107528903932,3.0900587964479023
6.261036625523723,6.3618364262344755,2.1180556100379992,5.27710945180505,4.30777263161957,3.7993524236346436
1.894157062001728,4.741708971951956,1.3060320241777106,3.517701256654926,4.9951219589995235,3.1942882582692547
2.433954312176356,3.5475147785557644,2.478145390476451,2.7458976102914443,5.873896216621615,1.3936404217453524
9.435923728229998,2.6761210838557306,4.010718118430814,2.751052491896465,7.7840505426312765,1.7200643520416092
6.446580392495445,1.6167599213988786,1.1419292545199546,0.3625525623571113,4.909512952987983,1.7719979446974896
5.615905859502689,2.843661553900741,2.159083598841152,2.749668031656085,6.9333013035719135,0.40579781188351344
4.851522792319369,2.246959509280054,1.3918973866907938,1.8083391845559325,6.876064095429212,0.31138855114266206
2.3927347056670016,4.2029056274772545,2.5414800211463446,1.4826378683449633,2.287821744375402,0.7886962329186192
0.9857116186978182,4.299197774085244,3.6447054648401607,2.538570605720024,1.2822743730316557,0.2591715998828945
1.1910464013809265,2.6390242347989776,1.5667903311713118,2.820889077158819,1.3072687903555598,2.6736299966598143
1.0897415497510072,2.244401411163152,2.7030960028075204,3.022839104093898,1.7183320228841308,1.237857468342178
1.834711776595402,1.5271674754505569,1.7029730539450099,1.453345706272383,2.09627906535216,2.0883357167905743
3.711767340967878,1.0931585123501832,2.5335782355973397,2.446005006811402,4.521830094583206,2.161709433730869
4.005954026249516,2.434986729940363,2.72397479974244,2.603000797100001,4.519337378921536,1.1099164013366394
3.1218138412047596,1.3837197412740947,0.7120092951344165,0.5237136918055346,3.0441839823368624,1.3913241600544106
4.3547190399533955,1.982784882776999,1.9533567521823216,3.020157992984762,3.3710129058984792,1.0610919836140313
4.853765688243406,2.645852275330012,2.9852997175129663,1.1355985206048829,4.94038338593271,1.7390618160376012
2.222437611065118,0.8579911804460356,1.8412365320852258,1.2330117111832493,1.887875407503771,1.5031551162355057
1.696900992076609,2.5537188251641623,3.146846998249036,1.5290788960235815,1.2825608420956065,1.0541984333814192
1.2869018413286666,1.6818314325389558,0.8244948416300084,0.5009764691959477,0.5593909210579012,1.2472984784068037
0.8367691434310015,1.6188632415332105,2.766709063478813,1.9983990952111286,0.8642889321438926,1.1283535559704239
2.5274918402720803,2.04832428873225,1.2115314346534858,1.1450574156242355,2.0202112153612197,1.6392518890912378
1.791097300794568,0.419704631848246,1.13495733421016,1.1747862953462094,2.271339267074163,1.4681392594045568
1.1411892782300534,1.9353355096663862,1.2229383294227814,0.9519372934016734,1.640523433205679,1.194261481549271
1.977266749232963,1.6129713553347518,1.3361427284013758,0.7323763155389208,1.5555129466075164,1.1600998366888358
0.9746421876005865,0.7440593077298289,0.8890711550877304,1.0595715896840918,0.9704189052135177,1.4640011228486327
1.8872589050232416,1.8353505724591834,1.9644085587036741,0.08649281262011961,3.2450749741479386,1.5244418547119825
1.605335354769576,0.5649507168323411,1.259660249640004,1.350228364479643,2.1478832334647984,0.792728986126062
0.9071601404171806,1.4148766949946223,2.1308856716635285,1.45762138355055,0.6996366933858392,1.22342998646939
1.3369965261456973,0.6961907479087934,1.1141421508659568,0.3411294414696667,0.6963666754832404,0.5192127248077427
0.17908718274590288,0.48885171597292904,1.59907953356576,0.9900456918861227,1.7274417741325736,0.5342438733705186
0.7991990449955007,0.847693412886324,1.4555594060249037,0.6890061982718502,1.7891536530172643,0.7907330259413319
1.4744750508085256,1.1642269457308165,1.464605086298472,0.8021685093358308,0.8381138580939691,0.20938963937557278
