Gx,Gy,Gz,Ax,Ay,Az
6.269770999999999,9.335911,0.8949680000000012,48.232,488.548,49.466
8.743816652423,14.312403872608357,3.8240135316682706,1.0479125854786537,1.2820739974731132,2.8388849789886557
4.756044055987821,12.456002057253462,7.993211021823376,1.530827985395867,1.7573884941476137,1.3700553717967416
3.923122719610697,34.97860524538211,5.665713791614484,1.2950673559970929,1.5658077892654627,0.852847396691712
6.0871539621930415,30.774241721910407,12.20895085208261,2.251935564660145,2.3071402287312393,0.6263898158809519
15.405217438047574,147.4941571925211,37.52050518757228,14.840279008289903,3.515700439273672,6.777268642471221
9.266603547459782,37.871053786089234,2.809872369794976,2.2988132562064068,6.609209470579216,4.609684810568718
9.601593096137146,10.37543152531859,4.781403946090474,1.8082259669618796,9.508451885127652,6.546079800376675
25.645354859399678,8.415229695757205,1.4695846740346719,0.8151233759794516,15.93554851477739,9.649606797854739
23.60296320934946,17.726171304171004,6.338189470043603,3.4603640425556454,23.273184427529547,11.068515673016213
35.66901968017845,41.26246261325626,8.832876004947918,4.455997045282862,62.094850254234494,31.010297226429735
18.170306156778427,14.877660644933519,8.547531587212916,3.619336856900925,13.110423417626189,6.512063919589102
2.118111220479093,10.161641031077815,13.470616605850685,3.8469792168230144,8.306863968102055,3.612687619286206
5.979015665204503,21.180069123122156,25.07144600905319,7.959157800895437,5.078285452829961,2.6216721842968598
2.3450643255800974,11.118468877473836,24.1633888681109,6.269057128609801,3.948668867132389,2.8805062959403775
9.998286433026658,8.883694114435107,46.88319007293609,6.82241925154167,10.499883950654041,0.48439250784110705
4.853922562149058,17.328931125399976,12.000471376818211,2.9036653694844334,5.362430472089376,1.3907291769199153
2.957544682640543,10.830655960260748,7.530162389468816,2.483694783851645,6.93274673260444,5.558106603142726
6.938710886063994,10.976733163268465,2.3954930866828104,1.0007268216146505,2.895820998210373,8.808343362801503
2.5114021174508316,6.1555743044488604,5.49162571307479,1.767917355370109,6.501671936354376,6.968640373785688
2.7419213817043047,8.47752195897999,7.141006638213976,3.661290922187815,17.948943775108393,14.266429667827106
0.8323836157113387,16.31901889313323,2.8142351497604827,4.770953838567851,5.833615938378837,6.6935345958084245
2.202306321110542,5.777838238095997,6.476821486932108,2.3833330192572593,3.1427789312513683,2.1973496462024675
5.8946635582064575,13.806496516368291,7.5641285619110405,6.211870006592075,4.366935229389104,2.2402337378496284
5.315502474871284,20.351561821234583,5.472494642367967,9.269273905598498,3.9351805113108633,5.3427153111048655
8.110120071066772,20.612709214334853,8.440061709025041,9.658915172800063,8.73776028495435,3.7023390702560324
5.568438707455736,12.693142840950436,1.325579967437636,6.2178266070387505,4.781875653869732,2.431800873273555
2.1151126744224475,6.124197684543221,2.8866740424442403,4.792088990257675,1.8370005344816551,3.8067520220588906
3.9804841648296714,11.212244887573746,3.5185000236281887,1.975524028707441,8.069428725873498,4.913935613680799
4.923144791108717,8.023863138381495,3.796260615209582,2.3998254454682226,10.806649346255735,4.666030095440181
16.843117996127326,9.138397204827456,1.9757577871111174,8.195637464264317,19.119888592959807,7.556702606576844
4.468121686080332,13.562376891070132,1.6845018519024981,6.816018023593829,6.416641507409031,2.4623315004641486
3.286885313563878,2.5780900678643346,5.438809600023611,1.4954020889568587,2.586658960288215,1.1956521157931301
2.2866438899013155,11.296072655657275,2.771223817459713,6.342671066417278,2.7086941532741835,1.948120094957691
1.2784853123554467,18.4331269041972,2.443477756138857,10.84446179547763,1.4040788997932183,1.720582472071458
6.726592539809088,14.781073343845947,5.426714751693436,14.450887456622388,5.792529392136773,7.631832025633591
3.4849115999393234,8.505695933999242,3.6246834290884427,5.945696998770281,0.9663834232002539,4.570140491240161
0.9270271601892675,2.981797947464671,4.173628680676333,3.3932690460319312,0.8108821442211219,3.1800433284546963
3.2505294648514726,4.987828748849065,0.5922307717752179,1.3800302841413439,1.83107581324088,2.865370914417188
5.512998321170585,4.859152647187229,1.230439404230277,0.861288029035586,4.744753587328107,4.6551149553314435
7.375491036520637,6.374597154290546,1.1905839832420566,9.112692252588161,5.593804520931158,11.256553159491263
6.4540530088684065,6.1242018036815296,3.2259684768308374,10.42097055595632,4.097157844821244,2.1541887446206722
1.6115279887438967,0.4455826979844878,2.239601427557542,1.7871145059593205,2.546353262050858,3.1451727280168207
2.270545222427736,5.731746719027796,2.979849988921381,5.5165280114843425,1.6538563141071254,2.753556355720751
2.452183930211796,6.749526500166724,3.7439205392847628,10.246328010820243,1.6894772458515597,1.7976034058226136
5.800284969766351,4.3033812632903885,7.161608913608172,15.27276073806298,5.505935957973971,2.660385487763151
3.5728560757984864,1.822799292705982,6.250089783024023,3.8256526306049503,4.869615500291666,4.915669523073103
4.96957833414137,2.445190528077563,5.374249562223481,3.343661142992901,2.741425453090312,1.9021749487355948
2.9993918147478773,3.50723883559176,2.697662912232557,2.9871769384128517,3.801940164469771,3.6670585705121312
0.8434969740254359,3.4317628803706186,3.079901208896686,6.187962473630097,1.3560278123631446,4.366101941344691
1.5009059716047652,4.562989771838161,1.7614891448951482,3.85669690006313,2.2233115608303473,8.49459007567782
2.7884268788313333,1.2652140117031123,5.140726286406572,5.31674234972131,2.3480919086658925,5.40480514103482
1.725615061408272,1.2295506746174123,2.319564094759524,2.4039918664997963,2.839425027623467,3.246026156823184
3.6087731645147567,3.1117800853782374,1.3378622815888286,6.114973834831665,3.294147056090761,3.7505204438239725
3.9281078643950496,3.671626160054909,1.6307321262129553,7.9861562627540374,3.935914184141727,2.972232922943702
3.302393219717296,5.777346774222368,3.2046097635252244,6.297979534010948,3.1552086935102617,0.1320472578186787
1.7526667641311477,0.7002656685296214,3.3254429340684215,4.189441563644596,3.628090078680428,3.113450687971553
2.1321748506001974,2.090091744615316,2.1970806314236047,2.4169985103431517,1.253484691094234,1.3321001492846054
3.428272666865151,2.7583979083946364,3.439127898211909,3.5342420280129154,4.2584314037753055,3.155441792768218
0.8716953028007334,3.1334394311212317,3.2167479665993444,4.913887079380875,2.296134741211259,2.1979584361937996
2.2992879221224385,3.0702354313626152,2.7716497401275593,1.622903044302386,3.489972010164468,4.765865362209833
2.4365287651104444,2.1790899674618,1.912360258232864,2.512678215708728,3.948948513854958,5.491555674489506
3.4321414080715082,3.3138104104574873,0.7977748819203851,0.5339220465383786,2.0142782942566297,3.549026770179747
2.0965470211200374,1.311046808154428,1.1170236490454157,3.774365910712708,1.261024291656975,1.7085944031477738
2.368407579485175,2.6072790775522234,3.6377065489970906,5.58041000710562,2.7983954801689794,1.6703006924504555
1.4114115743965472,4.911688869329486,3.55825746309889,5.882465692393562,1.026141698172554,1.3294212678667017
2.8963380407621147,0.6879729706297681,2.198731331029411,4.640362374918755,3.266295407450175,1.5385853982680917
1.560053549734827,1.09095816167392,2.965802984609433,2.262721694636184,2.522446234933691,1.5427513555676622
3.4891498904848617,0.8938270306307697,0.5961857378871683,1.2911818125150363,3.3035005177638053,1.7296444602828729
0.27452843122962123,2.482002014315325,0.6538506908749291,2.760503900148242,4.436963708350277,2.4633908702632987
1.9086798668920202,3.035734437840727,1.39264442818771,1.226916144519096,4.376850432249267,3.7178612715382995
1.8096675556512056,1.9128701388660512,0.9270706036841745,3.2860115457667316,3.6827053397844303,2.3113464090339733
1.4430514649915427,3.1803131770110293,0.9144784380382939,1.2661156361308412,1.239541452723765,1.831107162562229
2.202191533917035,0.9772545503479022,2.55602932074469,1.3662982293620485,1.7861994849492466,2.363755761983409
4.103671114677916,1.5251163011235715,1.8097780964064525,1.424908023356488,3.087679637864557,1.71598896903523
1.4876464648775638,3.2491266420931897,1.0584351741382167,5.961319780637947,1.3375205597361268,2.253557578638097
1.5013631927912088,0.9616973483890984,2.2778347059296413,2.6515495719100337,1.5623696942014622,1.5871659444427777
3.086855364522551,0.7729329505826101,0.657631783069645,1.5211005698283155,2.4591023590142465,1.5850219264107819
4.21215923971381,1.572481350071923,1.1618352773587084,2.6731867832152343,1.2610299051184959,1.76648665807611
0.48132602737935104,1.254035001002522,2.1340127452603905,0.9735182691701728,1.4594596730026432,2.8787258636291067
4.351840197590235,1.805989297830067,1.268986502507229,0.7473881261759873,6.45648580945576,4.478165114088379
5.113475009815894,1.0456238817780386,0.7188337206003688,2.4064452657521533,3.936576202988852,1.2813660176775985
1.9438554435842175,2.4961455038443323,1.228343605899324,2.003292024116763,1.1330359526523872,1.6041806267150762
2.9622624918176506,2.2275962345629345,1.7534349656917587,1.954603218409042,1.9854267120514772,2.453335764064291
3.632634663264792,1.653832509456687,0.5920462800043536,0.40728055744544944,2.1481436890196077,2.592974821536231
2.9923101551840987,2.598693796543971,2.0787131825991843,5.264755140772646,2.3060371329424907,2.8626049726609173
1.3001639432532435,2.082561025534131,1.11842581169371,1.113604656756056,1.2479971913066943,1.3458257767806843
4.403063625025503,0.9174193489351614,0.42812811498012304,0.2625558522724098,0.7916977785746323,0.8981948840203768
5.610864297873464,1.99508985844201,0.3253637578131572,2.023379163179423,1.6432968295786141,2.9940270691204494
1.4979102707051823,0.5784540316418814,1.7314546373069408,2.111478509265893,2.0749091828403827,1.662243695650366
5.032475341307532,1.5201549334027653,0.7258515407713296,1.2743151601031302,4.701835651618547,4.114118255190756
3.7772416759277796,1.4070348165907303,0.29297570630404884,1.6430298928199518,2.346966595185932,1.7425936545362901
3.7242859614850703,0.9633377475484977,0.6865630685517844,1.2147089939387465,1.0947784177750692,2.0274267544951594
1.118948029536105,2.4383310736643535,1.3806151961888156,2.5275555613400424,1.9849248651350588,1.398288530261428
4.0379349275049385,2.300604137611952,1.0996813735646018,1.2068444952223312,0.5915463009016572,3.5103134416691777
1.142026530505634,1.3694955384227356,0.5163762038067655,2.985402830137239,2.4440947163757016,1.551750240702564
0.5700716241948833,2.0186766119312627,0.415886483421009,0.18987720765494487,0.5600496988112621,0.5517475486325268
2.9333158008392517,1.1616595339465383,0.19131381507173303,1.1848241847303103,0.32994381407843415,0.3993818264400062
4.965226117015318,1.8391929626960655,0.945640711317253,1.3802377474727938,1.2710072476761614,2.7799579154269654
3.396136589621075,0.7793495516056279,0.8982095477377413,2.5051603459344105,1.7463053859976485,1.9763727165313953
2.9553505613338165,1.158798526949838,0.4997118351364645,0.6354628070388865,0.06675142147551671,2.372631225841469
2.106590929873788,1.4877013588625572,0.12955720136108298,0.5259171773804666,0.322078897405509,1.24521551423088
1.8883144692732121,0.6291581795511141,0.473989293530519,0.3556120634059785,0.8190069403663006,1.464022338258488
0.8489042605330626,2.2143379442193827,1.4729368180107765,1.4870329982746509,1.2304071897069728,0.4544096596549123
3.1246204591670432,1.938920538361965,0.39712341150421476,0.8764613538183462,1.100592712905863,2.074217645016748
1.3480247069724725,0.448175154159441,0.7135654292517855,1.0487576440012152,0.8621321289112587,0.27974979754451906
1.225968406776371,1.7063632042762986,0.8698860276559343,0.6529617687674434,0.3137886610346266,1.4301533225391414
1.20409843845901,1.7594666136502692,0.4659281400700593,0.7523422410119203,0.15254329659015897,0.8147170291030671
2.9143140388348905,1.3442675645691973,1.1417356256769056,0.6374038658237875,0.1984054638548269,1.1101388847653277
1.9185756595883858,1.3132504303751473,0.5926443561277132,1.6910573686363153,0.7455079611078711,1.1365926397529544
0.950010212882049,0.980093334560238,0.4001398173183822,0.4078256649889651,1.1681348551200121,1.1124467034631107
0.7852829619676237,0.8272643337157455,0.26374240366938917,0.8107045438962558,0.5348916047113261,0.8749437936395672
0.7839657560715535,0.8440401452164095,0.42345403277310967,0.9020181011115257,0.9574367691749178,0.8802208777847754
0.3740529004488159,1.7842014629182055,0.5311946786053643,0.9104330243631263,0.8299799119533726,0.5823235388443951
0.9996964899220273,1.8149667464127621,0.19151993634796946,0.28157728706895246,1.2748478457057826,0.7097180476063053
1.0059373438810002,0.9747237167480443,0.3340642954135821,0.9495448550099072,0.32017431030395893,0.18329949068505216
0.9012477207850198,1.404772474628664,0.5999192652672857,0.370893331933534,1.0254919038810413,0.6941939588482434
2.4487870900931954,0.9843012998067924,0.3586364359639056,0.6982218836392823,0.8414542802199321,0.839975854479499
0.4685827397113438,1.729060595566203,0.1618605644404209,0.42484454096302016,0.8088167166515241,0.1860898388175399
2.3670630514972006,1.5801767974385128,0.0839811742113865,0.6524184194928312,1.5140455296794637,0.992888240335144
