Gx,Gy,Gz,Ax,Ay,Az
5.868085000000001,11.243064,4.025922999999999,6.619999999999998,421.13999999999993,33.37599999999999
4.038418564124823,17.16997722848859,3.1792686739449496,2.37287897859428,3.253006522155069,2.8057646345576184
2.5629749691867882,16.006221043440853,6.172499216181843,0.06867158310808028,3.4709259473216445,2.955017062076737
10.302638520085758,9.9971447446759,6.581190685581772,1.5131366728055249,4.096592242441759,0.866695428984911
18.015346310331633,15.70481875679382,22.9670987011719,1.198368240852329,5.204252296023996,0.6441333781969107
14.45103575958819,44.21182983451913,34.630653307133514,4.535494168283743,3.2012567334965567,3.2984941917756925
7.623444282188459,15.628310180700359,3.592774511081817,3.073145545583422,8.096697837746001,2.5913064334285796
9.085617212402402,25.537863476317458,7.693438195315584,3.621315386089194,11.122538784635996,7.952375961975257
16.865332248925807,9.910526802909427,4.9094922717670855,4.6758493992019785,18.505381685906197,9.88447412460686
23.506121353415214,40.96813793291001,18.143327703533018,11.297321362585523,69.37875821373198,38.158186547606185
21.535370530566674,12.182556883062414,5.5308184914340055,1.7302559749046054,36.718745233737636,25.117083854303
7.628394638412252,4.616501791095229,4.4315494716796895,3.05484721890647,13.284573165203623,8.929747124010742
10.28767188400143,9.645985951710992,5.301116390235914,3.253288007109705,6.005602944475942,4.030443118144014
11.272939192201044,13.393369287329442,7.179771893519836,8.28813019998833,2.3083281060012695,6.1826039253273635
30.577377677391436,78.13063533021737,41.113255296633696,37.12202674695506,10.900654918956944,1.99222278424099
9.011514040261403,26.40694479730039,14.487318176011716,15.502562748739388,4.794271917596694,8.999066340653433
7.751104811646051,12.553316218229979,0.26221417482407194,7.583294832558976,2.3614838324213507,9.786992603853525
10.327221909861619,17.646461574802938,0.7408502277960487,6.18281006999096,5.357491897495496,6.058075508855054
14.511198038580396,11.465009780572165,4.355585127181679,3.2033976967847777,6.375894641856029,15.869922713785966
28.780929549850352,44.861317211333976,3.5423082674168294,18.149304200791626,14.49843301573331,38.12119560510733
4.010728948640827,15.395336333797339,3.7840225745581546,10.063672697155404,5.540845400665171,3.661985824824861
7.649094443140844,6.826857470223374,5.18647956766138,6.1381779220023915,1.6400029305722774,3.149556514621592
5.894691059924019,23.45304014323842,5.962575990175383,10.775468758339459,2.3502904293790277,4.151472431424702
22.790770548432413,41.592465554917375,10.73269054107822,22.424269702772115,5.157070600897876,3.345255402244421
25.67794879712136,45.114654525237434,16.222718252363848,29.48267153095972,5.276291034401402,3.5144967014700965
8.704101333342122,14.278845640098366,4.235937520942623,9.671905697091308,1.6623883781050321,0.3205793447292848
7.59558081684642,9.472021131323036,2.236960024910317,3.9899357585867463,3.1533721318585193,4.418114657702582
5.327409059440636,2.843258242267272,2.3072803479772586,3.062611802414364,4.4304572978962575,4.736191777399806
24.69007755224167,16.06539839720304,0.8050074676192567,1.9101572667962352,31.56982072193532,15.383876524216497
13.862472145698987,10.97546642482072,2.5727826419938316,6.498798188592318,14.570703728850011,8.532194380872243
9.235383527336488,2.5817773175997756,1.9621060393644263,3.8417513367370812,5.775742706543134,2.8246424410512554
1.9517905217000506,10.393765644554085,1.7128780716078,3.5511902678056986,1.7617002781245192,1.3116214422407702
11.362109655086483,6.589589803525847,4.656430098495576,0.39640915521858183,6.848263223749629,1.2680253066679708
20.00259773301931,34.267575227088486,15.474096887465299,9.697045939997382,4.011304798290181,2.0246605574576755
9.134628042079504,12.853288382821598,1.9389461230344214,6.447434037078736,7.735886532440678,0.9432779090385507
9.823108035524015,9.084747294604783,2.833741683347909,6.8727148066037715,9.772973129152561,3.47566441593627
1.9927316542347755,6.452522461921866,2.165559931259795,5.25052428239996,4.436758810634563,2.2492642907856157
13.607043100048799,12.146449482341488,4.514690982036484,1.542074675771883,27.087940801327814,6.062045771266757
5.63264085141976,6.083084595238199,6.3086633429590835,2.2077122469772372,30.387466976354123,4.473648248212769
3.804429347859842,4.351361297116552,2.305821692003146,1.4076982525385273,9.229460867973478,0.7200294391612932
7.693047424953471,6.589208590614256,2.9977871459174152,1.8557080698074522,10.500333766503044,2.421788975507495
5.551207410577953,11.726908657386968,9.049491701760832,2.4536700796452977,7.640448591106013,2.6586740026265434
9.65821726396145,26.45974885846733,26.407989540374416,4.240925925417464,11.327358562361663,3.1416087351132713
5.8229402498906175,16.27237014729433,13.285873946817839,1.9656903945734006,10.312220814197406,5.147527587713014
2.219643452146137,4.248923682055409,3.036806275621883,0.6344741119733265,5.940446177306099,1.539243357668052
1.7705753284132622,4.183432252364526,4.087294107086539,1.381330353917284,1.870057990527058,3.1475468157198527
3.800124199860115,5.469666781631813,4.699226509897075,1.9855191063118507,13.361109042401113,4.627448733096834
10.408261645764778,21.306414923871657,9.055832187017545,2.789373712214135,28.43311106791386,14.266290568897954
6.378330023731197,13.740051615751954,8.094624470211961,1.6717380784246976,11.395237861988775,5.419321765034972
4.583041332452746,8.641697795449192,5.889587071218553,1.0995046097097707,4.19076159826657,4.104234656760685
2.597890114798512,9.593256955260326,8.505071707653158,1.6197420809128338,2.8271508425702314,1.301198159929062
3.718085553141434,9.219353609950598,9.838467856864343,5.043275542415981,10.008175119242074,2.2355859794640542
5.0300889672550255,7.8406633150482,21.037399545544915,6.457444375765034,8.360009800103587,4.535546958439335
3.9280063202641653,6.364085437305202,8.833050136800553,1.4358234249463846,5.907129551084962,3.5662332336750886
2.5359244398186154,8.769477323870294,3.4996255228338082,2.923219796156843,9.707234999835846,5.620115052672745
3.1107097530411156,7.927780122531184,5.2599413339800325,1.8647714893519132,11.214737473122844,3.576841989689084
12.28301113671186,15.965702760911352,8.161828895420975,3.9747038320928048,16.99987926065921,10.265315829706333
12.706355198161164,16.333555673446387,10.535899583136192,1.871634563715224,12.584427027804292,9.247850776251125
2.90093468327487,0.9399200928951973,3.8528924901964277,2.4932390808785465,2.020336793602195,2.9364806385217523
5.269106660379891,4.925450924164127,1.8220175450008835,0.7059332201979478,0.8629956271460141,2.662808487871472
4.994469563072448,4.496072032595005,2.125726007257877,2.784755464087828,5.176124483407836,2.812500378365221
8.143799587454632,4.743984927276558,12.070619332562188,5.057090024096558,6.982685784785118,1.2423863712880447
5.158825021911053,9.681728732708137,6.465978848087288,6.007915654894881,6.737201488429491,7.356008019985042
5.4025035863981925,7.507121101771101,0.683945161667854,4.4754728041465714,5.173376265926489,5.375713826794721
4.114032495511443,4.881231067117882,1.579344181452407,1.0285174990722101,1.801030321202019,1.0108719468773009
3.0533045118576094,5.450862164064887,2.42556105522065,3.413544485187453,5.825441098358087,2.6710414903295456
12.57326002968874,11.611996198377607,5.703539184932094,2.7455832590741953,8.599649951800389,7.732411148948101
8.006913944391576,6.585951215664369,2.355838904272559,0.7277971473824887,2.645310705958207,3.0119921472425695
7.609410808396094,4.936234193938637,2.3600889443568245,0.6700517317436568,1.2516115043220064,2.056777181914358
6.235545615105534,3.741868190958984,3.4963178582977643,1.5760393627868075,2.885026637212162,3.24348114088354
6.258186861926342,2.405760534741204,4.480017313132797,2.8658326409971595,2.639187450423091,2.9708299585988684
2.3797973679252844,6.798807011603503,6.332832710034581,5.083766112643516,5.516778289334469,4.073265315571269
3.081253003231003,1.9457537471720128,1.13494752257479,0.394308544960712,0.6829089854885433,1.0449992584583776
3.8778014086349164,2.529006964865887,2.170551173961174,2.1541251525451686,2.1743321935971283,2.8435811628340777
8.245554096087725,3.751993716364138,2.005686651084227,2.6697240748106483,0.9210957292525752,3.1381552545628275
8.385580343195251,7.532291653261269,1.69758512275303,1.7415051632661482,4.04246290793812,2.178136326639294
12.174520039338745,7.227602263190275,2.08459887751922,1.1272678526536852,1.4828089007360519,3.787622411530151
7.141081205442818,3.0755352428439773,1.2373649829617395,1.3779180916753313,0.8196782362035746,1.6525241515657563
1.9952250051900955,1.780113190653661,1.4979868719861773,0.9466790585731802,0.262318847260012,0.8611044394454295
2.8729793643257353,1.8391503035052559,2.7470112749683575,0.924268995665068,1.8786576402709216,2.5418218307626765
3.277359496085848,5.493424362098747,5.6711574396162785,2.5179453051197926,3.0670219003785246,2.840070875665525
2.532656592308455,2.099526358960845,3.8859420425759,1.338316293771237,2.4700899625409485,1.1842290468203946
5.697552655265949,4.087426348066729,2.1490000151419455,2.1457484521730845,2.670990727037036,2.5780758565370863
3.8444352488870255,1.2554264126217782,2.4030281940898606,0.7603845345887632,1.2789183505159611,1.784354213931671
3.5728226697214245,1.1462339804065467,1.1377543827024483,1.1240007167632313,2.06263296572267,0.9034372031483545
12.870514398169265,4.233049953836731,2.070320619062463,0.874058469332168,0.3558249224137712,2.388382165610989
2.049502299264791,1.5480831416565828,0.7722595298665166,1.4768754279252394,0.6252979741409357,0.46441521180719114
2.9468554462503045,1.853527806466217,1.363730696662375,0.14424828855542973,0.22271699606357698,1.0069858812613612
2.9796292717224713,1.5927140655614929,3.1994368113089457,0.6975424907973047,0.9190800455021874,2.2372734818606417
1.3739125441301754,1.4368802685098068,3.66191611458735,0.444092451219258,1.3406245717499057,1.8174490917867627
4.015209313065988,5.9461592202192355,4.8532353788988765,1.7228215860202651,1.8151147926367113,2.035714440222344
2.502296936147164,2.900030915193254,0.78708355027013,1.0544110188140767,0.6388539934773394,1.8179674249009918
0.767428611708709,1.0419538464940326,0.013630318049123095,0.272501957297464,0.8720769362787724,0.3080636678794564
2.4655180867791544,0.5420749255969975,1.7610417927642157,0.9818774145567888,1.273442662601273,1.0533055950271937
9.104798419611384,2.55048665752552,1.6248555715256618,0.1980024280463278,1.8298960356670426,1.0325618543980504
6.709116043540824,1.433850798388189,2.359273524789903,1.056123415402818,0.5163258202454323,0.4497641595616594
3.3100115701292028,1.0211867003815234,1.5798576250734908,1.0668579467384256,0.5631167468472364,1.138712894491733
2.578204778751218,1.1071741215109363,1.6873238498649101,1.177133356970718,0.46899550762052405,1.2353839324738118
0.8413538594540957,0.49220152997180255,1.7475607221748155,0.311132762374847,0.4147121701469458,1.0598861369316892
4.158309738574463,3.648593933198036,3.3468903188242445,1.407000608525231,1.1269139690460244,1.4529310785153988
1.1845305534553303,1.3685216196294163,1.2625214887079546,0.27497997384754136,0.5503266233490772,0.45956461434097085
2.2673474378258494,2.754334219041153,1.0561697317676106,1.0865113243551034,0.8346324876969041,0.6797151668771749
2.7287780405662323,2.5362822253167976,1.170441553648474,0.8254803572619663,0.17882752622083037,0.6926951235077036
3.5874093299815213,0.1725067895463759,0.8715624381333494,0.07894379563576079,1.2773732184025348,0.7347980345692523
7.385284271042441,4.018320775221676,2.3788227696697,0.47730486542798733,0.38715653640133185,0.1626685853810195
1.9486097424812376,1.4332500239094101,0.6360112679719244,0.6440205642387474,0.9749983859578034,0.716474018454797
0.22814779006574326,0.8595786812542041,0.5356411405040189,0.45477780356151926,0.8521117009347453,0.21012258216273574
0.0,0.0,0.0,0.0,0.0,0.0
0.0,0.0,0.0,0.0,0.0,0.0
0.0,0.0,0.0,0.0,0.0,0.0
0.0,0.0,0.0,0.0,0.0,0.0
0.0,0.0,0.0,0.0,0.0,0.0
0.0,0.0,0.0,0.0,0.0,0.0
0.0,0.0,0.0,0.0,0.0,0.0
0.0,0.0,0.0,0.0,0.0,0.0
0.0,0.0,0.0,0.0,0.0,0.0
0.0,0.0,0.0,0.0,0.0,0.0
0.0,0.0,0.0,0.0,0.0,0.0
0.0,0.0,0.0,0.0,0.0,0.0
0.0,0.0,0.0,0.0,0.0,0.0
