Gx,Gy,Gz,Ax,Ay,Az
20.491860000000003,9.515089,11.443247,8.54,651.8599999999999,0.26399999999999957
6.79182723915543,11.750551886538124,4.283769620211205,1.5946154324098194,1.1638734152453052,2.862324397369773
5.049944449134046,6.308641957156819,2.973891663849809,1.0945150020479901,0.8707570896661071,3.271652792045259
10.963669347518799,6.829636657417407,6.67865961685603,1.6204976396706179,1.8767948432571084,4.5739209345365985
1.2556466315010424,11.04840637833336,6.194900120043279,1.3241692491155306,1.6328267155542684,1.0118394181126291
2.8385841843530004,10.157379435641,14.202641778995803,2.0631711072123182,3.219318285969177,2.276313501466516
11.242647253566565,49.136550799357934,25.281245040124883,6.436347582571878,5.286214770829913,2.5404393963451803
25.028971587400218,104.97819888662002,43.13673666988056,16.592786818215203,4.536268749274091,1.264102918548226
4.752798175526255,21.556864300185914,6.0192320463843325,4.6187323685256425,2.7892105354791914,1.5771583931382205
6.413437728435239,11.275367327416763,1.3535289332744935,3.2588001303560556,2.6996213976363808,1.24172224685236
5.536976262068911,6.235194764547438,3.672747755764087,1.2493927561775433,6.938276084897168,3.929739447231093
6.31336054250082,10.333985851515823,6.644633050184482,1.4705745807858555,9.050457251379335,8.012958148478617
6.175782199509503,21.846309322840817,7.385956949882112,2.6499962719620216,14.548708794555447,10.270285925753988
35.21105267352597,24.352131466620357,17.794171588860628,4.821430442803137,70.24914473804526,34.833638972659344
16.921788491062646,6.165915136457843,2.66431435782352,3.838225028905888,37.6162214413368,17.73255863345558
3.4290092838595054,11.545284996158289,6.469761134145684,4.631184060445211,6.508403733253079,2.65672432989847
9.947509007814412,20.176479193146008,10.80128345958388,6.367796354850909,6.329879849216376,2.6163046300819017
6.72926730133897,19.771126243106455,16.117976606633245,4.810321115355091,5.359233493043427,1.7826848801966513
3.883567825069096,12.856207473131192,18.96549208839858,4.545449287986572,3.332650646304538,1.7038199266399026
2.0958517089593784,8.90919099972231,23.08691863807116,0.9290814857882261,2.620886100886061,1.3673985183312365
20.007493965230005,52.73929836097128,75.02623253379682,12.007171293710952,12.116774228187763,4.717668442020102
8.534125326290827,11.91540353702923,21.8945969025,3.129766263461429,1.0643975856114496,2.254806765456572
4.133987059820635,12.651418670047926,8.87703591047007,2.592422650387451,3.5056446907643526,0.5221150722765789
3.768199722905876,9.189275114739749,5.423023422949118,3.5761547196409396,5.406312072701197,1.7716559172397177
3.744566338245059,12.181631480320393,8.514797276516145,3.7427886087778757,4.0518741631322515,4.8178268453474775
6.611170833304726,17.24313643126461,2.4542073436147596,3.478637652297445,3.1277457656334158,7.003716039116943
11.888062659285007,18.601726405062482,4.832902112531867,5.8786589416883,6.586689944810761,11.411020956635603
15.426153346215935,20.462960821166487,9.65470971136139,12.022984709189165,2.533295765694598,18.763714054855978
4.5914276822306554,12.393654502850849,5.884163263941934,3.921036446833763,3.5300847183254715,3.128835165882987
5.345274692285795,10.118196288020783,5.986899438241421,0.7941928088397706,2.146199783265006,3.7260482356148756
3.7746049681910088,13.98140975109212,5.645477391470207,5.809373093763022,3.4388412163122837,2.5904630653695553
6.095092558057934,11.86644936655852,1.7425169270753575,6.6425592578620085,3.9396673434602185,1.8842133642270926
4.153274465594739,10.20152262790203,5.505625036990986,4.296382764247831,2.4773232191446195,1.2792739881707584
17.523765158855962,24.411507996359227,31.017175009254437,15.152658103375924,6.299818224167948,1.8383722233959647
11.485252143267,32.68667631578568,18.220585657688904,15.8286760100971,4.58743171532684,2.0791325814191945
4.389742049130717,6.205176237105693,3.469061008573463,4.249098626318985,5.273762506096796,1.8465927371818414
5.427052253587069,11.518447875728048,2.026230878637969,8.97293446761662,5.774606429466705,2.895256204593273
10.157243660204198,19.30163358343449,2.0959639858268404,13.652117713688508,9.455645875263093,5.331624279972342
5.040439033380244,5.961349702284518,1.808972796738644,2.442349760747597,4.7242621202769435,1.7351815692890868
2.9904690988137985,5.957969837133344,2.26632685040142,4.2032359163781665,7.60520178511756,2.5396329383054854
13.180567960075955,26.055285290887944,7.1320356278847425,18.493975047046472,18.889591120824395,14.166949508911562
4.726672223003328,8.34406716684865,2.4819116922349593,3.914044976814498,5.165410839491629,6.196238350126816
2.8227865899456894,3.839365415548353,2.201030526366957,7.173239203656846,3.1747997736963183,3.219101873120582
8.078158700488048,2.047953978845614,2.8339645422370974,1.184958071375638,1.3249013874779516,1.9225029318735924
3.7767971822113946,10.133574407946535,6.9729682988934885,7.532969786737463,1.7227991476317406,0.5554421230645664
3.3030577740007705,6.5697700637702265,5.326581480448179,3.29027666161116,2.5145800362165596,3.2925203324926513
3.3033298461468568,4.286436298809102,6.933953688368624,7.568636832366515,1.4653750903228873,3.000788068231301
11.613343580032721,9.463989803680937,13.69384540686602,4.791721193078015,5.300002806078387,3.0826237752948527
2.828450630798244,2.1003677734444977,5.620243033739509,7.663194943159231,2.5190865920754235,2.1577576084131365
5.691348471700781,4.280233383932637,4.53692102723122,7.148979280257354,3.4808024159645483,1.8500619870954689
6.860616872299406,10.78669958088413,3.2246052266703624,5.412607160759125,3.983069284275141,2.877761143997232
6.411647908172232,4.410052809827503,1.801239155999816,4.6003194103463185,4.441003646664932,1.9118564731956214
6.438238528665257,5.798854485923363,1.9535028198068496,3.6955193106091,6.289397036236535,2.9537594204647077
11.396394585457925,8.807536204699185,6.562286381960111,1.790533305630261,12.978975772390159,6.672795519360094
8.35954678236561,0.8788919385879034,3.9064580789384498,5.77245347123195,13.069255166539588,7.655734135021556
4.669930397525874,3.645789241148631,2.5599948793219474,4.5313056063721175,3.452306708100237,2.5253228264146097
7.390021873741588,4.166358069653952,1.2283678883103821,3.912362289352437,4.9911843910163824,3.101073813206635
6.1812281478566105,4.935246955765874,3.1701103365862324,0.6781241352950121,5.216170003370348,2.08016897201406
4.019418923651232,5.078476108396247,1.3551674841289003,2.4852137112619324,4.627678074846696,3.032166147093761
3.578193407858725,4.576553893661324,5.980419400857252,4.578726674780826,3.232042856061622,2.0918260755357965
6.184979202262986,7.230174037222142,5.318831988238902,6.51013720699635,2.921820076349733,1.501709032952004
4.8351829030529,4.273580280220969,5.556763081126742,7.6143864979846425,8.109296532595447,4.079439006166862
5.263500680879674,1.2115374767895086,3.3718854227536768,3.9133828218249933,8.870702158169985,2.634456559701341
8.529449069172381,0.859035041830158,3.6447215461660223,3.485284593549579,4.405199760446785,2.1698650653764964
8.464271297395735,2.4433467867440837,2.0841011403824923,1.6066761854672202,11.231503110731818,1.7027006471702544
6.101561102936645,1.1413283181047345,0.8992766825275983,4.647837285269992,4.679611002757744,2.1972050640658365
3.3263464961046556,3.766612675732194,2.205020477650153,2.8292406107116204,12.799587679181826,3.7396163373641897
3.3650702147236276,4.343284900998656,5.066345047180569,6.206270615898309,28.801171743625304,7.8678010252781085
1.8198212942505396,3.9294867924975785,3.4540990261380276,5.457092209346868,10.031239458068724,2.5214117321087253
1.5539743793929344,3.6826821656212267,2.857220203551994,6.831224117661679,8.091320770954049,2.3786273686959434
6.230238325112038,5.3603468367621785,5.586835282028458,3.7961080359815145,3.9998900243157705,3.799153689357211
1.2684084584024897,0.7954334571917029,0.5286282550421533,0.35257636873749104,1.9727585440239421,2.2422749692917487
3.9172428106511417,1.8074683227954778,0.7948842596773882,1.117442886143267,7.195150517563784,2.7169557265502817
7.349300402547824,7.541236191233871,10.08980246628991,9.570218135593871,4.854935725646809,0.35366697117405393
13.559969859336505,8.139961339905875,7.357837505685278,7.7594093181214685,12.647300832975391,4.754282471575728
2.9691515391840375,0.911013621274841,2.314739982324061,1.4996105547988858,5.513887067278748,2.5458929125612246
1.7969061712676784,2.159707210087036,2.499189999278646,1.8204371193947106,3.3438921661231857,1.236614597907907
3.269606010213977,2.455522845946563,1.2680592351204383,3.432218527499915,11.815725728700553,1.5845032974074682
1.5920626030130984,1.341151247899079,1.9791963951267972,3.4587462245757923,2.2056084478037397,2.042674854333305
1.5167287043769317,1.1794240159634801,1.4300667203486304,0.5508589945019066,6.73938205380432,2.111078873035066
4.509909189215226,4.963032614531129,2.939062070566063,0.6265393023319672,24.659288300007823,7.887344131784395
4.655073305355962,1.2902529075411016,3.5268588928431406,5.4584964525147655,16.52329603586707,5.745812363490097
2.0747497028502937,3.221615612439006,2.3007016056741096,2.196173826357756,3.9093313394243463,3.12457497942852
3.2722821135301703,4.555658519641587,4.1613676063347835,1.4571414107907872,4.736651390680648,3.3366658518913277
5.622100655694778,2.3390685436847813,5.214702688743321,3.0241048434507842,3.664837944260572,2.0669480004801235
5.764258989864828,1.1035222283040393,2.639731808136385,1.8960424461770322,7.082044148113926,2.043043235174729
3.885051212578717,3.371373374987735,5.717804183589156,5.827907059070734,3.1395559070294503,1.3852185758264093
9.359975401873072,4.719253664684885,7.226781841042989,7.885310985119616,8.010174742199514,5.071609530146043
2.0768589960289146,3.6425089851595063,3.9608194926707725,2.6990372803441893,0.5614821954128757,0.9775848191873582
5.868082063601783,2.059423704561528,1.452546458488802,0.37367236574531554,2.861049533584744,2.134552916907587
2.939481188902518,3.556516430445548,2.1303593886112187,2.8147699541471054,5.283616717391577,1.9415809884404278
3.6588770576881897,1.500023537218142,1.866921139759337,1.1304388239223158,1.5275955751774863,1.3296678230380325
0.8772907410048747,1.0722310723948207,1.5727280251685534,1.1699398438237514,2.320709440715688,2.5258924798174527
2.6222542218461307,3.731754884496169,2.691214096000036,2.8449388820228694,10.359687931526574,4.793931829212667
7.314951156149986,0.9546025897667183,2.0957891031559255,3.042076240527152,10.906433666056042,8.208898743029087
1.2822879472352258,1.6112331464661764,0.6043862804211494,0.9131245415734031,2.7527305739410663,1.818302148259675
2.2448010474315288,1.497672512188668,2.460289446377995,0.45489635846723253,2.1219382325752494,2.453100427955263
1.4230851823573147,2.5217642049576168,2.975543821841529,2.2967131226112594,1.5131944829679924,0.29945566019597
1.1049066480912433,1.4780177278275137,1.2656394803219548,1.1847288219191738,1.7015370171202147,2.599470944844111
