Gx,Gy,Gz,Ax,Ay,Az
8.676530999999999,10.048181999999999,12.518698,31.380000000000003,505.05800000000005,43.446
3.822348099108424,6.4746142036683025,13.608983927073663,1.4414066942317456,1.9314714339808816,5.085893944179992
1.3186167508394917,24.927704999815745,18.23043904100118,2.8044342605713535,1.8927033392293462,4.943091471501382
6.836232412069547,33.02157819492562,20.484640608088785,4.837947977371781,2.167710590356112,2.0895000497069702
1.2111815134387134,95.75499900477514,28.682100252068413,8.568764346248173,3.361599939287084,6.432105288602857
20.630627435447458,136.2430120144249,47.07106094006886,13.402440536792586,6.423793053323123,2.4188332239316503
22.827495722022434,46.92698848681219,25.633855552289724,4.536537893193941,6.191028503938443,7.187522510054301
9.211039330435618,13.555682101332188,8.621072005522198,2.7599051145777747,5.603372223782379,6.919420586118926
8.706533746197552,14.300809836375187,14.239102416186123,0.9285704660409472,13.147569705011472,13.136061643838913
37.49131985673598,47.49417030487713,8.819259249032129,13.297354812809969,35.8161271847092,46.983832926271354
4.355189994635208,24.328221561830087,3.8875897349212596,10.645424092914576,17.733247099698552,19.498249161978887
22.141557121826306,10.40105963964782,4.29036585842197,5.105705070038158,14.759924293966218,21.520538773083175
7.19611467695428,22.901843135578627,15.718435049689862,2.3378617221937343,6.489074176242623,13.010154161881008
13.714123881599015,2.277803736978457,17.09835993888472,2.2809653618028114,6.992925499597787,9.311350680394769
25.132086305721128,35.377341227811186,117.30840246619887,8.92824951911385,6.655226301191064,9.891012459981207
13.29697743740749,9.91765294254341,20.780518674740527,4.060920132202485,8.771212947177634,4.582133740355931
10.382625712512722,34.119021692343,16.230685623912102,8.48901269363844,1.3266162486870763,4.127823246528086
2.2389273471525657,16.772493414492708,15.76366453833256,7.54316198740685,3.7354716847472567,6.849850967623883
11.366318960548426,9.876024449921841,14.838145954817257,9.416305913428644,2.161602024369811,12.368937622094991
13.958221059656061,21.794453328625462,16.554978395969133,4.538440944484037,12.359426659831858,18.432722361637065
19.87744858972097,5.761472397396801,10.98705699361774,1.683081098063114,7.043716377034911,14.339737908337222
5.1908910408586495,18.392459662570026,7.4927322685286475,10.049844112380995,7.334676466804153,4.712901320892476
11.182664741873257,24.618443380179258,18.21771639565525,12.18567140076451,5.091883284439884,1.8159561760528404
6.464912360275625,49.9850361537753,32.11979372567276,20.894809837296577,6.171961727393435,3.3847928947899555
15.34523346888086,20.72490395206429,10.535464658849051,10.522064642952277,6.098573574533378,3.126851530201107
18.585744538980347,32.79257495682283,21.39767936551875,16.558372624475876,4.706117230690217,3.218961297381771
7.242078874799823,20.345738437222554,19.031553968970584,10.869991839886083,3.1267518749343473,3.2933000211976
11.136992802752884,16.36386885710609,10.263865311120403,10.715651706746282,5.024986400839336,8.879875850344161
8.289762186204076,19.56062442809226,12.850182935206126,8.674595829684572,11.043184638184126,12.083012302483686
7.11113969743506,9.012600889689654,5.881617888864666,4.492480756363632,10.261890375221082,5.666951784172499
7.491176252451481,6.2645451802304075,3.9666134206760884,6.611834324446894,6.099651475964967,7.441120697359388
7.9751151398492075,19.229786256930076,8.912107301528053,12.589227729122902,3.1847744226180934,7.081859601776355
8.118769618945162,15.854939329364509,22.783795815284748,17.689121027791295,2.155221097726145,6.227542364333788
3.6023847008576486,33.260013058712175,22.83450686255271,26.800700048588247,6.910229283035243,3.7796332837221094
13.247185855694964,21.005250557960153,17.50145777524593,14.565101429418949,4.5275127317017665,4.236450530207879
4.465941431989705,6.640637300390548,5.504151158391685,4.61933390729424,2.272562487312025,2.6685328391167786
3.2007325112047815,10.965820838617912,9.575634246905558,11.986162877606057,11.446625625431055,9.204080246279045
5.337589029083735,7.981018146129573,8.13937144307452,8.170234643489538,15.937746767951657,8.406226296509669
10.737774771326835,7.810021230868512,8.548256109300613,10.306501374276676,5.06016906223169,3.423649540928472
3.80177890819023,10.249930415053532,14.655829681261643,12.600782217578235,5.803753607171569,7.488378854130328
6.945811196843698,16.607557582824064,10.522410177524208,18.33457272827939,5.788622819711504,5.0858872160066255
7.205550663967437,21.735777908284597,19.283268150840474,30.710056978789275,6.5230716574061445,1.464625382061811
2.2610703581814646,20.907885876781684,16.549793971192372,26.763315480408806,7.267444171946518,2.2102355718221838
2.5031024228056693,4.55804916297483,6.873197527628284,7.083874601293402,2.564255086847873,1.6375645234598133
4.87991858347161,9.677337695001414,10.011500739789577,15.676829791611915,4.096297945755621,3.1528025193193545
10.40493909104513,6.194414105875209,7.212526873360678,11.894290164188938,4.582240933256366,3.038090650919054
14.439851829054216,10.364415867713062,15.828075606262432,13.71985294490238,11.225217072845613,11.543611928043422
11.931957411099743,3.548936735272248,11.910100427321886,8.644247818764446,8.088648929466999,8.211139858232041
14.631743879563409,9.891923440609524,10.200646445338474,8.184046784689407,9.61738054957758,9.164149660049505
6.879953731357875,4.515957802674151,0.14321270181745502,3.9571296223510104,4.474154940741399,2.9018505279234152
6.2537753767836985,12.103932280225555,9.329026433780296,18.41545163595126,1.955923124803849,2.8479966506387475
13.857760615509866,5.717761675496691,3.5098219061577196,10.930092399107847,1.888651980857467,6.239005544912652
6.05421328229289,2.0323907484283534,5.177451085888381,7.8374231347311225,3.2361931280928298,3.4297388885282647
14.604469348689731,6.175091965662944,12.986309406648212,18.606709419406414,2.870496086231906,5.066600677594066
6.790423678850264,4.98162627629884,7.213751307155025,11.31970494937684,1.9706508126989015,0.26479812792249835
18.10391469403218,2.6251762145505038,7.563156497461366,5.529402487709207,4.301447475099783,9.931307265445202
8.199872368357788,3.6648757283964133,2.411834466786027,5.20270661125343,6.262728683971133,5.714431777263762
10.149055321516752,5.186061462067221,2.7914289519281716,3.099568893190359,1.5888517993275848,2.7000348069258493
14.86921028582143,4.388660971527052,9.300197051028363,5.854996546468284,3.751456796071555,5.096029343294568
11.111577278677279,3.3541511574466205,5.458544003251244,7.9274076925939045,3.5451150336476775,7.877675527004666
18.000974631473063,1.608109965879938,2.6408803011478748,9.358132798610272,5.647911661703048,8.426059137450832
12.07158518121461,4.481526806872559,4.293448522597917,7.191293924484573,4.146064500117336,2.2524671964630323
14.545733231003243,2.566448168541789,4.852774528188525,6.059698744199396,4.814293481187572,3.3860600714037616
6.945454985998888,1.7582880782499295,2.5515869822228323,2.2419750675103467,1.6996361145475103,3.9037785455039544
7.421986736411018,1.164301476127839,1.6558626541944363,5.982587303324094,1.8678408652946514,4.117125453146554
14.36149312130699,3.3801276207889,2.5801778079453714,7.055968694615317,6.107505066421998,6.216180949904188
10.836071509882256,2.609361132473923,1.6828125537491407,2.974706626133043,2.7323487106145024,4.666357883643322
16.46122391654255,3.096415887504857,6.117991470616282,2.4967187438483083,3.806422376949532,6.3957920738026015
12.594514393939386,1.9517955542234806,0.8748517408164076,1.3859389386237984,3.4504117713548,5.553544858263767
9.669041409184663,0.9845097937943182,4.0330559325977395,7.289565778298737,2.401043041672182,2.5931284916947757
10.016031433096373,1.442955328664063,2.713181896802614,1.8262056582296893,6.622923740784463,4.243303380319396
4.341304710583202,2.2461118455214457,3.288442528677095,1.2356019713526156,2.4318279215428418,1.6441511136781406
11.905053109363857,2.770814202668866,3.6049520474104906,2.7744215128015397,3.6427886346853002,3.1282723639641397
5.721688669298688,3.5741076510388807,0.6591061912099729,5.121700710500634,2.877847258231194,0.3265392632594185
16.153060740225047,4.234025387455759,2.821438869929845,2.388157364355273,8.364959081887436,4.407263256291601
2.953819961540917,1.2430075372522438,1.7956075487650898,1.6287442965212988,1.0079741239717253,1.433683865836696
3.308371479985759,1.7116433992692297,1.4325011361928455,1.0308504001320609,1.3808027491874144,0.4812473976215962
6.289354024801416,1.2753233473375276,2.1842054265162494,1.869798981341693,1.2915320872459513,0.4807284131674063
4.560869724539199,3.474004697703742,0.9984894748985951,3.569373739212108,2.8725062256167857,2.998209855575028
7.356778231812662,1.0743912909376776,0.48411176892800467,1.1059439671557867,5.084197967050937,4.36132512150704
3.084295370605567,0.2245384938395538,0.2927839329807756,0.5752864064477132,0.47279243127373377,1.6577707044584855
6.932741321144433,0.8736379966869127,0.31428663905144316,1.0088401657715362,2.9927719315171433,0.9779921273374206
3.1154769600561782,3.5899794260082465,1.904733333711229,2.3008660082401775,1.637154393623022,2.1344893961617113
5.181835210687807,0.6244744614861671,1.212791251166297,1.9903442108328615,2.6264181158272004,2.4115366749139056
4.755577381654468,0.6817234108107174,2.38264822317895,4.012723841484265,3.2777728870871403,1.2468718254646127
7.465486507333061,3.076297470365476,1.3104282273257095,2.1753271018400877,3.290043768705821,1.0090054509268023
3.439489523636594,1.336650543975194,3.034794021845479,1.9571233225723434,0.7617045507190278,1.3278542046511927
5.126813588398765,0.7166027666829844,1.9165537439982643,1.3630037933957266,1.17814553617759,1.9480039460511642
4.32940039195958,2.6851912895301395,3.161347521384737,1.6228360411079552,2.872812373366221,2.265641899401454
2.0409587171964403,1.6586230271426605,0.378322435627284,1.890248037463628,2.894868906825991,1.4986342052027177
4.078053399565884,1.4752125703718517,0.7561900644469594,1.064623594828719,2.3857490629529905,2.0920904843472488
5.367209295441293,1.8561546307795191,0.5289397345242093,0.8559651198380052,1.9909341384546326,0.8444835273462716
1.9254149490874533,2.630190578012042,0.690389424396366,1.3174155438886208,0.9969936056326605,1.2957097510936662
5.664337189455447,2.7716667441752505,2.509509452121516,1.49819146602823,3.5553000168669766,1.345820447860975
4.165683853321528,2.672834442977981,0.43493850100159737,1.563055539577687,2.2427212199764823,1.2609376698091201
1.982151311285443,0.7611766609624531,1.2639934759770342,2.3748998790183458,0.7467879066947681,1.0005113721720247
2.5912945876769093,1.4389851017616921,1.0651571714535089,1.009783974696605,0.8834627906039229,0.3273371984784239
1.1141998223985374,2.151379198441366,0.35076430999648606,0.23365942294712788,0.8799279256758579,1.007508612001094
4.092199919819203,0.7280506782543431,0.5900203114312635,0.3777730851025925,3.131411594998016,2.5680800011566207
