Gx,Gy,Gz,Ax,Ay,Az
7.09789,0.1489560000000001,4.504364999999999,21.804,476.1700000000001,23.354
4.096134895327296,1.4134154472760574,6.700468814041918,2.8157158277370247,0.7999149714852448,1.1673966613212414
3.3400700092248523,18.426590611955415,3.3491378415313178,2.231784121505961,0.5802669044267412,1.5628004255027432
5.159833468042872,7.712180912730797,8.243492802677679,1.0991059839810786,1.2630246939998309,1.823491878953519
10.143080310024379,79.80721790498116,48.68526299836369,19.228212433881083,0.8389244596851858,2.2134272422709445
2.0897718954837416,9.151478948710528,3.7432355275920504,2.408525952693648,3.575826153314894,2.7397210977053508
13.624516468700294,9.99519176883302,3.216665534990876,1.1800044626253277,4.884127430246488,1.5571420224354053
10.81423717592161,14.215431804765121,6.474693303525942,5.767775879500737,10.075285466275211,4.863106642856743
28.3080799843942,45.374535688780284,6.917968923572459,7.866124634799039,70.50352198984838,39.82516087898348
6.091568472331283,12.202480451255576,7.168091876594492,4.439747653124271,13.175296418116712,7.635719179802036
6.109361785774018,21.32796159682026,8.778757048114361,4.325392651839835,9.02734788720978,2.7201915399750063
4.498254729002729,17.772871079035824,15.177629182894643,2.396027835972607,7.32717646611848,3.0362060896789753
13.450690180894009,72.0926920531547,46.460044618127725,19.63807952172348,7.44979005929528,5.5531189969990695
6.450650614470638,21.236328074598656,9.266133640684679,5.480042646235176,3.769886988704506,2.224390771977833
6.542506813827814,12.690879365002427,8.425950096949542,6.058405772121427,6.097184531622285,3.5975283031873975
7.24645597633734,21.168972772143032,6.650608591506478,6.990555575955458,6.205295368898939,3.3320143715352586
4.290546929647966,9.000543524007046,2.721091714931523,9.365110814746208,23.447108895315935,15.65665529165955
12.00564068569522,9.118385657909554,3.19321441001245,4.451197474389259,13.978664260665353,4.988683561178489
9.297734882410936,13.96523965715647,2.1697681152782335,6.810598055089924,5.581004133592418,1.4387716529577623
0.5253178354941714,12.980951260169675,1.2632704552345746,7.926107418113148,1.2178872642640972,2.4122709232542174
6.684996286418455,46.93217847893481,6.951894484146939,26.531741889893713,6.815128307468814,4.031168421067545
6.385360817472028,19.56364024062966,3.145670682187525,12.981676885158048,1.660394286061578,2.6312142928580275
2.7566331089852714,23.25166315512605,1.963448847768076,10.868855169683426,6.158034311140386,4.663033206738264
10.878790987798194,8.571657331253727,2.116689780511059,5.35140270328312,3.728135390747084,5.296784269919896
11.801347764554409,18.850751204229926,0.6708511350262044,9.419630144016777,11.341463371437204,8.05775988675042
7.203889710188465,14.331494427253789,3.864201254948072,8.217519149190883,5.832892741655569,4.5931712472319735
12.332260147578557,7.18696740798683,5.639669718673329,1.7325973476620076,4.723987209406155,3.377658662282826
7.006695806069076,16.263791365443808,1.5039194086715673,9.806677225180271,1.040544316926706,0.9601811263937109
18.33126187727149,17.985687100949068,7.2360759445684355,9.302019025568319,8.326529080518503,2.9849996131764533
9.139553350011097,3.4826490227345785,0.4313059435851287,2.115425420837436,3.077507787056119,1.1305741624138186
7.064935654401379,4.648947676719025,6.488004232303287,5.536174499956857,1.453779283021839,2.1832151008037015
4.571326418899465,5.618478605991729,4.083264384183843,2.691986735375188,3.8760248345552912,1.723896305990494
18.486630635279706,8.412311782426412,5.8870444562439825,4.341155371138529,14.336227478212722,4.157688794853153
9.830851930463215,12.28626652694069,5.721497955653128,6.884366285022103,5.797625540707391,2.4581999870760374
8.174956788579827,10.464071344756412,0.9918788442475791,6.802606862405653,4.618558755660146,0.997315708793146
8.100735692833073,2.0386755729919335,1.2155215494492575,1.713511891855157,3.0021135718932634,2.312380529147194
16.99257995233008,10.710229060517968,4.224872864505116,6.948975182364212,6.846421352716544,2.8097382363381187
8.507381942151381,9.416855808489588,2.941782345108418,5.855218132799237,3.4049311947687557,4.493008295375514
10.92036117717915,7.10669503500944,7.009917783522852,0.5007618016055153,3.7682262262364494,0.280004856145988
3.1827770867590743,6.586701862758085,2.3186039121563558,5.774709352314008,4.503326056833301,2.1171436775681816
13.538303940860429,4.558084165525896,6.004339099384241,1.8906979203900889,11.679156228052829,5.711060278897929
8.261286620618531,6.839119695278035,4.485644241470598,2.7858258619729006,5.144422298882573,2.6117596387295134
8.327381965584284,2.2512189530122595,4.185146484691718,2.0039170653717315,3.9321269839775104,3.9567015543419086
1.5587939878930654,3.4597052069850553,6.965400443132855,1.6987036748000064,2.317429143982811,2.898679621911171
11.144982605855787,6.708859233748491,8.582296109127855,4.392997007381449,3.6750442708349356,4.6738296128974515
6.340698197020437,3.9002608347184595,4.140147880373869,3.5262589089224328,3.7220198462970444,2.610825606735754
5.007371097832451,0.7595253002389388,5.785402263100547,4.985485769584037,4.884612063572489,1.2523313111094716
3.0690346339615426,1.5441149274117196,4.34730618478578,2.959393577656649,2.0872797557686655,1.5649316598199225
11.875763250153,1.3620245411328644,8.012886138574263,2.7667213300969395,11.408344996817421,5.820808112874742
4.898700160631702,3.216313627336562,4.665879166031423,0.46147970664615295,2.810878862342265,2.0197867184829636
3.6823132531219307,1.1612487299531693,1.7594512678556353,0.7453955005197642,6.995562379803824,3.023727828318968
1.076077808573034,1.9733857868395062,2.844144552751696,1.58917459808891,3.136228698610421,2.6588608894615597
5.361538249436791,1.836688526180277,5.8444611239986815,0.9456642970973921,4.7259559969691205,2.961952144942935
4.322445875872222,1.3181603218300035,1.8190973876527792,2.445016396946814,3.3750147641366888,2.1320423953755494
2.8414196065973187,5.18474798606276,2.144698392058716,5.3084944859496375,1.5277054481556804,1.2897704576449796
4.793519906238629,2.673863983367159,4.1905810939797545,2.316869464309604,3.029655462572334,1.4501941711070012
7.634723511950976,1.614682516883739,4.698156334010137,2.1184406577221955,6.935877514366002,4.247442238357895
5.293194150215741,2.8702080228179803,4.369822561383108,3.4447098233342266,5.269188898691345,2.1392712737863415
5.801283746910038,2.109173767223527,2.356393072835734,2.695123872038722,8.53718569411242,3.5587001406788596
4.261214790604238,2.746200255489057,2.471929821212995,1.637361706011264,1.3799253435268664,2.9323350519586313
3.541987630837354,3.334586730604535,2.393470569411969,2.005494330761277,5.866447088191008,3.3071149899799557
4.5510658969835,1.9314310860442574,2.9056244836727636,2.8856251541499205,5.217866269653564,3.572462855417779
1.9090667215104036,2.9604650358176787,2.478688731153585,3.335270348140378,3.4228249143991145,1.3227399815806022
4.166375882002258,0.5885647849511247,2.7981789882035053,3.2615602867403157,1.749475461921017,0.944013224106331
6.572873752332245,4.6694898929495015,0.3863241242397739,3.1393424631024023,1.462839851892771,1.3281181669587585
3.7753333882947717,2.029449764237921,2.566503923281195,2.3568650473863326,4.432586987135323,1.8439522519662526
2.521494708276924,2.201134047380186,2.293194497707679,3.5596981951168973,6.17846850658134,3.672422882231685
0.9170460449287126,1.33833971333693,2.545165506455127,0.35631816452418924,5.689417403063189,2.1559348329031587
3.18562198728632,1.67686464963403,3.3962541167738007,0.8792571136287947,0.159752526768244,2.6601665864560995
5.993486800588392,1.2233845623817803,2.1530630769643495,1.800312652837578,5.607430802546399,4.056617229554981
3.993637098609957,3.1968875017408496,1.1974138152737144,3.2420904790270453,5.281811058505389,2.32993658706574
5.017283425799243,0.42328653208593714,1.4326643656830522,3.7441408759288075,4.178050300793014,1.6909810664098062
2.640863128960972,3.035951843929515,1.1344572538412239,1.076654590025191,4.811005478415299,2.6385092792802363
4.188415108527141,1.9449385112823279,1.754747959962964,3.1723368989799323,3.004428889696941,0.7707752597051106
2.1841013003833507,1.9940583819078204,2.734192308855165,1.9472519192289564,2.7862206503517695,0.44780344168902003
5.425784264537407,1.2958101171761593,2.0113055346779944,1.0640978683799922,3.142351232724069,3.541769295565627
5.949430067891973,1.3095623782792158,2.1964867055909676,0.8576245694003871,2.9089968575064993,1.7493830818307818
6.052188843319499,0.8026509971295135,2.0434956866171747,1.4764240583247081,4.486402567759607,3.9602363565827736
3.855397735687462,1.6534187845276227,0.8987399113312864,2.0695894015163074,3.515323442999015,2.3264517809778043
8.14023131561271,2.671468993699712,3.306515684262341,2.3863870181741578,5.06674158574828,3.973128505446274
3.9520384945530953,2.337069435667241,0.41004058926397036,0.4972388423184721,4.962945090632543,3.98400996265199
4.213688914241109,3.027182365908364,0.7248140240337251,2.4933732611033377,3.004981814002298,2.0507399692177564
5.132800117426206,1.4422787852476093,0.9573773927895644,1.607075446229015,4.169004270522894,0.9646509192391692
4.322813302898886,1.4879821453121453,1.0916966856572574,0.32067077080381473,0.7828065643377984,3.3613510340167343
3.6981664230750666,0.751203072315853,1.2612877187594778,0.7672030666280578,2.76353279053157,0.8850089812330496
5.437698420060404,1.4303749133488273,1.065927217729933,1.0371728787394632,2.1756711477897457,2.2211621335260014
4.848422338332513,2.3543257390896843,1.2086331576813987,1.6010247659432975,2.1946751444799917,2.4904293445842627
5.669176005060285,0.698857368553689,0.7294789439751874,1.4570240042332026,3.7512837236995002,2.76507142045439
3.455031995372385,1.3033407157518704,1.519545229529592,1.5473107383830544,3.374208773583094,2.0316877397582727
4.361727403613895,1.9899779578540522,1.1483752034031216,1.9384047374802493,2.312843505030488,1.0803911022186163
5.909853988456086,2.2785150739002202,1.3442195413703428,1.097880952092569,3.667652051479308,1.8361167813120813
1.9305890506477719,0.7623323601958986,0.35646192037427565,0.40218171575059186,1.3876718546753535,1.816839750928141
4.281588673797051,0.7329423829852479,0.6778372438546919,1.287730134064702,3.468459896347471,0.7839163968781301
4.02700777699505,1.1763205215190078,0.560895827460812,1.002439687076443,1.5594983835968006,1.7798383024536206
3.046510621964013,1.588099918798431,0.9763504602364999,0.8412707604739528,0.7507830978622712,2.291688769534022
2.1143734419392644,0.3710924146646383,1.7711336965742273,0.9222195876202421,2.6286840365372006,1.4130868695226073
1.1687264035549552,1.5684432722924648,0.36319121664990306,0.6039930533652706,2.2444174481070016,1.4742284856097718
2.1975600434832594,1.8720348422455013,0.7339695102774894,1.0648363503893241,1.8234514792300358,1.244382943965724
4.498185016002454,0.5765689525314612,1.204335428631241,1.0655945046137945,2.9470203180730588,1.7490020339227619
