Gx,Gy,Gz,Ax,Ay,Az
4.912113999999999,6.675628,1.271027,31.154,444.78999999999996,8.266
3.498880246787361,9.693940321536518,4.774410783171421,2.9997148839370285,1.1792647574557713,5.237867654933392
7.208010600475284,10.091756207149153,3.641726332594538,2.817036531206139,1.7933498346052141,5.57191539774583
7.2439658263601725,10.064275157182786,7.6043290700879185,4.017312556563104,2.804225895526464,3.9898235094871417
23.744724876969304,58.70099473620143,29.38567809372208,13.370222674770428,2.985628729434968,4.035566480828574
6.158670387606269,31.198352073924344,19.989295826170448,8.56102608745387,6.84488813738177,8.445377787958007
4.806808988315834,8.299185843022455,9.559772671426197,3.1561916945405426,11.401025539275908,7.8109389318540465
5.6288890400018685,1.644882333318402,2.9384263159652044,1.4009244182727396,12.553356415847736,7.892090682335834
19.4811320972709,7.739555306441536,3.269648823767319,3.8406538525077436,38.5021409303217,19.58491499340282
48.16957464132836,13.167584214392285,8.037056155014131,10.35386848969048,72.26109706995581,37.82098661240097
10.233974089610166,5.706646852977878,5.097444227011345,2.237920033549781,11.028657608373633,6.167736403138183
8.643934938538068,2.961909519413616,6.736335575316145,1.3006674227118489,6.949467663313602,1.2528393004335376
5.9683907436633215,6.032218895730848,2.6435431372198526,1.4938327735900874,7.486944033450058,3.5830815133571363
9.189660987821274,11.265085272910174,51.66319697895851,7.311822704414294,23.95572107658297,0.8833865189421328
3.6538917485529123,12.793979304184042,2.857791538846817,2.56967968606501,7.873191510307405,4.02168242186971
2.854213127598416,5.692473829433025,4.045704351371628,3.4676879178784477,1.541843928353674,4.688256743593503
2.3435182372154197,6.928207128373525,3.132439586126992,3.219937012857333,5.399926741450007,4.546191565655271
8.310021528562194,14.503258111000893,2.2596267729072634,4.925942633959071,13.35746076365377,23.851391472801794
12.492315943739063,2.9367240891145934,1.9096199036360506,0.8675480954960876,6.727798264172286,16.30040258235205
5.624091021090094,4.009111981115132,2.5232172059380624,2.872952849932762,2.625862273158917,5.180949749546834
7.6331775161705835,3.630346591905113,1.6147581852674735,1.4216110185145847,2.575937398718778,2.709779650567831
5.432473824213574,2.2341130400737006,4.122721888653121,1.1541742485999211,5.6195268957027515,0.84136378471683
9.522059774382097,4.526828535463957,9.167768231986472,1.3024469811863661,11.008071757075681,0.9611840526059992
3.648989359156936,10.24640354088347,1.2734522241279989,4.525111412293723,1.8196058629580294,1.2815842301691662
1.9199273104065648,2.4097084615290822,0.4464726499801351,1.601859898090316,5.066656064168172,2.3295828595518984
3.327468174238898,2.9945949014301942,1.7028658891771438,2.245708172542527,5.277879717015164,2.619972497472834
11.252675264083193,8.754230828348911,3.4102841550617042,7.192132073192733,9.191231614507778,15.36950232454262
0.97381616559557,2.947325241331699,2.4275538229396023,1.1386355331629554,4.198030181848996,2.811088033046711
4.085902867961339,4.405093270792862,1.8935668544756281,6.951713730905227,4.691889948113061,2.555498761006743
1.0135012622515447,5.714260284011694,4.173134075127746,3.8229940797877635,1.8174631174342062,2.7292608063841914
6.780468668997256,10.394332302229516,8.716893179589924,16.34340806980609,6.287527927613362,3.333838840997597
5.3913500564795775,10.140590908352511,4.292106587716362,13.654978400573759,2.6735482367301175,2.9951448189006107
2.9694914001591415,6.469991867273992,3.2641978517006867,11.321652121969015,4.439840196437428,5.446787241053576
1.534879808024341,1.244302537609567,2.319053669402918,3.592933652533183,0.562134772234788,2.6708110800158646
3.3875257392799534,5.751584711447588,2.5611984971120587,3.4054656592895207,4.796255145516541,5.297659029436681
4.595090800809812,6.384700515106909,4.280844594240482,8.753988616884135,10.540112850187501,14.816459017862964
5.191722149941559,7.854257385162229,1.8088954172842666,7.6037002474838085,3.8951190498094523,2.105516623671792
3.5358577477466837,5.772524286054942,1.652206155018125,8.550168675517382,2.0342770256962903,0.8640786309628931
2.421151723516663,2.484757649322659,1.8217252895062321,3.658333951504731,2.766918657647438,1.6905994959312431
10.915006712663082,12.52439235861586,5.56719829933469,18.385866909307396,3.159974773889996,5.707669132993633
3.478296245879861,5.801665150712969,2.1999544703787577,3.7053151012757306,2.8885908057358782,2.48243414205155
1.2847966335110856,3.1361969168780255,3.649590112893179,6.199034512445374,10.254184179162367,7.739220015620757
3.064513819649571,3.41289689920098,4.615264987546998,1.9339866877925969,5.11072878208878,3.5433115399445585
10.283371153922042,1.725082871055417,3.3906593412114154,1.9399413876588654,16.474520327256073,13.003833619146889
8.838213770430809,5.146372947533508,5.749656421063292,4.528656206150181,6.051377584166186,11.143180451028693
8.000543617540666,6.099296300027168,6.526210706137718,10.590006110117812,6.439154430972864,3.1870545237307057
1.7882004990803018,2.9977924139961947,1.2223812159797778,3.9754415746525504,3.973058582229117,2.1747377306706723
7.8850213303547765,1.8403415449911709,5.070717181858755,7.056128684936123,0.7779100879594458,4.114448038622503
7.287596818750795,8.933848290059304,6.470834979699777,8.962059110281288,2.5807143665216925,6.483273856551637
2.575933128243887,2.501138097335895,1.221692623013246,2.057512323749024,6.081737850731042,3.533255950629335
7.541907507486869,2.2788810772368446,2.9927726792381506,4.264048805194944,4.4441743294950085,5.373539684585672
3.171598141173926,2.601462077023399,2.5935270677126327,2.078195400164527,1.8221921314703253,2.2814790092066866
14.896450217012468,3.203093022205175,7.299856620017753,3.957613203540218,12.59542230653217,14.76112613478209
5.056656292576383,0.3765517575260095,2.281390965930156,1.681501446671901,1.954572593800449,5.954169379770881
7.1237408006511505,2.2161459119755023,1.988690003115426,7.388616221174539,5.157437095441919,3.0923621341780962
3.3946304466020485,3.7032361286292512,1.9896293705850758,2.0521254927641377,6.750810399206684,2.9191510213224925
10.538229132763616,1.1365449245573447,3.5472200475692373,5.8493431902998445,4.633475118021277,5.771511381252923
4.4537925399234775,1.616260805423761,1.2142786714669163,5.700425919573174,1.0319026904970356,4.289966320418498
7.303074993720912,1.7349738105395127,3.419553067888174,1.9669535531756441,7.01028895966193,5.922028097124146
4.214990281405235,0.802128523119778,1.0651883362882615,2.4959331126074358,4.3429895544030295,1.1933485966649304
4.778221509573586,2.965298689237557,1.6782110654606948,1.7282753232620156,4.448744744360701,2.8767085724994756
13.430727843207475,4.69974493738384,3.9921112447827953,2.1274919625856454,9.286348711550751,7.677395481568926
3.2928202076671607,2.2071334593085914,1.3299426450762304,2.599829548846012,3.191358511131321,2.8999627606824454
4.130081228294805,1.9494653056835778,3.2529726179967726,5.577596994420223,4.086002971092522,2.5096094306562438
1.7849613432677258,2.8937360548677677,1.6813986113259654,1.1039310043581032,1.445259784853493,1.4412609928985816
9.469994831969405,4.0898235319745835,1.6195559216910176,7.282237093249963,3.2192743925244254,3.2787967614699167
5.553455260875401,2.3045331156629594,1.1789512290197715,3.6105211725758743,3.1153265922144904,2.151126251567785
1.9791915940059135,1.805009160830759,0.9547291945655173,2.792622110512538,5.868508834650569,2.673394832646983
5.793717724968989,1.9367017851277626,1.4521011573770604,3.088309375322387,3.4576307131993795,2.349212137407573
7.265042875155213,3.7357094275047187,0.556445599959882,1.0600276073827424,7.76060064058201,3.161144864215541
5.676869144206181,1.6486830911511665,1.2548572566604452,1.2191934210460846,6.593303042115067,2.4596152476229083
2.0007848932852226,4.040712953004609,1.4897975569754223,4.844207519510235,4.3851770303308015,2.3127753670574243
4.2870685486877225,2.7840412400522383,2.0336382667083988,1.7522475853476487,2.4819855850699737,3.921232042103344
2.579441332386031,2.9286433792214313,0.1847657692655613,2.044171201869404,4.596515656856845,2.7056678892595576
4.10689905921169,4.167074067080943,0.9293415315137958,5.326229487539403,4.564672911466894,2.6322934854746887
3.709026588356142,1.9313429600085286,0.8776236125046322,0.6454478878265021,5.1392251359390615,2.404119913949459
6.121615708842417,2.493686692893796,2.0489407067214787,2.217890936208278,3.4344173716555377,0.8813352698964696
2.7771609585969115,2.08831935993695,0.3023851084086158,1.8530292604887302,0.9515569712117798,1.5907743025875345
8.255339303960923,3.8220274634234253,1.6746152064771578,1.1576658386926222,7.059000099493524,4.628314134355612
1.6824831701021696,0.8456613156508017,0.8869472748107353,0.45165358915473675,2.916298457652691,1.0455634230799615
1.3806738477045897,1.7547419732096037,0.6846228151153984,3.8088148835269866,3.0149208559037795,1.99117886486541
3.161388518415048,1.712512237875922,0.7447647646176452,1.7314887248375983,2.055508017288957,1.5913882163633624
4.330155816439782,2.2090543331890933,1.2283222101296096,2.78862990310565,5.1697407119979495,2.9277704869135155
4.199790349072867,2.2734919930834288,0.8351542686975966,3.73872003132553,5.333895630112009,3.1465369862016304
3.5707429371938617,1.7327027638952262,1.1517693802933169,1.9354618666730277,1.7740218323486883,2.493273926241963
4.881446349150606,2.6656522841791315,1.4317308526340056,2.1397210885447935,2.2458912379909663,1.215225484502166
2.316166982541061,2.5058064648525438,0.6423751652030808,1.5214887387073555,2.4689259322400656,2.599121647423723
6.800514434055989,2.0173839251530827,0.46649773076320056,0.928140541100497,6.5273280955024084,3.77140845082437
2.3464028596936735,1.413111061971827,1.0966163327480156,1.7926250230373044,2.406204855105429,0.2761763704764086
1.0263254821221395,1.232328574232063,0.5312779566484997,3.1996659963533833,0.8189195147020583,2.5820202725920436
3.0879474814564016,2.0945797557111074,0.691220639826332,0.901532377530678,3.2705303204659746,1.0236188468580556
4.378485217252063,2.9452401270048623,0.9205972901894562,3.3014828105005765,3.550877644605714,1.5910776696275009
1.4777831954861045,0.8386913983615226,1.0604885330542893,1.778276342897005,2.187715455151559,0.9220955858964168
1.1955672210146144,0.5995241471998365,0.6790077331342133,2.491131412037996,3.688076759762244,2.340755937057203
2.3192215417649384,0.17223732217104717,1.3118526750704589,1.6521866423436016,0.7844260445344411,0.6113721270265722
1.957245215390486,0.41722070156157753,0.4752006590461597,1.147729591662285,3.5761455344662827,1.5424193416746097
4.29393396908193,0.666721827527451,0.5363241851472486,0.33254859113341456,3.6093865636896663,2.219607458644169
2.194952978402519,2.2779879780605197,0.24748652570568894,2.208857046354155,2.3407537973410433,0.38448893924471667
1.6818000870463603,2.283438029311136,0.47630956533940977,1.7123462307043844,1.567554039437331,1.604644596757693
