Gx,Gy,Gz,Ax,Ay,Az
12.454122000000005,8.031571000000003,12.583000000000002,35.239999999999995,569.712,76.52799999999999
14.297464905076685,26.32363990215342,3.4146168681487628,7.816892459554635,2.762219829318162,6.483704912862963
17.412495867778578,17.619362929101385,6.92328759133567,1.7078785059115849,0.7267080919177149,2.27572070260847
18.78786108505818,48.09837973604996,8.004168873988414,6.1824999751838385,0.9256031678551158,5.338439003395859
30.6200546450326,22.614183401110942,11.474744903820461,5.9539608388923755,1.9633677550569493,7.538525532203841
33.96844182783365,44.15206660311923,26.285949627083724,10.367733944463248,1.9748756049651774,8.227175044441326
55.67752374333509,162.38648451474296,93.72797199977295,12.13272685892039,5.842541254445019,11.519336891784532
19.499862537186388,43.59525791479741,32.740255180919014,6.458198772417267,2.617722156062747,5.681586074694263
10.653762215912446,49.85397759911652,32.84820342872371,9.421202088596246,3.0883700086719195,3.6021574314810394
8.462390056492099,36.914357211744374,5.171191617900539,3.7353445620031605,4.5590465484823435,7.469330245363199
15.639439261016639,18.281791484458896,2.8104733503018027,6.451601868710151,9.017026231583637,8.743898782823917
27.274416943606948,7.885693548499222,20.305009869071935,2.073714478039928,21.69023304724861,14.474549268155867
52.997193986768266,55.168611770057844,15.957303815348068,9.638942588793908,64.25488983881337,59.580398663992725
9.112787847118806,48.30153700158601,19.320846743077716,9.755624089790025,28.152007081577683,26.335068491742216
18.268352453756574,34.13062699959488,4.946237752362856,9.343937589573578,20.82238883349758,17.97057848864519
13.606017006438705,26.38465477125725,17.091709037560516,7.8563738769324,10.23384249652749,4.75053998320351
13.86236235878589,10.690107267747354,0.7294853002756143,3.8513896874035822,1.661259227917083,6.637634891466773
24.035677732241652,30.48999193532376,48.05235101528047,9.354369393879209,12.34504466756615,6.204177473201339
33.045773714165975,11.440597197914316,97.7537013860142,12.654928107026691,12.057896690726615,2.313583197574483
5.345042152840376,78.68978577757967,69.44450702998172,21.85617279614944,8.187502520910831,2.8413949378444463
23.64640922825698,46.265439324786655,64.06037228343976,11.968487157400762,22.68021484465694,8.312313330360974
12.002570383602578,37.18757397369524,36.03001750734043,9.694770944902796,5.122471941162273,7.75046183263376
2.405911441980435,21.0616030102642,8.149035687336664,3.6158801898315622,13.890784424293077,0.3064927085050313
10.231127912864508,12.963981953072528,2.856272699655943,2.8044175646414415,12.883471731672746,13.683916127133283
30.60569069208369,18.341034299234533,12.167207121705843,11.522536962432211,8.086088512684983,20.561169318261555
17.820618815971507,20.86915680116949,13.17819100845501,7.369988468797205,2.033797977987551,22.624881016650903
24.30584931403514,27.81493446167471,19.632740562067056,10.171107876099098,15.600628840554386,16.867993862119366
13.375876818534334,8.69320534749718,19.188131666954767,2.6816816410799698,6.275528629512447,9.804555733055738
11.223357189083096,11.734107821601846,11.8926109619864,7.187009310052918,2.5761122060872497,5.784397425589075
14.97636326515186,21.77739338454872,9.297122138069241,17.154131961471425,5.95519595846326,6.251476502986657
10.385789389669938,4.256395346773195,2.988568637284526,13.90965211090004,7.385215632494895,2.99442458953051
16.11775679241066,19.323735128434375,9.250001683420548,9.030362676581085,5.999190446052161,3.6498674771220756
4.165007334567661,1.7193546155038646,7.593497102989691,11.23767898945248,9.137179185380123,7.586621024568374
7.4917796173909705,7.08566937263013,12.689703826017848,8.417733704312095,14.409575472418007,7.914438746796475
9.376948923112087,20.906260519507114,12.038052651356066,9.681898963544928,1.3961555670540728,2.5207313503370363
25.109668130960152,10.343607651810347,10.205605649658503,4.034493085216876,9.378329333666645,4.48030864591603
17.15896313915146,21.421309456427092,9.208247975559633,2.4534970611597573,29.11855714852626,16.044030496615893
10.003255849650493,13.964513026802042,9.781559745685136,4.1577865132698015,25.875972264993393,8.1544864688829
13.627192650820207,20.27499069819448,9.996146145732695,3.5534494933745413,18.640705709654146,9.389513216828595
17.92921440129168,15.138693787208,14.587440386725815,18.090055064580632,18.87524725000557,5.571473191722545
17.480154402516362,15.514077347446564,13.046668150653776,16.41483744407133,19.25238589218067,5.404106177716149
24.780644040379673,10.77776449169719,4.776959668127846,6.429412686545588,15.85701831022139,5.200404669253619
13.970543114092123,17.14760058594312,5.316379576239485,14.446239519999052,5.531433931112023,3.2282787266484263
16.491532981938683,8.863131019050902,5.475697191162186,3.075384409604341,5.46229202626198,3.7942012230577644
12.078507801763251,14.485221465341024,11.132380172805501,6.790873197024316,2.6285213390419284,4.348802167619695
18.149338602969845,14.818260720094557,8.570534087370957,11.358787672554607,16.74325837723253,7.73883234271699
2.5996804771084694,6.204036645139832,1.7462606294337335,3.6835801580976573,15.731844837127467,1.092319219541248
15.647755578026592,3.968884686825351,11.795408879346862,8.61666058963778,10.550470182410683,5.258989065924061
29.269795888239212,15.651387019977541,8.225722042638628,5.5238461498040925,28.50690760955221,13.163242636790645
17.535667274217413,6.02344725262929,14.68905816628795,5.838841945382452,16.510871694025916,9.88925659020525
2.4802511542329255,9.211388172490796,6.360855642913444,8.473060369230492,3.1190709487049295,3.7153830341211482
19.131349363579844,3.0793588808245977,2.2113104927720437,7.9375981685538175,12.257375896577189,7.095216300652463
11.69010775120555,5.32343082243941,2.013537362383808,6.453780028407306,11.387851868033817,6.1387180830163635
13.2411300193962,11.250925328326222,6.429891255268658,10.227381841729787,6.606996475365375,7.320673526469519
19.99920766202446,12.270581372635656,6.652460836657882,12.24492604213803,9.839946829275299,5.3194320643192246
21.012792817812517,13.199509504023338,7.494800657313586,12.781272491552077,8.803385156395533,7.1359758051981865
12.53293805195756,3.30345960471381,8.071216906484057,10.849940730313977,6.208156517613259,4.285961316255213
21.414643969868912,6.593632204750113,4.442158675201664,10.444044221251906,9.442751550676169,7.0485705086479085
12.565076038164278,6.642585897080687,3.2256301729016728,8.230648103985766,5.5128482681467235,1.8402312431258447
25.41645966920625,7.696232261863858,5.757053015228179,8.278267508833355,20.7827525264851,12.75422715955507
33.403795245189826,8.635841782796437,7.728006632008307,4.573399572878645,17.717735697561384,9.095617469377485
30.372263835223066,3.3511411337340054,1.282979090654746,3.8237531283631787,20.86353465448791,12.604953834604329
14.138500744715744,3.328468756956734,14.071078651646483,10.71765742142451,8.260977793159316,8.268402607114673
17.64083204098625,5.17741372573949,3.9254196058204847,7.828638087029097,10.761730187968036,6.861959144810646
14.974078740534381,11.284252316530932,5.337310915723351,2.077511785650552,9.858338921839005,9.057441650341456
5.3099743095899425,10.545223608525333,10.653810808538397,15.309583594717525,6.445213271610291,3.7526336825051096
24.295172263932685,12.164630168608568,6.922349610349022,6.874211972120173,9.52911485411435,8.527622371866027
17.146850763428503,5.987287745461248,12.433637526553639,13.44322157862176,4.196827229185074,3.1453118718509594
6.5835985995055335,1.8962179388592588,2.9208417502147697,6.900558105695839,5.031152882104204,3.2217632434081755
28.038153565451616,5.619733730981381,4.018382053312404,5.816645801252373,6.971110579534577,12.390164950731064
14.844069988970924,5.365387681260589,4.721336068845856,5.28174919340503,5.0260099817123525,2.2075508721842865
31.49239582780407,6.506697170400885,7.285250906048547,2.9684655079775863,15.939983865426735,12.549086537528131
21.124929101602177,7.046847525634769,7.897860797136782,5.1198603749747145,4.744512773884742,7.13263694487539
23.550408109005595,5.76798025693188,5.987462147029696,6.739100929115539,15.361127936301648,10.891887971290618
18.10740744467004,7.319359006958189,8.84558837211252,1.4028798720646771,1.8535275872918149,9.54243672617727
12.330984385332364,2.866994155512648,6.2783592087256785,6.889585062143642,3.148276737613807,4.0437112099698
14.415421851271379,6.202219566349906,9.044805677953272,4.526943923844415,4.99842195364375,5.002982178365352
7.81980079836046,9.781283060706732,4.272006711477076,7.773878649333715,3.590023970613978,5.184764524096843
25.870812158215852,4.5196095592930705,4.5285880829573495,9.257645092290549,8.753927919265614,9.385557133039828
22.418384428780527,3.9038395400528514,3.5672467055227775,7.35588820513437,7.203904036155672,5.998535787853861
1.6035447491476387,1.885140795448743,4.2686388781691695,6.237094005190401,0.9921112716056834,0.6228126351956726
19.924898482601694,6.103932443324913,5.813461408575512,6.380926784874566,7.522003861474382,7.772459300758764
10.587274487875094,2.6718995360830218,3.019890661951166,2.087992750192395,4.11755511731921,4.933380936734265
25.695237898374348,5.020583703910241,2.8625270093115,3.2491132804300387,12.541377760127624,7.351955243987101
12.377756865396366,8.277966887688173,1.0365720471261113,2.6358096127256596,6.853949016910277,6.837687400109582
12.885607227773303,3.094696018624515,5.830794042113876,4.857916012022228,4.608374856275772,6.886859452887847
8.26898801639634,2.498391925999215,1.0379283858889778,1.6347421493256242,3.1746597228564117,3.795137771976862
8.129887115717915,5.156841722550248,6.28362926347055,4.000671890245571,4.035212842658241,3.2812319862688413
11.218321334526841,5.126414729215751,4.967037525113951,3.483076378837876,2.5143086046755196,4.939681110333699
9.96773117778816,2.9841280137991175,2.0791139934159193,5.803147479326126,0.9479427015781309,2.724515763476244
6.586644769890807,2.2722925717941824,5.540172224463973,6.695236399624304,5.659243813352465,6.0729162257852645
18.614181219701244,7.64674204318356,2.4087209370393534,3.590452620411196,5.836673601034027,5.985088648814338
9.819561008520893,1.8738363427861877,3.0658868591323425,2.078645151978842,2.777454610477112,2.7113160684880313
6.780171325827735,2.8968026431546825,2.294319277441839,2.7161790699668305,4.864154702253805,3.878809288800183
3.4021244271166955,2.7140885520942155,1.2234583687640241,3.4068982728375405,1.8797586425874386,3.3809859541495477
19.832910019291653,2.61985868589215,3.535034689205385,1.0920590747057706,9.511431756498997,6.851129934854239
6.684239593377937,3.575516450141851,1.2406721707658102,1.173070339849599,3.451239926202835,3.6912297778366687
5.124143244873643,1.5283880576533568,1.076353686100317,2.899716974329138,2.6600338537157704,2.2656105316186426
2.4126279523535565,2.615638194482397,2.045644597793722,2.3358684033943327,2.0733890725723634,2.257793023729717
