Gx,Gy,Gz,Ax,Ay,Az
9.152004,1.022993000000001,5.951857,25.72,399.11,96.254
6.394526898174866,15.18509178939843,2.074079228995781,1.5669307136623245,1.6208541414086122,3.960158725974042
13.349418429271944,23.87545726500173,3.876619165095463,1.8050224566804787,0.6736342743065182,3.616666749792795
6.94348479600514,13.133150050939925,5.999429738756292,3.68784753157664,1.4453220787112024,0.6012929865002151
4.404173882780005,34.716845824337504,6.764971341201692,3.4306267262948156,1.6656492116763681,2.4647451383653984
12.767502874478351,79.05042039594575,34.55901346124077,15.996787844110967,3.1406265538232554,4.145686975547223
16.115582392302457,12.541442209037752,3.1333356304151985,2.9550787078579286,5.569090652280617,2.867937058680022
12.376607984995658,34.97388525354726,9.521688171282857,5.795555446925714,0.9567558977931679,1.7117369372589688
1.9001394603692898,8.817282500865893,2.212459189719361,0.42588608591864535,2.2598921421850355,2.527525324784066
1.6179538021147446,15.234531692147879,6.648638193840124,1.8048533394920978,4.740363464893903,6.549643407703041
62.97384013542913,18.0502949962453,4.000366110576437,8.295424477236,57.20459310723974,55.86937732842168
13.459856496478066,19.2108791339164,5.626119535335879,4.2042714761408435,4.445247957831385,8.365196934505624
5.222182977925158,17.8981369509026,4.376051321505012,2.062672841704123,4.638143355992181,5.564615676203008
4.875157253921641,14.849048373613044,12.22462516079218,2.093319532860927,1.102261019797242,1.5213412625733997
7.56435749698299,15.585604595179449,13.452163781300806,4.681199785028166,12.577873429748179,3.719025804475341
6.178290350131242,90.9986119755005,63.457140875591,25.650187520116244,5.005933317744637,3.430153821866127
3.902659734137422,15.637130561897784,9.147864672833709,6.262640445722689,3.098005379210987,3.693419361375985
3.834530724558973,8.644334882340452,2.840137890811815,2.994745430205044,7.667004550035262,2.9356517297366924
7.22567197578304,7.7225506756255085,3.1167532065938044,4.150745528727851,8.171036942606309,5.406148714811821
10.744753336162374,14.983286842085903,11.630968554806214,6.056403098089339,6.1683651372827315,6.480381850879439
36.12888394108529,21.078826489847458,14.864833935271278,10.128490911812657,13.157362941052623,31.23238111933866
10.987258782702693,1.8655239909472465,7.457456488843197,3.0661231204164654,0.8789448308871897,9.61756489658825
7.56275208529157,10.635824426582701,6.122200839889845,5.480777366999213,5.373041981617801,3.802214567692292
7.673345772684205,4.700857232698147,11.372587661604626,5.557274408560747,0.4795355005189798,5.119082463721858
12.160652912295015,12.077489069452438,9.801039391007599,8.904371003346704,1.5002301677949261,4.166995119173367
2.36822888607253,39.56427702397795,23.66335996439706,30.274043866376278,4.6295184247453625,5.457886834062623
3.836797455951905,10.38211028924179,12.314421018709412,8.95548034134154,3.335207170065184,5.474949303752867
3.2037489546924465,28.602600928258013,3.0417532650274053,14.55092447756001,4.966614279218751,1.5790951573835066
5.1182599390651164,15.373993663386722,4.332952923816691,10.401249234553463,3.8873263250985666,4.776732402874323
3.8289415091027217,11.875307523005768,8.436572719203493,7.071958325096116,7.46108757461057,6.682244496969561
24.363751696152903,4.955493375373421,11.126358892865719,3.6801521404735746,24.492547933272338,21.069511882126548
12.994659940436689,4.020463978700785,7.40658933491573,3.7037087280747643,11.031951931783217,8.822162656915248
3.5731721104017837,3.430823479202246,2.47758175733199,1.9908957370884968,2.404126270732339,3.6919080016703023
8.566092494197342,9.135077479414242,9.710701441125385,7.854800573813486,4.885258794519806,4.982797403918995
9.597217902483857,6.929486545160383,9.933195763440319,8.687210473750351,0.8817519053578455,4.7429380415073865
7.827172872206745,23.93772516846607,14.967755195818594,26.27785812342219,3.113948832999637,5.010463787142195
13.725091704984749,8.266678705971831,9.91441206209344,18.4140939187859,7.43889226350289,6.4992761552599045
4.555903281523726,8.094861561949012,6.6648859156300055,5.2462002140399235,5.338889520204678,1.7077044304944786
9.780034942920977,7.856388880480546,3.4557773032634405,10.959785946538448,7.318785601473986,6.083931462855836
7.950009342548004,4.471680444338424,3.761359137466946,8.659693615321919,4.004909444875626,8.81461432671334
18.09525466897066,3.7078593549973893,6.030626555453089,2.593275743385926,8.58135483070031,15.85428744438285
14.02358601279679,3.317463149855231,2.826235629629668,7.311516455407791,8.79871445917488,11.17690943718205
3.053385118343538,1.4479051188527583,2.723901545311757,2.830016442113379,3.891260063892744,4.141302915076972
11.5263682227571,4.241540981341769,2.0434787245548387,10.779863223657523,5.873733265593501,5.606369367048805
10.329368012742725,6.5256325007316045,8.09307448736562,7.923169357895877,3.3806040928247136,5.124131928084744
9.950547221632773,10.658024648849986,8.825059947742202,16.296350052888247,2.6918906465631878,6.104431070772181
17.992204433239003,2.321095870058403,3.2448025965857794,10.839223245402588,5.077381108400964,5.766473992835055
2.680511698159782,1.741675401515927,4.975809701095737,3.3689873351151594,3.9518828681997604,3.989467264969124
15.39994641395677,0.4980033541819357,3.3193860998578124,4.452594431812728,3.2993276152224613,7.101995861673268
16.24979765753933,3.6237613277891225,3.520243206816867,3.373796893912519,3.3787822897008644,8.32145927632589
21.804546835185057,4.371370320284936,8.897814541288463,3.611106573124096,4.430488534938653,10.940362069561047
22.3143952385468,3.3539561199486356,5.912810015848815,3.6722281343741368,7.01330059304199,10.128009712470776
9.365677628195886,0.7353465234205553,3.997900988645507,4.406969583110981,1.6968721112300402,5.416434372859806
7.984739685800739,1.782302676534015,4.1290592780630755,5.789752393142394,4.0005824922248925,2.8685327631937785
13.189114395001978,2.530625217417188,2.5144046315401667,3.870072049061308,5.571194377676665,3.7879244258814073
10.425519010715423,3.8829587707690765,10.719594337609875,8.188994542853084,1.2554542395095365,6.293537271298652
14.293412805521163,2.5035614802911574,2.2000805769485545,5.348835136802579,4.809140845027439,3.4697504625411604
4.525186430828994,2.1007597040644863,2.4826489690794844,2.1161134771864405,2.918270236619767,3.1600660578192423
12.695168673481406,0.7870929422890384,2.60758385187145,2.449606632214544,3.161736146389747,4.695114903016748
11.60731276830458,1.306567335799779,1.9874011633928004,1.9962473091880737,2.8365884411113127,5.501017201150256
8.288527421556505,1.1317516044498135,6.992407694830789,3.6970268499131356,2.29296368147301,4.990603485335609
13.621359552705586,2.273562922107536,3.259480529950292,2.3709773819411257,3.1772391991784654,4.702273823907618
10.913182104815288,0.9496915312966424,4.1846273099440205,3.7648121383852056,2.989750026483407,4.237391733260676
6.048861790002711,0.5897474218983381,4.08651917195641,3.826084965085694,2.9878017561345187,1.3082291940464519
9.986692137867898,3.579300491110307,0.8633744905236598,1.1901610315451068,3.1347626168311025,1.6247796018910874
10.710716315058955,1.0756165325145233,5.216761567558859,2.633701192509281,0.8510723218994665,5.579547623941628
11.73423054779095,2.8838099938587125,2.9233627166122713,3.0692922521538133,2.9535536465238623,2.807926046466262
4.30514799125847,2.7672641055110403,0.4966557368291457,2.648345822935937,3.038169642958943,1.8893990575349344
11.433284471055407,1.1626582333652333,3.1339282321592496,2.5832449080725963,0.3735731876157692,3.6125388758153747
5.590287101550277,1.7497649937952062,1.7215463279089633,0.8184836302681705,1.4759753152847723,2.269928899207173
3.792629754724359,3.6734429841087457,3.4092978047872777,2.1162427436856124,2.57663778470876,2.5074235414545476
8.749706173489402,1.5204134415100243,0.737979147084805,0.8886941170235401,1.006376493344537,1.8572040325163524
10.052586863489553,0.9124833732940822,2.3481581650614123,1.7099690919735346,2.0595474953379287,2.6752094131085618
1.0905937544297875,2.3393396636952954,1.8493319429362192,1.7616090822996069,0.30197182788591204,1.5261895275936583
4.109179087589932,3.1272614483796066,0.350935230377754,0.568260465976599,0.6742153895294876,0.5447669375195742
9.7551880912669,1.4621060144561784,2.030676860618025,1.3750913877645854,1.9003716262890027,3.2169517429361427
5.048552056611943,0.5932882727313455,1.2293050561693886,1.534601626048302,0.9976743279716831,1.6616886788557859
6.049451089371127,1.9759902307226973,0.8844303434629486,2.0968220002316498,2.5500441590385488,0.23810168082904115
9.133632400958193,1.817385297617219,1.2474661645716218,1.2086944984373154,1.735533483325937,2.0689002516825896
5.669297005550088,1.0811584966717822,1.5638848610780385,0.36194090915284916,1.7210464282925275,1.9493929551413118
6.5619910925314935,2.8581149823312813,1.9423615219092956,1.0913953647606973,1.952831051531378,2.0847121819434853
4.32039340966982,1.1327575509265544,1.0466020353979026,0.6787290360232193,0.9745196591568228,1.5942446838862916
10.284193106765201,1.1760176021226563,1.1163846680639196,0.9886189937584171,3.433416749040446,1.4583491210548698
2.8192066925985744,1.7675097086835319,1.5822768488434742,1.2218230128386085,1.0819751996179459,1.701498008362773
1.380855872811323,1.2481150316523841,0.9125032579805973,0.2707995710241515,0.7141032183100059,0.5680124392961357
5.452094123178593,2.1010209446126478,0.7019938081708422,1.0828903389212257,2.168734167239434,1.5870356125981617
2.727006071195013,1.1232004303094099,0.9749041771800584,0.6569818158997692,0.8593839856372969,0.8723947196522662
2.8063904180684793,0.33229402659440294,1.187478217692147,1.1514770644220786,1.7344739064521628,0.8248103473926522
5.411153391888957,1.802037883333667,0.7653460564795893,0.7625960529505089,1.436575723938063,1.3402801647139266
2.19975092191928,0.9163397131722486,0.9152098459307737,0.792257242353488,1.2706350046812636,0.9722154495679034
4.7663285961607125,2.162552168513539,1.1991140779062908,0.812881946768482,0.9354207694937869,1.306807684481527
1.8695813586741845,1.8177191778349333,0.8903865686325226,0.41299881365228075,1.1720030507985595,1.3106573729570963
6.943350388434961,0.9258148839870108,0.817720613708631,0.9032489022435373,1.8521903967119429,1.6407128414911538
4.6207861220171385,2.322583624937679,1.181203652749397,0.7788854322874899,1.451130119828764,1.0408335039189112
2.2040881567502475,0.915809844315833,1.1376855313410381,0.3107401389028345,0.8842182515040332,0.3086399971029483
2.47689986133428,2.040793803830151,0.5505147763624137,1.0087586965863062,1.6534852261205544,1.499806374411163
1.4010732714188878,0.9699931758214517,1.0200157143134208,0.3824354204025292,0.7834513139388496,0.8979039804901753
1.6310908856894655,0.48481229274800197,1.2564522774459757,1.3402191384268718,1.618545039588941,0.7283338542885199
2.624299568891734,2.186543396574188,0.6016025539972921,0.34945254736924225,1.4084411584290883,0.9995184366548779
