Gx,Gy,Gz,Ax,Ay,Az
6.534147000000001,4.908304999999997,1.651527000000001,5.879999999999998,518.8679999999999,35.025999999999996
2.3524724138903537,4.635107160627452,4.053725171947078,4.488646951457905,1.0090354433085909,1.2415690849334835
4.880673850574205,10.504982612979319,2.6147989774267946,1.9148960522833078,0.9217050668619521,1.0347860743268222
8.498446818443533,14.748718562756114,8.083823476862756,2.6111462350934715,1.1797134149433244,2.47025317469522
4.444356527462074,11.482558097551326,4.6656380378780336,3.831783776568451,1.2585679292238618,1.4545714967569192
16.882481349333123,73.85546152087905,54.75345127885056,12.866774268188227,1.7111202817548807,1.546190954996591
2.9400891310772757,5.362151328945399,10.427806572890782,2.7727551551609397,1.2338363987978813,2.2035586403537457
9.394432599904476,33.53354186103653,1.5079228233354296,1.9388390649531297,1.9365670812285274,2.9066820204842974
7.4808872753036075,24.052605169879804,6.301356150742044,1.7700847580620478,6.255750704800583,4.192779298872563
10.792039269404118,16.915376381174756,4.143839304635124,3.532245909787343,13.07423894933537,7.488841670040789
83.29123177476927,29.220270005298232,10.879532418123722,3.1647584730500213,81.94759812530013,45.947584467517174
17.21363378120672,10.725995058641855,4.654079071563001,3.253318376960724,20.62518523674898,12.78368721483417
8.865269234120454,9.466794474400809,2.0527554446197556,3.341885142827345,8.580736137498093,5.188171633077211
1.2210193317257623,8.9546193325145,5.536638092631032,4.105642114659674,3.0703787150692525,3.6160695548467614
8.323639007827632,20.0581489051153,9.463399037851891,5.618924634423152,3.786997887635065,3.702160304158261
13.76909665988131,49.1333915697322,34.40126287457225,22.977645312776012,5.93495073206568,6.995414130249513
2.503754503250643,29.507864945386338,10.571963412578535,11.659106677446061,3.769923500394497,3.745409518937086
7.124199039377604,20.487555521703296,8.035408466684117,5.5656963984197425,2.1209987754289044,5.396659895539455
6.725765089884677,2.2400659776936824,3.657621409974185,2.0744679615077923,2.3187875047112207,5.3364084139575425
2.377777975410656,5.97141713249801,7.447424096130632,0.6039767934647174,6.664779710120606,10.40706937830961
24.520518810522432,22.558669933067048,5.726661872514783,3.475334683589922,20.889377569851703,24.781723325662377
12.723163272242022,2.6522111524072205,1.3965713821874908,2.438631129727319,9.901847874096978,18.02528101081878
6.021457092010536,6.085102461127958,1.6265893659235044,2.380891757985624,6.3751717119504,7.4654911360017495
4.396923603372657,15.005745275180002,3.6698162675567345,5.8135260600143805,5.27930616774685,4.858812219440516
6.438351842854227,15.334659854001892,2.758038796124212,6.343466289770598,1.4848544167124398,3.4706562068298132
11.273287997088719,20.860873757721535,4.688179558469634,14.309637627980814,3.752966564744938,7.234007398649584
13.273261150645876,4.947623039785731,2.7883316109903094,4.639724591563155,2.714287237929765,3.8490507671670127
7.307879434193452,17.497597780569087,1.9795525272247199,12.158521191221334,5.2313880510870465,4.682532594026987
8.419358845980208,5.032617756365928,1.0128557612624958,0.7933297007451509,4.038406793822947,3.1791290836548147
2.5247934124394247,7.1909716030849005,2.2883686844184505,2.8675889579506526,5.154258762986097,6.091182111626884
3.492007421320779,15.778133350873148,2.16541851507989,5.749010216086072,18.297131121929937,12.00732510655739
7.937320786167697,10.176844773493496,5.283109155504446,1.4231674646156518,12.578648211719704,14.970241016128982
1.9435702893516547,7.183532163162514,1.680158580419026,3.0475285515022765,7.647634321521056,5.524007412799497
2.972443607051233,3.6418232012353933,2.1162967957438257,4.71761598347586,2.325818531941401,1.5909782710579499
0.9859409712401073,2.7640477446681007,4.299702893518943,0.8206544154055051,0.21217789062800968,1.9503550643624123
2.227949478137954,2.0693927299180426,2.323873636835324,4.341431757831257,4.271713302648014,2.115636781395521
7.659319244745389,17.659956331228408,10.882942583114342,8.567025140971737,3.024195240368956,0.5811318052187452
6.862220111485387,5.38800443216574,5.626818288640088,2.3086210235680236,6.246581908621685,3.2085957623065138
5.075534697300708,4.7404695417718195,1.3022570175449248,1.7679213748344207,5.819138819308603,3.6225590061834887
5.139538315401865,6.33416541445756,3.4415655173696926,4.5274330803635205,5.978025121018332,3.9233965776424835
4.481255886013507,7.374960276809501,1.4714390394467396,3.820759105293419,8.907561711281257,3.596656621417141
8.969641439296614,11.174173476537941,6.990220059224137,8.646043298530437,19.68041540770592,10.559423989343847
4.16234038361189,1.2691691066635098,3.381399660664153,2.241748990419977,7.574868520938515,1.732600662174942
2.26333920217977,1.5604052961549049,1.7272791747466247,0.7511139844871154,0.494539365787707,1.3052880579803707
2.1731778811993574,2.4448675466152765,1.8243390138785378,0.7301499656049494,2.762846419298022,0.5561225449395646
2.7448437269617956,3.4366556795459777,3.224738471278045,1.2087526008145595,3.7985458386609947,1.9403412479958393
1.5182774432829909,4.125237660580146,10.519654409494033,4.152743655326932,0.9711682894919216,0.5683150394965591
4.225808454950765,4.682394859187434,6.237587470856481,3.1911877464997414,2.604365291424179,1.0822532089938097
3.0837933851929424,3.3842360462154004,1.090441540357599,1.6118964442005963,4.561519569011105,1.3052865645525809
3.291929168608234,1.6339226117783892,1.474084528511972,0.8326324319279113,2.4556263608321847,1.0761220091512818
1.8391225720561417,1.8554814133061772,1.5878504784765006,2.1114750495491728,3.395374769208017,1.021535801960708
12.100813004069424,9.938142241028148,2.236343474966207,1.55675838716705,19.582856936460534,5.163857859931093
2.6136025755037706,3.2571073979193854,1.459100762239921,2.251437202381997,6.088651438278128,1.4360844589640063
0.27250645525491246,1.7488643129406063,1.6274005314906341,0.39296548263897446,2.595822536977182,1.06348019111927
0.5165070400729578,1.68263788589535,0.7152931508495785,1.3799661185700156,2.085050123076817,0.7547987171474277
2.808965981271187,2.079753553268293,3.1201686063795258,2.2735432781538467,2.858668764178207,1.2340370030712067
3.623325851534019,6.506580305747991,8.12545125073252,1.4310866128769446,5.3538803236420955,1.0904803705381014
2.8404013109217434,0.8415374404340165,4.10325860492077,1.5100056325911904,1.4217489244793946,0.7058134362630685
4.208376534798013,2.13330967831801,2.218447971862661,0.6910092571345245,2.5517893123418305,1.1880397597245411
0.4248026012258998,2.3182766844864644,0.6237271087938799,1.1391424515853759,2.028161738898995,1.2781568326906603
4.426634961309608,2.8907610367889873,0.7254811803320056,0.5630499616184546,3.765966413656075,0.44005420045598914
8.219743871853789,3.2744046215096394,2.020398217607868,0.9443595496329289,9.546263732478673,0.9730733748821379
4.298740473912107,1.616742571587125,0.6796868347937842,0.3154428677305585,1.197192421334035,3.0511169648611345
2.6455327241786426,2.2612520048263396,0.7966465250471606,1.065274385944216,1.0049094630207434,0.9078300434709138
1.0102940428962515,2.8089277249332913,1.182382293576028,1.124213576517632,0.9186991313604754,0.7692151752080975
1.0942178625120578,1.7715957455671314,1.4358163273187725,1.4580846319464744,1.5941694304530671,1.5851756709009248
4.798433937526295,2.6548448861443195,2.503574999689619,1.4088518378478836,2.0534861340094617,2.403461539438834
1.2051672821833248,3.1386938870886256,4.509318834194905,1.3482726699445808,0.640208175039515,1.5961042129136127
3.169776577473123,3.207068092768991,1.197723994033346,1.0240363475392416,0.40015076266155614,1.0849825223422767
0.31735077928783534,1.4653992450085722,0.49941335830721906,0.07225640479144164,2.141848279788608,0.1629562906275496
4.006621616176337,0.9955355375996894,1.3868134811463473,0.7427343413657251,2.5695031156480455,1.9483000494165754
4.120287138729082,3.1672797732982367,2.585660340478424,1.177885259202324,5.969240479282434,1.8248420147414268
3.13987554377829,1.2524619131082049,0.6323649554074887,0.5884178523756781,1.6342569035806105,2.9040107109629303
5.02103798120729,2.4418918868648483,0.8851082939088971,1.2188364968805137,0.7174014186114728,3.058422577108375
2.0422466482315884,1.609404535358715,1.8928773923464388,1.300838545976446,1.5727443265574514,0.8539826426591897
2.094289109462438,2.5760703367859534,1.2502353513557747,2.120243504845172,0.5683905684579654,1.5114459735075416
4.632295992217458,3.8296074554856228,0.8905577531488875,1.6606593251847526,0.7767254763090559,3.599795410236841
2.5937595939047293,0.5726458791458323,3.3780158983754363,1.1259591758917638,0.12960943276184933,2.0710467716926684
0.4575101768895185,2.0623265964504855,1.5137788351495205,0.5177085738777661,1.157108638919458,0.15344945026726656
1.1502484984904562,1.5833031358947098,1.193342946869683,0.7523788583723562,1.6825259464910483,0.9503403825956752
4.499749924924382,1.5026594978169086,1.5210979550509,0.6269329112322856,3.039619322569249,3.0471700661337144
2.9686031077966635,1.5155609176479505,0.9898437460108291,0.05991913867054025,4.134143009250487,3.7722136293545354
3.570123455270598,3.265264031541326,0.5836800492093658,1.4511815662205632,3.1597817173604157,2.942331187631128
5.206575637010564,2.983393508442923,0.8746620298626347,0.6350779669021299,1.6377294024822404,2.970273986329415
1.5743456652010324,2.312736959421453,0.5947163856633911,0.9966501117038935,0.9801973442824616,0.7810553596701982
1.7596213122825528,1.2567985967030868,2.0021350569662872,0.6116822272553024,0.5590640180160442,0.9466758585034879
3.3924890273276924,1.1117600619542534,1.6346441619722147,0.7775591594824269,1.1905830224088043,2.151367439551298
4.157406608151323,2.414324379150913,4.234979999057272,1.0684475076601692,1.3581104248733016,2.143989148669068
1.6111491399606757,1.6338143128378377,1.2029696107010788,0.4230567161887318,1.507684788051407,0.2505824065586415
1.395422642925725,1.206549471773115,1.0175416255556107,0.7220794980562356,1.6399644915729383,1.2938413911288775
4.9659653426433765,2.02564988151869,0.8213320483267054,0.2864425519968743,2.3756233551761765,3.068003421775807
5.282859751662423,3.9871191887208535,0.8045961502635178,0.5468567653970086,3.4978740693815067,3.815719207074746
4.819432436348149,1.9579785027468675,1.6044244146472615,0.6150660658241708,2.4249334606770545,5.073517627566179
7.667882909489365,1.7269722280957591,0.8006904101076944,0.23711503799961,0.8391706769621274,3.6229227757689326
1.9877214779108987,0.5885864915040122,0.560466064755133,0.6366195886670233,1.4105788121169756,1.8856191416123231
4.121479833505683,1.1762306591718679,2.384475544425832,1.061507731852187,1.6655093265348773,0.5205398844843812
2.686880508202146,3.11415587530629,2.3256299294581555,1.0403648987186667,0.22003615520424616,2.443892799633907
4.377542303354233,3.050763957978044,2.8762095554816387,0.8738065084550178,2.7254023363039104,1.5104488426703502
4.855209795624384,2.181990861237328,2.3666901059081726,0.6876241540667135,2.4523816123794404,0.8544120820275555
