Gx,Gy,Gz,Ax,Ay,Az
8.915572,35.29632599999999,2.609581999999997,21.187999999999995,476.856,7.2200000000000015
6.492143316859572,35.11720591896465,9.094809109566157,6.4464554937689424,1.4280010536420356,6.540151566756445
29.709135978406103,31.34816890488994,15.413884079853885,5.169005752551979,2.460348608418634,7.606149477242262
12.288076034059882,42.00326476922443,6.2979064060258,4.886207711251924,1.2312567958534562,2.4610354960358625
15.116039199991183,45.08239775176498,8.585904636317766,1.5847455845854281,1.110916134341427,1.549636064340204
28.120602489300285,250.4408273573867,54.80164224117976,14.925813356064923,4.689064215979181,8.872688126624956
11.012178994217969,49.634998813741284,15.940730906530423,7.348766184030549,4.242579913959144,4.401272643566974
20.852981491805735,35.55773159935962,23.060338958229206,3.8552971688246735,10.820536932863059,9.804653313776024
10.220195822011682,36.608781619307514,10.363360539668617,3.7755611799174744,4.053012074145745,5.839985847760134
12.503680671354104,20.95670041839435,13.570989938512398,1.9441693296970417,7.578521697554209,4.957013478762557
39.140205775214646,61.572637237207545,7.542722953831872,4.0665784604767445,110.41058536013534,46.818113576848276
10.320625884862796,25.10205269224253,9.466101446028759,5.624326337014323,26.78380470762917,15.119507210654094
9.467808669271355,29.207944690032573,8.325177316406249,6.998456616073147,11.55407581886616,6.137003664150196
9.625159083141629,22.8813493328539,14.724046943488739,3.7187387515975643,6.424415456692253,7.656211079627908
7.813672322428242,17.781478665263684,30.0678745330924,6.487374320765582,17.512543338708625,3.974802780995316
11.656588529361168,89.89824246576012,76.66132451718171,32.58425308887343,15.35171704726248,1.6694515735221227
2.656913839421242,79.10800907449887,32.935522889960396,26.21766560169338,8.844420633538562,2.2057746961882825
6.162382424423409,26.73576746971515,21.838570830445786,4.242249287181045,8.897149592820945,5.034957263697103
4.096888067999405,12.349579397059498,11.70627506858454,3.711701322563884,4.441121065913487,4.440672310118649
6.840231464007417,17.620287899976955,7.398433324216644,5.391016983054599,3.329824208869889,6.147465600775856
20.34901118457006,14.595477265379717,4.970626925005863,7.508495525289264,23.0063745847132,30.780247662950124
15.30160403403098,7.640317700311862,7.0001550966438115,4.137797651417249,12.699703255174937,21.893287143410163
8.432360480211617,12.763465039960176,17.62274019444306,1.117052793644051,9.518531778887583,2.647238142911025
19.138190882189345,13.03278345165716,8.946740419988712,8.802700711786928,4.816865025201538,8.091810822328622
4.671548835696761,12.412695888178446,8.203172100384723,14.107361583254585,5.3427015729831115,10.852299005764348
5.836067715715772,23.175453093697925,17.03745441111577,3.646397632137104,10.108694649282485,1.6364780224568785
9.12024304205206,37.0170770313479,16.68013993082136,8.56688013025473,0.8325783704886304,5.052722483393044
4.939876980202036,4.222168270307629,4.402651006930426,6.109005535848656,2.439940059902572,7.602505827939999
6.738618501015129,8.913454187858418,7.398056868683814,0.6488090104362072,7.2330729121221395,3.4644203609654483
1.807581928784133,14.636888150409122,7.578825726071518,11.650965488795496,2.78740856706827,6.011274712831402
1.621045740510751,13.494837508881899,16.271137434677765,11.742843077036621,12.107941816308266,15.318164417484475
10.95209597350301,35.891080147930374,6.407795790489438,15.728650127297184,6.8408918082588865,14.438131216075103
4.469788959958375,8.397119988972229,6.892311341577387,7.716302629980084,8.059802955250033,4.494227855872419
8.789225821013781,19.079118873615002,11.101187631356314,12.630581975354659,3.6028127986547513,3.764381337629398
3.3797147274286514,1.659564746762675,9.799124923193466,10.631876609320063,6.374081745281926,5.833832877146561
11.882160992746964,13.300620828875486,11.523229280664886,2.836360196732629,5.751088552458438,7.697274599071448
7.938391944461912,6.72754925030585,19.10403006287435,22.240628460228773,8.481314907586718,2.042826134784602
14.102616393334971,16.175429307533506,2.253648310454617,8.923701069776715,3.7938661854829543,10.446077310465363
6.225847553133335,1.9991325908397044,6.112247085230212,5.680924814590253,5.360892873841924,2.246482562250974
1.9637142809214179,9.462292825200624,7.108865702054819,8.905893900117926,1.5732941080954472,2.860636104223444
3.2081373654386156,11.728364930162835,7.725918595872985,16.452626897387578,4.357473173147296,3.319909250319426
14.86350507254092,19.965917456979337,7.987608138478926,11.825647147922393,7.3511742864397895,9.171305620605237
4.680106528220803,12.244823389238501,5.8267942124392995,12.326266100318277,5.010389514130821,4.451721463956029
7.977779513458198,6.74590859103315,9.316161956137778,6.323091696916898,4.99447901960167,3.46618743426842
9.68305935159631,4.611955384025499,4.9239036307498525,6.976832667229272,6.162229658813494,4.333699514896826
10.912326347844969,6.7493965000829,10.25670713728118,5.524834551154676,4.0534158750206455,8.994699432788066
13.830788197638787,15.23951681792185,13.494994865704898,16.097118959823586,6.11513232214089,9.09001235960952
10.339502863478526,9.272397154563139,4.849457760014546,5.2896750548576605,7.284170917887464,7.645407999581878
3.2138948381728745,3.867856194443298,5.347184806920062,7.254406235428049,5.407087729326944,0.941429031443796
2.862539937282492,4.996126303297005,2.469520725948008,2.1250324683760837,1.9495304817729537,1.9173287795131568
5.570006501589578,3.139778145919481,3.280834022799524,14.910377879566877,11.152413168060809,4.224314582581888
16.176099908155155,6.571275946913559,6.928907106789026,5.105095624906865,17.32817096494894,9.513626554315694
7.486358443555381,2.376548066731291,4.86669521051513,6.465586099753957,4.992622077404528,3.5700514951058087
10.260694739457968,2.0316414514223147,4.3430151592472095,4.2172691309166,10.243760382841499,5.977701854989205
7.049932778729482,8.628296551432525,2.357961861816909,1.5424040739801008,1.6711617567609252,3.7342170634721743
13.197476859386754,4.742488651938394,2.67529189196685,2.4502505031596957,12.080588961357272,9.574805531302713
10.222416592687068,7.296763743216288,14.598291372364812,9.690034192755874,7.7452787766092275,6.754906724869617
8.775376074126637,6.5156648779892725,3.3178718202042163,9.138294302327298,7.245980321173593,4.751346082022748
4.194518635110583,7.399147531677893,6.691344597442856,5.618198793868454,2.94487125445206,1.2115980705021643
2.728022518477289,1.6978260094312236,2.411693075474165,3.382890959255126,7.123913881867114,0.9039066724240722
7.109407372946677,2.7311734702570427,10.292955010719067,10.286020392666716,3.133765422849946,1.9375541619923857
13.895466876569353,9.660578715177904,7.001002818351982,4.988179654419383,12.820856229741592,11.90617646314944
17.209622337279995,2.1204156032398416,3.374995472983325,2.9955857681488323,8.453832663136424,9.732302908329558
13.274871321420333,2.5055803417056928,6.92465162017565,4.813852710717418,8.31598533073244,6.775956404240792
6.563925843812435,2.835554863918681,1.962517146658395,1.0208646104539834,4.777876057467876,1.561633047180607
19.438431862596524,1.6618349714301077,4.431453756276891,1.4669067708519798,7.683643302089955,12.864258619997388
8.0817167080471,2.4028919931190416,11.60344220361111,6.064150743525287,5.902098662079423,1.1993228171709849
8.7018561080071,2.1016253290014673,6.867153206100402,6.794431436913158,2.341758688511426,4.358507340359522
7.02666111547949,2.867012109473368,9.48322570697664,6.017791098498293,8.719857483796991,2.661255412063897
4.88009854683565,2.0394834726731648,1.5519189577142618,1.442790755718782,2.489021257487294,1.3502941735178313
3.8093593135914054,3.4453774715620638,8.641204335827146,7.529641035764786,2.615185009416317,3.8104224185764095
6.118743619496048,3.773614427263041,8.077695872880467,1.621678809462381,10.016952566649126,7.801330908661691
19.365190655676994,3.6239940926777847,4.169184258633577,1.1954090391503553,10.529808988433489,10.219087568295818
12.804693803400056,3.967467327325134,8.022362141789332,4.3356683919917725,3.6390147297018958,8.471519693038463
7.398310156919893,3.847901257828194,1.3955270785070653,0.5053921292286397,2.6097433630196782,1.0938578512457369
17.77825290687467,2.0183175205285466,2.4870421656940116,2.5377932359651902,5.621460043735464,11.033441746879285
8.200746162816957,3.958943813321995,6.005486033948942,3.5564770698214003,5.901932696650596,3.440267709796689
4.438654312423383,1.40729212482477,6.9167654197621635,5.350912226573518,2.579002158848214,3.491379970963517
10.744593599510296,1.5173179612317387,9.47614744245153,4.938089452903984,6.247747874603692,4.747260369789388
1.8608528139475473,2.89651460546836,1.54902570205621,1.2219318077607342,2.4249245285587033,3.376096977213121
5.420768508314881,2.270533875592401,5.389648582497995,5.18526878866863,3.065254933509551,3.416765501303478
2.243645424589265,5.703475319411097,6.320834691867702,1.9057770436105352,4.8985240480801835,4.749987403954246
16.859575062533,5.34915504022802,1.820199308802199,0.513370964174081,4.303724235719408,9.600668261712567
10.562092535387569,6.109594579165335,6.954171117066048,4.787543742193852,1.3555640275590894,6.158397147416404
9.028099713582531,0.9343324820441972,2.6352567995762124,1.7572225438728475,2.2791056477513956,1.334045914491225
14.281781178162886,2.746371682962433,3.5403415099159132,1.6375917442921222,1.631051540794069,7.930737378238999
11.984623658638032,2.102715067609808,5.784869991440151,1.3706022313705364,3.7940904974070815,4.055213962982034
4.756631783195588,1.2002761445472734,5.493068075793371,3.7146072709081097,2.9260395664919665,3.2090660978416157
8.824095203636475,2.511794007562324,5.456769726593925,3.4824567697226785,2.332885461185991,4.570367197914368
7.1819763292946845,1.68135521978592,1.6700179804069173,0.8670267038255866,3.8720155171273296,4.65218879596233
5.1539085728393115,0.6001336435479259,2.85653593604976,3.503201212840122,2.5708035750874756,2.3496909176477816
4.9673836902056205,3.6912182642646365,5.4064708352879265,2.9626177197090895,1.416173143459696,2.6690512835164806
14.372605729364363,7.437920243756664,1.267450907364848,1.0911414100220187,2.0744906504988068,7.803831100591294
11.502732979838061,4.198700015766175,2.1239377453231767,1.083134727702287,2.1306861030390745,4.710474066154827
9.380366597540549,2.8785404412527797,3.179509074666061,2.6155397088482784,2.8276587152127473,0.7912214978845931
6.722971151201753,2.684933038682064,4.109224598456111,1.9822455700084398,0.6819020043503851,4.611503990689113
14.019560706354133,3.3986679303473584,3.1716092233091424,2.3789928887784892,3.1875595298334543,6.1668752606209
6.660194420439645,4.038015475149341,4.558793898405442,1.960315891295541,3.2838162671211024,1.3734983702470778
5.776271122093292,2.066215834533018,2.948066270577216,2.711846725305397,2.1254538296579346,3.185737925283978
11.610008700440792,1.3052698440559478,2.5372516459227294,1.6043775059148846,4.759019276699642,5.809726863105296
5.900962179079456,1.6258459749358183,1.4803032135026857,1.6441092316257937,1.2790536922547977,2.3620376500330345
4.537177005801444,2.401320868168502,4.627794908710288,2.0953900594086394,2.2483122995518126,1.8286745649658473
8.867631465043896,5.47747118352213,2.831794584383083,0.7650853808549672,1.4647571048253798,6.586844540800794
12.722199621851685,2.625774020409183,1.830810730431988,1.2424768878701273,2.275651201572409,3.7653509904560294
6.9901222509637515,2.619511349858714,2.9563230876814086,2.301569725046853,1.8383692684277118,2.5300378568479984
0.9418502776703488,1.240451312188857,2.6646139009788774,1.7767654213142519,0.8395577140546451,1.5221267233044309
12.241982478740818,1.4274439706249347,1.637782896957833,2.3121564712727727,2.5788459891927724,5.298953854984178
7.129430461023099,1.539677651629588,3.1128787395320052,0.8222553657317088,2.7536209528461995,2.561211924926839
5.6399409918792776,0.6482832187106174,2.7390819715891395,2.2308179693116483,2.169105776857011,3.0479011620093037
11.689659082908033,1.1005856898144093,3.018215674574411,0.6790611018534805,4.723503817941306,4.227456505351724
7.304165683498372,1.8220799968377874,0.8439020650519325,1.5437133436946942,1.5445145673602545,1.5272158030242813
3.1548309785342665,1.2538525922060917,2.9727315186800243,1.2914426419580511,2.3980602614078874,0.07557424792349327
4.84011158152881,4.95059025599382,1.5153076148306852,1.2336654236553262,1.3167968265214522,4.489604105586737
9.87809006555001,0.9142643195728609,1.1891258449430069,1.9865926203192519,1.1263805235584081,1.3268042694969728
5.491929962735198,2.8994583776486555,1.711753571034075,2.556557960655031,2.321662087609053,2.4047758792524894
5.71568493212649,2.4162191405900835,1.5245496611538023,1.754373592403648,1.7012855330830137,0.8013674695369656
8.950375191716404,1.9128267944904849,1.8199754014183882,1.404673187751711,1.278606889117112,4.080807085707671
0.0,0.0,0.0,0.0,0.0,0.0
0.0,0.0,0.0,0.0,0.0,0.0
0.0,0.0,0.0,0.0,0.0,0.0
