Gx,Gy,Gz,Ax,Ay,Az
9.464238000000005,11.869202000000008,3.89411,18.408,450.4400000000001,58.983999999999995
8.801563298139822,6.830269239771039,3.517894242091549,3.2458689382327934,1.182194005204684,1.9691525523264535
8.925844424526106,11.302365903183405,6.828284194312918,2.6241778181087656,2.012446042369759,7.422084763745554
2.6928682596138596,26.002810419075974,3.5329401027813616,1.5173494551206859,2.0269788496334034,4.777210731153002
16.376755987225042,80.68326448158363,7.468183544396539,5.228970335370544,2.4871726142678154,2.902131047991835
13.376494920195995,34.330561444021775,12.014644554053898,3.8080703933839555,4.940387030764053,3.596571216573439
2.6073314784401087,11.36199086064673,4.85096589940928,0.8405690394677527,7.320940658639549,7.535460223073091
13.694620285512109,1.1314203848272353,2.3148238384722224,1.5429901194808002,9.276527781453302,11.392959528279242
28.075029252883386,16.54419106618549,9.058135167525004,4.572110458511429,32.500282765471916,22.49303156325489
43.95744435243704,9.546121881860268,2.7199550892402846,1.4667537432289612,45.81750854339539,27.07341968923145
3.2205482601302613,22.189830377026933,3.801506390778968,4.846870915087778,9.15661582263122,6.4274397259334455
8.877535786345524,12.771706859312225,4.794303778821626,3.8522760776282943,7.845594331638778,3.7433673378243375
8.346757259144445,9.383779166601562,4.475174186156935,1.9332204239565405,5.491081771483279,2.466861974670041
4.127240340044571,52.825203901073806,32.694900545945714,21.079263881200248,2.4077564103050544,3.4311615483473314
5.384783403365809,0.6882507805339086,1.7238074652280684,1.7798788606010465,8.372340153384705,0.7336966603585477
3.660481654337228,11.61242464500067,1.815710249380871,0.7465650663979748,2.3640880790528476,0.8931767730639083
4.989849141031717,5.824350870521218,6.4350813032541545,1.764905276697677,4.9113064681729135,5.306556407163582
6.195168342330054,11.556182468388997,2.7701330584697788,5.072522459248814,8.363103552343386,21.281678556512333
6.205962179239343,2.5538403900145363,2.0169373728423006,2.0666192824580363,4.183228236463886,5.89012215768503
3.4307387155155364,16.26900696461231,4.93131594238702,5.652055135877988,1.684787121670015,2.615594475585413
4.655119595355861,16.606599398036526,3.6911562819093247,7.76368002343173,1.0560567727962795,2.785790836408648
8.565298601928813,38.654961157765655,8.969105599531595,14.626018860766944,3.913970023381086,1.7984842489194524
3.194064983516484,15.349752387798894,8.252250152406331,4.844097795865959,1.5790746699040212,1.9224579289295813
2.1194782861776273,7.28557769450877,1.177013457922627,4.321406514252455,3.487998244077846,0.8584597561741083
1.207250541514691,4.103596098258084,1.256173674184263,3.7556569679420604,3.985315722648293,3.0653451144439425
4.206536437295143,7.669311060915583,4.184937595861316,2.3515657266253194,4.205425250675208,4.6335335470073495
9.438436436777556,3.5637824508267597,3.8695235294634114,5.708482739345966,6.130541804961311,10.903387350833741
3.346374500888954,12.710350201669774,5.36985559635357,6.212690316612373,4.583136675802397,0.9958259952255245
2.932577448590537,2.6526359656249934,3.098804255239529,0.6155079568399564,3.2775965672760394,1.1636493985160286
4.5850388471938635,5.871523351641453,4.431178135799606,2.9939116905897607,0.619246629056803,1.5496266941101091
5.011282140194697,19.823028707056285,6.411380216840923,8.241400628390886,2.5878084509126023,4.258160440719255
4.554134029133563,1.649921370992165,2.4781223910566395,4.811053578016284,6.6871798797046385,3.2368646475541016
2.783227540261045,4.157673454480723,2.515174352364842,2.2990696019567918,4.462674094585271,2.6433951493891286
4.319000316417299,4.615992951595357,0.24137635771072022,1.7988513227961709,6.0820355122380905,4.929708857510266
9.042389370621738,2.3935084752188662,1.5429930150914697,2.8808905441099357,12.707919738676578,8.294279209449446
3.836443769962335,4.605571764941225,2.986349228490057,2.277690060891761,7.1495220757959315,3.489985899697328
2.569616157363322,5.16220419293575,4.238976486094615,2.76026996930115,2.1305502053246297,1.7802271234313454
5.210475367714495,1.7306963615881026,2.3015610877701294,2.176552486236019,2.168256103982663,1.937526447978034
4.815838734580032,0.5610547898687072,4.461187141463797,5.400665531910355,2.5942951298018126,1.61843725184528
4.275666580899754,2.681850277238474,0.8144010771335408,3.4217330396696193,1.0100895479353376,0.6595277552871697
3.3014480333158622,3.171356961507315,2.417646951591925,1.0192647102033434,1.7349725012717823,0.9184468057711038
0.7587110223925291,2.531921015775418,2.1200504477649944,0.8403801106270803,4.003983775020752,0.4880279390809466
2.186259965939457,1.2366468772622592,1.5638958106711722,1.8629879256660131,3.136505791621381,1.1869434629389817
7.353846647753656,3.2404397119481074,2.0850646416343706,0.8514218640989595,10.034087460795291,2.423613446018547
3.8802682989092077,2.7705786113822732,3.1223575855457106,0.5154178019996651,4.974071974722553,0.732834623511359
1.2215975966871655,1.0288103184205508,1.348705270327053,1.917678782963809,3.644049246653128,1.7083900241687873
2.1472769460032763,1.4703035720135422,2.390819150592836,1.5617384850329812,3.326936384981917,1.9475112682818054
4.664005267067324,6.58612920171617,1.043389081746781,9.898946524599657,3.2949178378664357,2.2294817094053365
1.4655161088333415,1.6033665353653332,2.257537878693636,2.0849755164642843,0.5897494843946819,0.9045734796811278
2.174266133567,3.450696120450271,2.6293398213648462,1.2199687774360546,3.256996045911198,1.0707611307704594
2.066890591170129,2.254992816465391,0.2004735820051657,1.574510474130716,4.2708366634815755,1.4412782628795975
6.0965161384478135,1.2255690624956785,2.62133498184808,1.2845034908623358,9.482772053486357,2.466535830927566
1.129681131287524,0.8525900475481247,1.006868315206179,0.27425607374701344,6.402362716685182,1.772628921442385
3.023743044760203,1.24527434925656,0.7510620218630268,2.171005954890006,2.4986926608022944,0.16761755580217688
3.1618051485849086,2.6012748501218566,1.410156669288915,2.616648834700234,2.941859624644161,0.8958291262447522
5.3654531074547975,1.8775171071321317,2.642092402871702,2.8547522113025714,2.7583910231363236,1.6030418633875998
4.573400688614503,4.153823024665569,1.0123020190801246,4.545973827578854,3.9663365334253533,1.961583143788817
1.4007393526404597,2.3457346121027687,2.380110690969957,1.31917424320289,2.192575143572385,0.2004631115721854
0.8716442942761622,2.3183908482506315,1.7622574646612765,0.7063312024414038,1.7036453554756428,2.7708290152399506
1.9998745826815738,0.9037594471860491,1.9318179891981433,0.30767034176761293,4.280702986389021,0.6839526428471535
2.6106734180733833,0.6905697557169157,0.894490867573519,1.5845995013223722,8.763767622927434,3.3793845258695794
0.97178900667097,2.091090242550091,0.4874260300902058,0.7789451486376979,1.8861659096550156,0.5225324222564407
0.41657612341535794,0.38912386134644755,0.8178925616705769,0.8401923264629312,1.2882248559710536,1.6824538905368367
3.1430763018433994,1.1180527044158879,2.2185278541713886,1.2736069236846252,3.6802811311505566,0.8888807458027409
8.775250376626058,2.944362085819788,2.376226462038093,2.84092693283886,5.779719306949468,1.9246138174570246
2.117834124360916,1.5786777093283302,0.7891189833693208,0.12724801977848485,1.3312055384142318,2.313159797118067
1.430514848984325,1.0932612180050056,2.0500626402575,0.7993079404941131,2.432817944695682,1.3126316763344046
0.7915819301090802,0.7250805668997687,1.074771750595762,0.2805344177799977,1.5003096822215436,1.9554174897515315
3.641321365908412,1.1706876761964484,1.119533350113103,1.316372384457534,6.553775191255568,1.4999060432042106
0.610439329989133,0.44485781801165636,0.16258880566785716,0.8216116171567543,5.920106858243382,2.058291668209528
2.0196507064914218,1.377111263060411,0.1832385899317122,0.9670690100840516,1.6853477465567854,1.1178206860604434
3.9947250390244884,0.1977270280070574,0.3181034987144738,1.9471607926247085,2.21919097270563,1.2942192552519918
3.8164751717146106,0.32890534788464554,0.5737739851104136,1.3410839411297952,3.123979371050126,1.1036725233365838
7.113709865382638,2.2849165871948283,1.4943538769809048,2.819618259756362,6.194023048798883,2.656333317570559
2.224045773050268,1.018681097204348,0.8859332178285979,0.6940028317344688,5.187935299086402,1.4207063360838268
1.5029601932318482,1.0224656395346483,0.4711613773867055,0.767875113984324,0.890010362231752,0.6604523909582432
1.8516376430093389,1.0437316292243042,0.14714285208342434,0.218787137467553,0.9767843128770194,1.175518965501173
2.3906234987276154,1.923923650252528,0.7269164684261454,0.5015929831908735,7.398109182805859,2.9992234676290304
0.26017666355463587,1.0363760866449072,1.2712923584763856,1.012159135168074,4.408961084502122,0.7021271025963232
1.440046927804964,1.9166428889529508,0.28027606174697006,1.2565296006253466,2.730535882528089,0.7241060981738456
2.796021081900933,2.265792828819336,0.593196087746625,2.3475422130258963,4.031395609583236,1.8138310033854943
5.6609375048799855,2.895179889309413,1.5038778610380712,2.846224639688909,4.029272633589981,1.2798624481649585
2.9309441418800932,1.384506085860408,0.682050392209086,1.3497339247808673,1.7585634410697395,1.7673370075285324
2.1881755911193648,1.83541645334001,0.9464193495984103,0.7576032940140198,2.209707309942171,0.3782845796018597
0.4169399106508775,0.750991141915364,0.8116413142246156,0.2828496305539612,2.0387714609390204,1.0990535474153638
2.0556531533536986,0.9520491229566868,0.40892263360087433,0.052984190665463206,2.553097975409822,0.6633286033608468
1.1347797118967562,0.7666997012947393,0.5427442835072446,0.47629422626455303,5.341198634966421,1.0166396669687032
1.8324982753024892,1.2737452877338955,1.322708299382477,1.633437309483615,3.1559412050252034,1.6501878339785485
3.5384430595951435,1.5314555135488803,0.23989659020898185,0.549986077135305,1.307179744552953,1.7679647782805017
0.6515328726810279,0.7186445265653443,0.4918086089717957,0.7351282714337415,1.5220908606687105,0.6744946911602786
4.989828340487974,2.18729611170044,1.2964804053665406,2.181618847722334,4.318025236896992,1.7981908736650134
1.7171594857487107,1.0925967280140783,0.6334184859119517,0.92732420739638,1.2016649925405334,0.8564218812250161
2.0312233719063544,1.1588515728351294,1.0416887342225305,0.7233055294791625,1.1972913410994694,0.27738979180314444
1.1710211205833718,0.32420045033170164,1.1171144889706033,0.6294558221286684,0.8673700308499346,0.7512885216978956
0.552482065299096,0.8345340389692472,0.20365517037475178,0.18181725496735926,3.2665991789628377,0.8567251304519841
1.0951465731932026,1.1192085256116522,0.3886973132303826,0.8999076454534848,3.499243763603594,0.5912732169528037
0.3805163447096497,1.3672843446744651,0.8790218940758684,1.344079295076221,1.819159188418635,0.8465787116790806
2.852609146060032,1.5295358555497844,0.2937376439095347,1.07587870273839,2.133091149951317,1.4872231081155367
2.7557341962971176,1.133623539820974,0.8041488807893592,1.2415602092535631,1.9059160429152446,1.174387579344724
