Gx,Gy,Gz,Ax,Ay,Az
10.610002999999997,5.517914000000003,0.0566739999999995,20.799999999999997,471.3559999999999,44.41199999999999
2.0392965355057955,5.213936919469393,3.508517516625324,0.8909462691984462,2.4016401146126722,3.921139586274209
8.879137707427098,31.414114812665964,8.031727479592488,1.2091017443111527,2.2124974808261126,1.1329949552912113
0.7292090639591892,25.762307011060855,6.6069387976553235,0.8369620470920694,2.666450770025221,4.086104766187306
7.475363463301763,37.46681140468136,25.58273176146858,2.584283965703085,3.7126524578096114,4.282822584966083
2.596193691120398,138.33557664283543,87.69050394604675,11.313474647127736,4.419643532505355,5.139519899533909
2.9369977347830076,67.01649437907992,36.22032502521806,7.603100446292033,4.22425432500847,7.355375271661396
6.1136654677932,32.53497130502779,17.868072268767207,4.211860862412798,4.474359601316477,7.057438588956213
5.811538265114107,25.310908449861635,3.694604402643992,2.881033555002512,7.0690379823037715,9.232065740442616
19.249222411379975,21.637097603883316,8.949947114496425,3.0971626021008216,14.692662365757124,10.426986893035606
18.41656582123203,16.13971584090734,7.45331453318981,2.8643497423237,33.49013186548925,26.515096823633723
31.550617537492286,15.374664563706697,5.995555529401587,1.5372978678939961,54.52153564517044,50.74224357561121
5.782788756061111,4.940902053392188,3.9102640366335177,1.637963390410964,8.463348055830826,12.864397928577551
6.071629811692835,16.869177273714797,5.423027012362677,5.20595206296298,4.404415079260774,2.9512907292097816
1.4139702357637054,20.138534051129465,4.5041400351510985,6.842366281420739,5.35092378489204,1.3950172868932218
5.382134782168221,4.25364012830393,12.709130401965862,2.1849504348439903,3.8011079429390993,1.133551870665455
28.7232870418506,126.47438606945018,62.421855169950554,41.95788399470576,8.582811654950538,4.443370132362093
3.509827141639829,33.21279965227813,9.814072495327611,9.058724043546833,8.476914163303089,3.7663626608271876
4.4479264956909885,13.385725424224153,7.929740553307233,5.818282398576545,7.111730818725464,5.015360583823756
3.703842457768861,19.277179055915322,10.401599036004514,5.645066795476598,3.3375305458721214,7.236491661951691
5.1727833072200005,12.614281686680998,4.60128418962535,6.3423926069371435,1.9531468033386057,8.904648762840338
6.902869352300098,10.588744420364062,4.043270161207855,4.798196197272004,12.036447923306344,33.3179496104604
9.769418565473549,8.45090274859084,11.749724593888082,6.506338747910732,10.51603750943098,24.20027617628795
2.8323549376468744,7.189409572246757,6.8926679377348785,5.909792410507194,3.4417894648751144,9.971428490196892
1.8787988754501845,25.100753772303243,8.537600096309287,10.891460308011045,5.510091433375889,1.7461707063284775
9.820581858704957,15.991979157718552,3.479627514572175,9.047935711503568,3.6318636640998796,2.728357891010832
10.64763784447139,19.41076731979019,13.251370212714322,11.817797349838843,5.941408113362554,1.9738954090574565
15.072274249667977,18.67875620153447,20.205795288067126,17.520163693138798,10.676112828891902,1.2904229719876552
4.28735937868916,12.040639887869379,9.43407529036211,6.474199264150827,3.9777605774765727,1.312447352462587
5.215755195346643,5.235749437269339,5.19897831601185,4.980285715927133,8.0219977665052,3.9497112384197455
7.643847115957114,2.2279548712800157,3.979172563982225,2.8391589971192337,3.7090915815852004,2.045558942232059
8.570202628574908,7.443041495766106,2.8883548105952253,5.093363312251058,6.195959988839978,6.028125547202403
28.46927719528646,10.71291662087594,6.263782229746225,5.795740441839989,21.117926607362357,23.968238130872134
8.727935586716578,4.01817253573261,6.302446822118563,2.194647838552947,6.28646892686617,6.534090810241954
9.283359204039957,5.547340973498162,8.731269537680951,0.7794621143558036,6.855283600134132,1.8498810192611386
3.111847325922131,1.4865735488798648,5.921573414584923,3.4882406639409833,3.5817294242963085,2.087740615123452
6.981262036778301,1.3880722083243902,6.335093308151453,3.8396908928991307,3.665729682286338,1.0976034889316746
9.575793303202378,2.945964597729964,13.021786941741475,4.500224268376077,4.655361702018618,2.1944928984881957
11.553700134298586,4.292457180398876,10.81326007885747,3.033789459556298,5.72844964047564,2.8651372902423082
6.316487771478209,5.0994508531242255,5.837107612664192,2.152774745280872,2.306603043197947,3.348774714930673
6.017680699540891,3.6273389383758166,4.650219433432226,1.5217889762602201,4.806465677064756,3.046873664672114
7.290314809565763,2.027859239298514,5.9091216347049755,1.970139392262227,5.803477012646533,3.1138177787088637
16.18459126416711,5.187424154033959,2.816458440247034,4.478732929273651,14.338407860948658,8.470186941190352
21.3360172963434,9.701789561401434,2.7466191442256145,4.4605002155675475,28.251769323050922,11.969070756875773
5.798220785169736,1.755653942613688,2.87961924487158,1.8026511835133083,11.024558301478065,4.410377419090828
8.971169156048981,1.5193273615363578,1.599447354368425,0.9261813558897224,6.0855975355271985,0.7375021647205849
4.717770735986119,4.169095402468028,3.284004793188337,4.395822396854965,2.227332659752103,0.9124628352935464
7.2954227750983245,2.925278864137616,9.60366572162053,1.4625624696342154,2.7470176378233635,1.743825503677397
12.696042280316288,5.628072386874739,19.110238769688575,2.601604237216574,8.102528214868139,2.275489645103945
4.831409501660394,3.6626503615733577,7.134576292696653,1.2011617280198112,4.783389897205123,0.6587700966670668
4.856618817274631,3.9978724322993404,4.475186178651615,1.289917588906878,4.6441000689444465,1.175994678048352
4.6231445723057725,3.601887407827421,2.2544980252697644,0.8107954438826254,7.153388033724806,2.8590167547238283
11.376952126991664,3.056852435148151,3.8731398383386004,2.0768926992846084,9.249986159501244,1.5276222580120806
11.587648470133285,4.475636092938783,2.8078247760577884,0.8290816906044977,13.775013774934374,3.8685169395532464
15.058528402082622,4.945866542615551,6.54714169990107,1.8177999182180726,14.6551589623863,2.344137398215481
5.063044373012235,4.516992881861531,5.022155147553036,2.019801027056631,2.8376582976144,3.764662602059614
4.530167701025398,0.7654908190280072,2.1222979807978217,1.9635991477915204,1.9216249735713609,0.8839680129553422
5.192502661028777,1.482455623520781,1.7599940182170772,1.55746978847055,2.1857848388086953,0.40200924508779096
6.407506761507827,3.0056623640347038,4.938801057774825,1.3154707211833878,1.3736818559279227,2.459803096929327
6.56286396164368,3.559987730481036,4.228799050379599,4.361411863618889,3.333214520407631,1.8662394293863958
2.8683803295633217,1.7053498105704228,1.2061471836605593,1.5767158349952786,0.3367362034866362,1.841244117326014
1.4507411254115175,4.252137190454006,1.0546511332416348,1.3394334120618465,2.2841355235757135,1.944081665919209
0.34943390564734017,2.169399674130159,1.2739769002303267,1.59373488437833,1.9263574380590596,0.8426399911386516
10.685601076738903,2.7322911816723114,4.279978499923431,0.22331092173791678,4.445253183312371,3.820797197474864
14.897351562868096,2.9763981281076077,5.332654832881342,3.252908959509318,4.272402042802743,6.0610662863671
8.43465414702355,1.4126574618200145,2.6049029502127103,0.5104888628494841,3.17769813872963,3.1774235983032932
7.728420600535859,2.0921756677224237,2.810141103974413,1.1501993314794514,0.931404228149263,2.122805663238471
6.0141197259814,1.433901933358926,1.9170338114183247,1.097460341566657,0.9411271918569942,2.79168948054761
4.937402509939876,2.725522523539496,1.069845830823533,1.2648719228094327,1.4202815659451262,0.640278612182313
7.1809393598404565,1.559088215549559,1.9274866963474282,1.1602629400398223,1.8504188159571977,2.532021711065496
6.649020671514936,3.782319129311451,2.550010525859078,1.804921978566911,1.7501549607169327,1.7860336482478936
6.51853709135868,1.0425456548411935,3.1617714956690732,0.17152007428500599,1.1125941645674298,1.5475522480624917
3.5450117425174272,1.9290704107597796,0.35544785401989326,0.7079798269064914,2.6196615440118474,0.25131568678369914
5.173989005522241,1.2268725772213074,0.7529366633085983,0.24082089195766088,0.9671434296371092,0.8782795661199182
12.101261796325966,1.809529379557057,3.346226673495901,2.020773955954144,3.088873690714752,3.281711810129349
14.38398806773404,2.5115271968242374,3.314725799007088,2.995243925601585,4.343762993344164,3.0871001237726214
3.9592442975800353,1.9360769232703596,0.49809324356945905,0.39387971160661417,2.929242694559811,2.5522108718106247
8.45855530357408,0.3268211068715831,3.1637508917108077,1.9184751403556075,1.1533268571612634,0.908243177783711
8.284275315670305,0.8496885742276061,2.395318466154681,1.1539768015640044,1.5848591459566932,1.7857837852052596
2.7875219769784407,1.2084364281367814,3.2381542989229275,1.4264776282454381,0.46553844604510997,0.7089048070163441
6.001042756228322,2.965265534333747,1.5396776795474731,0.4410654288776206,0.6592769056098684,1.8307730231154118
4.040864694065683,0.20019340139420222,2.3767875478135556,1.486547694406594,1.3454885125586056,1.344186044813306
6.111069055515487,0.9095694770463987,2.2973895477365542,0.8745266558252985,0.5136644440660525,2.1047899394017113
3.4415576811959365,1.0032123794106154,0.7087269017384793,0.888897778308129,3.172195796559482,0.8626786383524568
7.337707014624496,1.1470956537382673,1.3158047825234356,0.7632308374508958,3.6385819346522017,0.9903562893911327
12.139809263272824,1.399851132840492,5.129285009048431,1.8209442767546293,4.273181589288526,2.891112547647932
7.96231731581844,2.0641290590509396,1.6254205253709184,1.5306535572709308,4.546557568328767,1.2478134935723795
4.6186142231170555,1.244126341930561,1.763286891463652,1.0683005109332195,2.7591390280032533,2.2253787431917424
4.4679743743283495,2.4143512459305745,2.1060334271265595,0.5283851154425523,2.3076987497113617,1.2190269115045675
6.905110641088941,0.984581494269059,1.125200039088418,0.8307922763749348,1.9240705549982329,0.5543663348755374
6.378004699508045,1.8312468545435545,3.1578678697151616,0.5294910677367338,0.5679077811760255,1.4530453685304536
2.7312628668562984,2.066943806105699,3.0751931232350307,0.9140061307526315,0.599420400787879,1.7403313636694124
1.7915543135030338,0.6707968190618234,0.7118485868781923,0.48872537177859515,0.6100939707738632,0.859098456815581
4.268919606619784,0.7751502679613292,1.1614907305913305,0.5287280994771266,0.38618113734019693,1.4242993179548726
2.001672253945924,0.9158098366129572,1.52793070306038,1.0049871042212775,2.2612304470456466,2.00838597829991
6.365917677332741,1.7883137112007463,2.454455409871463,0.4497228374827793,3.9719923642432886,1.4132931080498201
8.486865727030299,0.09166752165329445,2.799323688337937,0.5493076158016339,3.5212956563308766,1.8743032975087255
2.4167622032711082,1.175748339206166,0.5955369367929866,0.8370588097805759,3.0946979285351333,1.084545118657484
3.617976343799836,0.22007298803469086,1.3281931717195516,0.6650243695313334,1.4530548922080322,1.206480354906854
