Gx,Gy,Gz,Ax,Ay,Az
17.771853,9.210227000000001,5.3022069999999974,19.714,477.098,35.03
6.765639661398796,5.112254216099246,3.444522733991916,1.0925803559280574,0.9240727608489888,1.6599344753486975
2.936087358109935,4.065066884294117,1.885296132365996,0.5654192205185543,0.7717168105301588,1.3669461583053617
7.364057111739312,10.100463823302334,2.5787067974133113,1.2044645227459612,0.9858698322587501,2.8994962594105935
23.559556518083273,29.296196119383826,15.261883948712805,6.357483507583747,3.1975936557169233,1.8523903169071225
12.162980722025809,7.815767025687255,7.982040949416576,11.006305777205371,2.762623206728365,0.8427786721199069
8.10002398239856,11.4873100742564,1.5761180664071008,4.494370635088707,0.8041100567357762,1.8372135476600693
5.659735203812454,8.075384635412098,2.483189590549504,2.127575953698941,2.6458179370817145,2.9774746817959024
8.795035626890527,9.962668765323755,6.289437560241616,2.486094174067875,1.9852355029984987,1.7510221287859773
52.06867413787227,35.45950967945148,4.143682677358522,5.810093990239453,67.61416650826321,42.128259057365376
10.313060413540857,16.532495301841195,2.903772282371868,2.000200443517108,6.703698410559196,8.485767033598528
3.0231590896562306,6.368375498521362,5.457337056974306,2.465775504825025,2.9550848938705285,6.0289554691724705
4.734247234462284,7.416343968382453,7.691523243708299,0.7369407046121726,2.4676471350620828,2.862998474543107
19.49393468546383,26.5616479926295,21.52475712632612,3.6471718948996266,10.098321242328286,4.112374789297036
13.957597027128937,55.824363368153335,33.83911304038027,16.45896350198131,5.116296663515217,1.4943085318512381
4.946111802508443,12.045315869437493,2.9643411198719587,3.1004596171022376,7.21595276280738,2.6962180686201447
2.1646780295336696,13.717444812315474,1.9833914758658444,2.019070408462922,3.5977587708507253,2.3569291753009214
8.479854885974197,5.78631742874812,4.917215996058713,4.860141922810154,5.6812244084049155,4.314587893782177
20.694231804739033,35.27907690269859,9.653986108966372,19.045665031340498,24.206443860331444,16.884174431064658
7.706918298550055,12.212031970380021,5.700890158363252,5.000872869403216,3.6870240443053914,9.344949234239209
3.6593260550781075,13.44894356141561,5.635177004066894,3.9897011371987148,4.233218282601252,5.841377600826215
2.3854034729041227,11.945938895540422,8.546045637199011,6.363172046166978,4.938479752170638,2.480873731805705
7.710996508007053,24.264027850741318,8.23983285336465,14.576371256535007,5.338017571625072,6.035927097329837
6.752592567238945,47.25621946917533,20.79753003820054,33.224119652206475,4.611384242701414,2.5957573059898436
7.803006670854679,5.273605468227406,1.6067975440482274,3.0015050220761883,6.102263507939385,7.40481610068411
6.159166410805367,3.314077704614875,8.991534366271377,7.760048849462573,7.227862251867101,3.300472752579505
8.034811703437528,8.30584528573822,5.987103451143456,7.64493870520632,18.617191454268028,6.059232893286528
23.9544846961556,5.095943955874456,10.607111315839227,8.061053800159396,23.163300158585717,10.747706666409709
4.689020661009907,9.238398194813277,8.508340783531686,11.335680910655629,16.642832928731558,9.773803520775191
3.8140134330043622,6.4983478608107,3.844145431119916,9.431420432077537,6.941132736072552,5.410252305710243
4.3147615812024425,7.456943794723529,2.9616302175448976,6.745472191463897,1.441803672129206,4.636623800081754
5.083476795579746,8.18469913279645,5.132152560910644,10.069319624628365,6.764504216815882,2.295845148310425
8.775667290035605,12.501517721244609,15.038411712881413,14.589907139443781,7.5906361885173155,1.5581841082766879
10.55718763455839,3.8471930971562927,4.244689966131694,2.7877046819035325,5.5229532832237,5.907007895817966
3.117262842951329,0.8349530463888829,9.361031440806707,5.328122647228462,11.447572514272517,4.123068928561281
8.586195507078392,3.767671566182937,5.4129404133157895,2.8381536620447467,13.307943217886896,3.805392691913686
12.022639521609479,3.0005234494553052,9.696518664349046,2.6832238460256232,27.426407307401774,5.757468401797983
3.5553771485220254,3.770854020112619,6.091070224232182,7.343643307047773,20.566802394899863,7.071190764724386
3.8118583030013706,3.904427470764497,4.50976331539907,6.795065020182954,13.203082334786227,3.1314657116797195
4.964599122736473,0.8373493935230768,4.350740039270081,1.600420643786238,6.079363531499903,3.033270774658977
3.8809486124975434,9.775594467100854,4.5784612109220895,7.322529694019119,5.418022060443959,1.9384394876555184
8.366023938877165,10.520045238343299,18.704953755918435,1.7645112368588336,10.01963669331804,3.5007175505408057
4.4314490967075875,8.160363786754914,7.199601830927139,5.4516670924653665,7.425910249611127,3.0273233354202183
6.346114765436732,1.629661175875445,2.1629409960909403,5.486857283074801,11.141814634852805,5.464658077745947
6.9841970344975515,2.4871029998489527,5.108560282538332,3.3316219300769263,8.298802270563074,3.5787405643906913
9.759493746289987,2.937183026269513,7.769524858494588,0.5866335392450098,24.57872232437106,6.406379054001849
4.460409395028982,4.039547351852405,4.665829078121431,2.16178695329934,13.524664436826537,4.09997989027491
2.3028356134390466,4.093822740197431,2.219626693633976,4.16975745803565,15.038532032787023,3.1470480073426965
1.7706868499084336,2.604601586133339,2.7276898804902503,1.0780418008971844,4.768715233794398,2.6715100476825637
5.078411853910708,8.017282272825813,6.376755247891509,3.8960634719659857,3.2162102881854873,0.3188728061470925
3.631238716708485,10.296632774123065,13.121204843090945,2.9406970153479213,10.518039167512866,3.5445359927893914
2.55336572798032,6.130150178199516,4.975490444714476,2.578539595885903,7.343412043241395,3.212038239172615
5.302888632146288,2.712220931625845,3.6396945028979775,2.413887893048263,7.397844653914764,4.433974366509812
5.755253228494347,3.009499051761157,4.0023267055157135,1.7756101454169018,6.691336246181555,2.5523010902168974
8.00799743083452,4.646513979787471,3.247129234321611,1.5938467098221067,17.211538295715435,6.723662860628805
6.50968494331803,3.8137498252419815,2.4378984071999277,1.2919839129573603,7.50911615733441,5.177894043425397
1.512199779622327,2.4583542340064493,3.3594533664381134,1.6644908087309185,8.31775752829584,4.7021434348758
2.463312797531763,3.4937342727815968,4.459116330365219,1.7110913069993168,1.1899363773287897,2.283172554792037
4.3827235634842765,8.756676484947972,2.562001401856635,1.7733720675140758,3.5340170671416224,1.6710496762992473
2.794957635362172,7.013199999333261,5.0441115841388715,2.687180687394273,5.516853188407311,2.656480420909674
3.971428410751496,4.537169350364726,0.8741798727537028,1.9163508783160341,4.925430638726596,3.491596939363757
3.8708293994637346,3.400043083114923,3.279729942072232,0.5952651858272048,4.556423191187976,4.076281959297614
4.32364061320115,1.565829717575902,2.1145198023655762,1.6713384417591393,4.8859946113591795,1.1299235645165429
6.417096873295029,4.473212593667353,1.739162249104948,1.5308578389436152,8.647085113438992,6.5526383407594615
7.894217128584487,2.911764989264545,4.014395626078151,2.0680109391309585,4.7235048043918315,5.548873896413483
3.166925412199094,3.133151564995509,2.0169437060300135,1.6781395353541417,4.53203004497211,3.7618845203804137
3.2488443794477195,2.37051751288631,2.665997336156385,2.037885932264451,1.135631846657784,3.090360218342721
3.3683675738490297,4.906777491878428,1.9212106718824598,0.8346803147191719,2.8078130800611065,0.9744541077793388
5.374726881082848,3.7320270170432135,2.3958940413050893,1.2500632841951338,2.8061222419526275,3.549228392673819
1.2761973520987913,1.88739484411166,0.8039431906663778,0.9229586492839055,2.643172008779863,1.4226309745915
4.230076962067448,3.0313919455358818,2.294809738924649,0.9146747700520633,3.175601956271446,3.3666297400196474
3.897272473274629,1.507396624010776,1.8809082535193875,1.2261091511604874,2.471926005077514,1.6117089568735345
8.170094529749562,2.5215296237548657,1.5636700336768916,0.32593030694787906,4.009926247874426,5.993856249687489
7.426835952911408,1.239189424902879,2.0410116188299443,0.6659502671927717,2.533091387818262,3.6604756825507128
3.982714716372608,1.6042478941818175,2.3922825393532,0.8990273229121173,3.0699686924949408,2.267071660097212
3.0094944877829777,2.33981206365206,1.8668072731344543,0.9118820764317352,0.1183811284191351,2.5244077501430935
0.6374091717644307,2.6008313924456097,1.8786810689041928,1.3145821394199473,2.0136515684280063,2.0721297376052847
5.2627692934701775,0.853589812456813,2.2036119346984786,1.0368909802224489,0.9165858447624907,2.6813355651089155
1.6350420977678781,2.0531911523005766,0.8601678721461227,0.5968332209702659,2.318052598473561,1.4193501093809937
2.1668960107350124,3.703790093690738,1.05779978892884,0.8288540926274535,3.060848499458724,2.407108719434986
5.133371274456736,1.60137637968702,1.2518309969877097,0.7986433111948738,1.7851338295662595,2.4585113317854206
5.163114617427435,0.8404555371369969,1.408998818579253,0.9917065203702027,3.140087690945642,3.744025290703898
4.570010713829714,2.8659214387982344,2.197137275445945,0.8483687416457169,3.1813780928642914,2.7815882184146896
4.862270155830041,0.6458733696013639,2.8209924244302513,0.259436342099159,2.1939447550088684,2.1481701070459365
3.2686815243779814,1.8851927098186838,1.4821544467628096,0.26169026996120226,0.42824845294932923,1.097028385658815
1.228179664048031,1.8904734056290675,2.7798435157194157,1.34693908308777,2.5055771741745487,2.3782759918771172
3.0713073915269544,0.1345977358284863,2.385484433506438,0.4496966747166266,1.514658907412134,1.1716074460407626
4.054162478402666,1.5264042767441521,0.41224557206127505,0.5594694114103582,1.9047434404585126,1.2797759707474528
3.2956369918699413,2.327831901787562,1.828186846551768,0.7330616855795685,2.405261027477317,2.0252312141614492
2.9359996039900778,1.676177582801943,1.1910747559033232,1.089436983348751,2.490943195891692,1.328893126238534
2.598251888769632,1.9272233904566127,1.6136968205854991,0.5265703112323836,2.6949719938503387,2.0048954131156025
4.272761705239197,1.462447351974839,1.1958303672700046,0.6499256096461489,2.8325038830204994,1.3648640104948533
3.247619715968819,0.6858266098926667,1.3898465089244159,0.7109000866688219,2.427804827638631,1.755680803904647
3.040441243321667,1.801417760421883,1.810127799660069,0.5969074767400127,0.17761566118457986,1.0486874068235836
1.2527015884380093,0.8950291825510558,1.6236241743136068,0.9231972755472573,1.6300469722470319,0.9081350295020506
1.9687109605209838,1.057341181625683,2.2099710542101474,0.725593079469866,0.7130041875098733,0.5159131614486434
2.8465554435324374,1.2091915929978492,0.5968680478670151,0.28552263023050284,1.313415282983654,0.47192706405891455
4.456173622430789,2.2029718415071784,0.8885741064515408,0.5145619344287996,0.9508664415200441,2.3949468542051986
2.904364195620156,1.3063327109700538,0.4216779348571337,0.505538785335919,2.2767615339429708,1.2300176169740233
0.8358018973716345,2.4111830537676475,1.0766681675510246,0.5614482540112481,2.2814170061196415,0.862419276394281
4.063669904836442,1.7515863176905089,1.146864443833345,0.4778858401329765,2.452464789289137,1.159226027497195
1.2394941469792748,1.6929089174755476,1.3354461021726538,0.5779958946553031,1.9967402386106843,0.634204116591606
1.6955517458874392,1.9578804085974242,1.5107995874051878,0.38311198470220925,0.58487514473472,0.6128181463894729
1.8192185531559164,0.6770299875639261,1.4666905815993765,0.6714179469298761,1.309589579783138,0.6725075399434209
3.2524731227792563,1.1858485717232248,1.9419836246503348,1.1231401622321588,1.5571054981310235,0.5880954072365315
1.598415303533454,2.0507074034509243,0.854323070511881,0.6585503781915166,1.0487662287272372,0.4518901362337754
3.70962096145994,1.3315652898612824,1.3671998670081658,0.4198235343970979,0.40573877274278575,1.7970214834317122
2.5479348216894717,1.3552123456221017,0.41829435282973954,0.43453388911955115,1.9140548022706727,0.9885725544191089
3.0613338179446017,1.3676572399679798,0.15218550892492105,0.8025763356755493,1.9113168657998958,0.5809386360831517
2.892180665539842,0.9222905126746701,0.17584661690271722,0.1644196305090651,2.0281739584844214,1.7304422389224643
2.0885403668106233,1.461754606525045,0.23757718406360415,0.4322241522669536,1.4794148391088344,0.41783891575314047
2.8425118998304706,1.6086987053470603,0.8661120654958895,0.43106841736411394,1.1624796304862197,1.0357844898226887
3.3382065196279416,0.7020651439064418,1.0606065056907283,0.843259614556908,1.726232803405402,0.24460327634618395
2.7747108185650085,1.1997147589595873,1.3784285511623422,0.9914248455353324,0.7206054906457038,0.0898519191761778
1.608856045781793,0.6883426601933753,1.6208923534741773,0.9391532627455589,1.0874703034200779,0.16213900448616184
3.148450646189953,1.5239608023271471,1.1932562957349746,0.5135881855424308,0.23257026181475032,0.9124092816810292
2.0415856432081423,2.484927959272474,0.6777016314383862,0.43884377288449433,1.993306433230962,1.2653635394842078
3.7012209342546782,0.5817148959667167,0.9051875336610112,0.3814966149689356,1.7113689648868897,0.23963417133507242
0.0,0.0,0.0,0.0,0.0,0.0
0.0,0.0,0.0,0.0,0.0,0.0
