Gx,Gy,Gz,Ax,Ay,Az
8.330361,4.981233000000001,0.5840510000000014,49.120000000000005,484.5,78.14399999999999
5.805405081919621,20.7884082563405,1.6478059239207177,0.4451040113178022,0.7146025631400725,2.5243733077424695
8.129524333005007,19.274432927847833,4.180823872065082,2.368965135891439,0.7782664379190013,2.4397488819917093
7.804522324957497,1.6932968608717018,5.577850107156861,2.857740135144404,0.9311307120687861,1.5867214730261952
8.213854723571876,23.819223935997574,7.80984492864627,4.120802611635948,0.6391342899878834,1.5556263980856395
8.587874082399622,76.8215338412536,52.78897573418094,8.454384056208786,2.0106059947904615,3.44899080709625
10.269885615387876,21.200397789296748,3.9872477569657896,2.119866893684617,1.863107245462617,2.8838816232915048
9.37648038426132,18.25407513261563,7.531001139369566,2.3501743592404143,0.44239014578286323,1.8041286224186457
11.312160318999933,9.945949632987732,4.856844131004829,0.6407755121274463,2.3695764591097865,0.9715020515423303
10.157073688880091,19.048587844672667,0.8085548961352921,3.9168169420454015,8.893584740678824,8.487892732676523
57.46586262272203,3.349076344659143,17.15429448627256,9.573859738500529,96.43730975152107,55.592433628291204
18.29103234540048,12.72041737845706,1.2458953453725246,4.048540287835898,16.986724633285753,11.975202225769756
9.175453735316783,14.50580766792721,7.010812357952791,1.7009376848619118,2.821074694374819,5.8327754651687345
13.611993479197912,15.967405009704976,6.102963265862305,2.728259906670002,4.334621323967108,2.937601092585463
1.9477579275709935,30.263620317707172,3.3386256116440225,7.119909748785725,1.414167478679271,3.4382808139883467
8.86694075759594,34.45479764939879,40.65549845641789,17.85557333037116,3.5267416677782855,4.6093244869421515
5.965786664621248,39.077988072871676,18.995256045737907,10.568755070365443,2.9913406728815777,4.521046783375229
6.596537410231579,11.115109135838557,3.52740182689327,1.5555667398650879,3.031510945728362,3.3890863630890213
5.0079088911441465,17.48572064903687,3.8828909575642943,4.167453810623168,3.3833984778314115,5.1701891484790625
9.187545019806814,11.746135504262071,3.712572564994089,3.452740372978566,7.791727397393545,7.954975822088195
18.2111406430614,21.892709294086064,10.645984301892753,7.08814224491873,13.62390238421145,26.915186216428985
18.555294364148903,4.190144694515311,1.3515526223857164,4.05725754877326,4.65076440853538,16.045579726210757
8.293622688652995,1.5003073612004576,6.856986589985715,3.746126977606225,4.008737407342073,1.5492452236171943
7.904966430985544,16.807231335242673,2.398709599099299,2.12283433641898,2.7739837782916763,4.910638129453073
16.754731438542816,4.467182341132303,6.493939123857875,5.698812644105465,7.2903308416064245,3.8916115829757683
10.929027675697025,6.938132952701818,12.299595772576057,11.860248461642094,7.546878181700752,4.601481275362449
13.15713079322744,4.869211296425507,8.71893970069763,7.638379448435789,1.8410609669482754,5.139833317929661
4.691155437072158,2.0626480332994666,1.3063787520018193,1.4771272523451897,3.0599766511604263,4.425436771581211
4.087768967800121,1.888654568724827,3.621562475395225,2.7361761398483773,3.0137835248197766,8.13729033080167
7.220531513345825,4.434837883939898,2.576981166672952,2.8046403680073593,4.751585204496837,10.585362800724342
22.96011700641574,23.531892625286513,3.2988500129121827,13.540379180492893,8.10872075472526,18.286912023838507
10.712830451670856,11.831544458304949,3.101909808743187,7.824127343582778,5.97927099237217,11.197735774689683
8.272582087328562,2.042932748373038,2.8558963866433453,2.775830146426939,3.2748546015376045,4.696592471424756
6.576467210122437,6.921764971257564,3.186183397372563,2.890910330492236,4.694546044725841,5.92757281984128
3.4491187799369794,21.34324068612588,3.5070133926561025,10.592844820366917,5.4220289596035505,2.8658962343479137
4.194176542397151,12.4090940900105,8.345597837469047,3.195582944321502,5.907042203658849,2.016473174619262
4.539210524716936,13.242226999663126,5.6089463957876164,9.515487900049997,4.426241781937486,4.896174891174355
9.696743418242134,6.149842435865917,0.7694408342390651,5.003996142235464,5.67105811311651,5.43409110404047
7.755693615097174,2.078029981622164,4.015030750762274,1.6748643284516977,1.1926432601063222,2.0040813694386057
10.299190129002522,13.8157501189593,4.791376017006656,7.925484397527955,0.5861790361718446,5.1614878134962865
9.65566499587709,12.125091289002306,2.511921787620983,8.81911025205109,1.824651414422408,8.563234017782602
10.980352229446344,4.038456323684996,4.507947830029295,2.810404624263962,3.172731914677889,6.706239033017294
4.847204158007084,8.254875777221002,3.301520884427396,7.585800811422371,4.586044706460279,3.697608718980389
4.615205133048027,1.0882134024424779,0.5328556460061794,1.6777108359150308,4.376159092691924,2.1636899864855135
1.4129265564980635,10.487511471295585,6.379576779030694,6.596203194727774,2.467746849360476,3.9456659426924237
4.7089914270136894,7.8444117457554,9.203006685515108,2.506922886413748,2.0737327660794938,3.653673203691756
3.847763101643109,10.892780329085044,5.723603604283477,4.6949187950175375,3.2911394145259476,5.038719319973302
6.8116621030770235,1.7708128790421238,2.618104323501996,2.008120106125584,5.747441213471821,0.08769420797592965
7.695660385538013,3.071440044123527,1.090670680193756,1.8971358243787533,4.564987389267805,0.7933579774674215
8.386714140280144,2.354600549313995,4.960086438980637,6.277159346919062,6.2896275806417785,1.9423218509408056
7.228057648244441,1.5302086445117566,1.5801046433434673,4.289750953036821,2.44565863959524,4.870146977826446
5.657940657405741,3.433680969532623,1.711448345467178,2.8270791063147915,1.6316126110800795,3.227995536308384
1.822519197245466,5.193834290937344,2.7812587249705785,2.7689611760672013,2.243953981111149,1.2452147065826753
3.074175166497437,3.8233937257294173,2.005547947077815,1.0533679109425187,1.1052058498381447,1.5642637641466577
5.94710135246773,6.001849474295171,3.463980519699859,2.5828918031557095,7.111736046448891,3.2088510867012987
3.690360022482199,2.9967034488975206,5.417518592115402,1.0884553241343153,2.8112939563016335,2.135385121059039
2.393392044160419,6.140350571146893,2.703730558307498,4.175416298375739,1.554539283995356,1.7979223351552844
2.611615692901711,4.302506018954823,4.372260396825208,2.5240032503359866,0.3401030234614153,2.5469899704936325
4.13319450604314,3.055173776701325,3.7671727827847596,1.0381653241266884,5.7767468813995855,1.341651461083046
5.135826929757037,3.2410303108810083,1.8347293168293366,3.1030055880934397,6.870342913884167,1.1148146373475682
0.8004037444326197,2.879911962053593,1.6717742975608494,3.4869765187358026,1.0692968771350793,1.4587999233220024
2.102683646412442,3.1001892994479427,2.9037937393322597,1.4782094517006987,2.436945333100386,1.298014925944628
1.3229998561919507,2.8161685993651764,1.0999034685627216,1.7163624887413316,3.097750003147137,2.360168154963236
1.4584450125816981,2.1995375478541854,2.570525779691734,1.8373280875581368,2.401672182623824,1.0345415575739816
3.345888623692386,5.732587973699132,3.2962256166466806,2.795107979447589,5.0664958772959325,2.324025807387525
3.7405620226407517,1.1958611190221917,1.3810726788366823,2.0871466648410344,3.3570337608267273,1.7650496696704985
6.256227727579289,3.7717703833181324,3.100228033997416,3.042906305805258,4.5736617936401895,3.6737058159921383
2.0722593548529002,1.5273341564257625,2.5394325497344927,2.546763924402998,4.4602302231199555,1.3735586701956723
1.8443250583171849,1.3655703906303078,1.2474954307704529,1.4217653820941762,5.341210653917474,1.2747894101610853
1.204615273425594,1.2133243345069205,0.9235724401039257,3.05073822577383,6.715048143452738,2.1818008284587393
2.0108678365884978,1.9326485358265015,2.914468159038679,1.648093126822074,2.1948806008422976,2.4389286315141154
6.05211631160107,3.1605643673676362,2.3443937748652077,0.47957526992497307,2.9671621658786025,5.323722448890279
3.4499572166969075,1.8862361054327328,2.6327182274703933,1.7213416635293706,3.150739839040362,1.1475468072605253
2.2109862818628625,2.3000642377155076,3.091400661373488,0.27871618889779387,4.7656494800833675,0.8260413491313339
2.0751335498606527,0.5807129425963531,2.788768980695461,1.457815971655295,3.0067945714711555,1.958570059840126
2.3419327785298543,3.093835024745632,2.876607109684608,1.9571537129866452,1.0008224676861317,1.051020241149552
6.920652761469326,3.5809249339766485,4.045859028721914,2.7455539167865726,2.727050698955003,2.3155620991958936
1.7281431316672866,0.330670106825838,1.0332758011537109,1.3330067695545649,2.6912732664302097,2.146334656692101
2.482243428245836,2.135469291232694,1.917472362381428,1.6383660377026736,5.510333000537711,1.7018404405465806
2.5955837479427766,1.1737118403949514,2.1461486295720995,1.7528134958494939,3.5753295116103128,2.273684929852293
2.98563604766682,1.7577238522867709,3.140371657142559,0.7286013121742403,1.3785098295060827,2.1391703356513307
4.738317181762648,1.4803661819838763,1.8791526933120086,0.6062128098665344,2.333828068587397,4.093922876693798
5.136308394699676,1.469637235978389,2.7311149036117284,1.7714053654064883,3.4894583490194715,1.5336119340093535
2.088266826766225,2.4474582589538443,3.612285547695535,0.8884516214201521,4.5087843542411274,1.5679650937678176
2.2865792201158226,1.1936265808992501,1.8079360249837844,0.8727658510785056,1.3924051710924823,1.613729789947904
0.8015712654893288,1.8126208056946895,3.919269761420925,0.7648460746621843,1.692488363233239,1.757750007705987
4.499567964610668,2.44354614881268,5.477207523315759,0.9739413839244835,2.478731314071588,1.5371332765326333
0.2802588709221297,1.787596507665567,1.5082578488748635,0.626670701008748,2.7093794901472354,2.0937968173614694
2.4646102216674244,1.3075461448354089,2.49377471544835,1.3896679990931007,2.8206358642400886,3.243606418850161
2.762395917147659,1.0683203818626363,0.6740646172638961,1.4663383343176704,1.0251186059776654,1.8931423437291977
5.409388220162218,2.772252777621096,1.3619103228304414,1.3160703133900435,1.4384518188771067,2.421466816639569
4.679833586909823,2.346605389857347,1.3013631051546302,0.1720457991188419,2.1220872458269464,4.398990324390951
3.0863114699444303,1.177178866797251,2.3580658230040665,0.8028499785905077,1.3612970863908496,0.9697213799207559
1.307280271852703,0.8780897572429616,4.113806224355033,0.5163249799937579,3.388397326704673,2.2533241236328663
2.199603334446612,0.3739922386409235,1.3098879068664095,0.3147105289036829,0.8563265158409635,2.454304246774367
2.262501766230666,2.0517403629437734,4.4402241365170045,0.03323644539671455,1.415550480433996,2.496147922135221
4.415519156233658,1.961066253880994,4.237926408897642,0.5880396473595241,2.2845831053745673,0.4054031730386618
1.1282137455049916,0.5526607626376968,1.353290694440678,0.4575371235123507,2.42020194496785,2.0379808220304994
1.3211771006323167,1.71966306155285,2.3133787502188916,0.6019774092484724,1.9346778296734086,1.2225041228364804
