Gx,Gy,Gz,Ax,Ay,Az
8.138537000000001,27.786966000000003,0.11611400000000327,43.581999999999994,572.9679999999998,46.385999999999996
8.339239119802983,24.767771780894595,3.238446447316548,2.1492854095608402,2.193687674655246,3.1625648817429046
1.792508024066685,22.79804293649152,9.278459387494335,3.504188906167342,3.3002004219113643,1.3687205956611193
2.3367284398986494,35.1262542925799,7.453743675230062,4.081554163109451,2.3249488422751456,2.715332787901851
9.294387640516662,40.68233242193658,2.4345489515128107,3.0244736663403153,2.2302823588515976,5.216673712402199
12.32419639335067,134.71913719753215,18.20728130817817,8.275558521806946,4.592308108209659,2.5959824782530747
18.90563008185866,47.73084453871265,11.727094135315898,8.97447905075315,6.536946614949345,4.02634270531553
5.595930173649947,16.564515198695393,1.4133232636942612,1.5330809230708116,6.963657045257434,5.312027539346537
6.57233539878829,21.00655683367801,4.5879480548857305,3.4162833826735786,9.504629540967658,8.221377115894407
12.403636771206507,18.29570849599707,0.40994970290258576,3.164628827023728,18.999084859297188,12.936038975347303
26.892271177560865,27.113759472405597,1.736969786246548,5.977804769785217,32.41301306569966,21.751486450519653
33.413642081205914,29.244544216452905,6.801944327488301,9.677223002941746,48.80285657271453,46.28269532814691
3.514533563747627,24.390827128618117,6.785502827990969,2.357091659467373,3.471076482267306,7.018674161314395
8.813302968651104,19.347562773465256,9.788550898868875,3.11269010435006,5.335932733977393,4.774365491298147
2.7229486209132583,43.12336495057323,8.227290838780899,5.286328967796879,2.949300916267947,4.79349953089642
11.884763466858862,12.298574249409231,5.290901127395917,2.2249718345728584,4.683790326125673,2.4616936340274562
20.725056440126533,80.04594419811119,86.7957062586942,5.979922671673159,6.6081555065530155,0.7463486115588016
7.308547663264765,15.218693138400328,25.60654423930469,2.6975703082254907,2.9092996091515584,1.1456474210538194
6.7706606706770405,2.6146597082611964,2.4902389684490527,1.107380086790511,2.8757254495786593,4.058690947622854
3.4329463850448145,8.295105024502794,0.8565591965290325,3.4689614592626166,3.728529795360324,4.648818743615878
3.8811897789211636,27.73524650162085,7.794590044587772,8.08555095713706,4.693106133818366,12.916081198691991
13.406489811669225,33.87028578919658,5.472262320338338,12.596008998141158,9.737380530368705,23.337376884265794
11.311474268123549,13.230232046828652,5.934758134844943,1.2202819214423872,8.66881300167787,15.347500593476925
8.920920427549962,15.717785418026752,8.10872800124089,7.132198043138779,2.9355165093448523,5.0680119185468655
3.160490025449338,19.51781600572693,11.361542444252661,12.276135223175961,1.203235235350822,1.3908543877734323
4.589013537958272,28.637368805617974,12.169437904683907,12.081745042667805,3.9300745991130883,5.052259149877437
10.874592565404555,31.297608265352597,11.502180067094441,18.75475882799659,3.695333596045911,6.840237768713703
19.828362011286227,58.01824218651186,27.2363429304291,42.302649876687575,4.8079354690850415,2.055832819930588
11.476577496796954,27.484937637586988,9.418899693220869,11.537843717094459,3.396321658604305,5.165679698754167
1.6898157662209212,12.567352401782474,3.5728250853966474,7.416573530382199,3.2993243043556353,7.366628042097078
6.035634275832719,24.13015635215151,6.137630002902817,11.700114379625763,4.53170338631032,8.503966994737736
2.983955544012297,18.298826729020462,5.3657917143717375,12.26051987245159,2.023902536193411,2.1162533053055856
13.799650407871752,6.350214345820404,10.977084811208066,10.054073653585952,7.154942112497731,22.3783707698202
1.3844385635413397,6.770145163093668,4.6364829821303895,10.305621522567467,3.1555474499826217,3.4110614652839897
8.603484012902088,6.058176279550298,2.978320990981876,1.8841167639284981,2.5324759091602855,7.320934239353072
6.0083838636958475,11.230060729203613,8.770196625210442,13.317518213476335,0.9780448982229605,3.4953173699908677
7.249781184579334,39.61751886992074,13.417253972205721,29.504415071289706,3.1029170395226178,3.401618884104617
12.807103160786964,55.81047692845332,18.761955617286546,39.24753898238148,3.5323057758996845,5.357486038816029
12.367924622043345,36.79239043539589,16.773772178597305,24.356777343889934,4.154963812474622,4.983205505083874
14.531029353768966,9.331384471184556,7.542100687286307,10.593812220174405,4.1888989671805,0.8820397187247888
12.309003100154378,12.299501356198721,2.0438059037129594,2.1600517545115125,10.147395313159013,5.8893816093732685
7.304571870688634,18.89754915347138,4.925592781863451,7.07730636132499,8.175262165458618,10.484431142423222
6.772181935969534,22.36227730898567,1.8473270975070601,11.005998443499442,5.101798123888056,5.73093142057221
5.832634666684472,3.1918711020781254,5.318767829279924,6.357016123098686,12.823665552680689,8.562309816250012
1.9447607064487187,21.88830435895957,5.694929067690113,17.664555220917673,7.625193893873152,2.9249583161438957
3.836054925209684,25.223711288052304,7.989477033450933,22.224754102689765,5.271502016038416,2.8690888709533446
4.448813058006691,21.508523696073418,1.1160751600600893,18.346832200607768,1.2497895969270056,1.8416456231382186
7.569312506109936,6.320471924491744,3.074474263098872,10.005865005287959,2.6380029255117616,4.245587291208704
12.78714741098864,35.67275157661323,7.587428759630532,31.525859814959805,7.244640128418678,7.114320711762671
15.806057349825055,20.923076130933985,6.59283250039385,17.399310258447965,5.008658447015527,5.265964037712629
3.9155686562826073,13.829463579663221,5.730621595868799,8.747731296120543,1.3156782506910272,2.7142626337285134
3.6360657528618776,11.51348274812298,5.783764207080837,7.606323841966252,4.406582404525413,2.790297589023269
6.845446336486238,5.2423350296515006,1.4803309212977391,2.7114682398687537,8.737746900993722,4.233912524182506
8.77622411617548,8.315790873306192,1.8553020891636987,4.766463708571912,8.196727982412083,3.3911086197181373
7.6531498164897895,15.227247827055363,4.2219720017976625,7.0881427644370625,14.289197089002414,0.9038860716577855
2.43173213421074,8.411775518949684,2.3204973046535025,6.886923514073302,10.148251891757683,1.1744163465914292
5.807323684171731,9.903319167707275,11.276149580410372,10.468572168985713,1.9013134892819554,2.890120371012279
5.327382176920714,11.087673734730393,7.134362216879854,11.483745868568956,2.7716086737148666,2.540927029286991
6.534304540696528,2.605898094152714,4.726924632469932,5.588372201291064,3.980873009052713,1.3494539651502613
16.98193276464158,14.082645503186912,6.590137015207326,10.00383635406334,4.821610516633759,1.17249187540459
13.087436381936428,4.191390046191664,4.339762641144112,9.307413225783355,4.27026256120974,4.8622819069410905
8.414765147491194,4.834707253136884,6.966335209999903,6.278436882379114,8.836959113557679,8.260535891534895
10.7393783075525,7.218171559853369,5.388650801360919,1.6929329196493847,8.023040801711376,5.202339018913334
3.767550464025423,4.350217942621639,3.0965405112445965,3.84068606671791,2.1499488203133152,2.775467914334101
6.125659773797488,3.365157965837417,1.5859751552201318,3.709312527357638,6.374892940191457,5.079278155073496
8.413249327916668,11.152186907900603,3.172372726469369,1.725859264397116,6.160919631954026,5.105945648446223
3.6539614977906583,5.268526215253795,7.68038917496603,5.746896400467744,3.703202440875087,3.628354456260741
7.414297998486713,1.974259472117602,1.2948677249633587,1.2114549992963632,5.644720584289777,2.154921712816087
8.13923409769438,7.4243851847488465,6.773355745984838,2.1700567304007206,3.904753902080154,0.5574021537719877
3.1938486292285333,4.410883091429377,5.3924165521644705,2.823831730624445,4.108871559243653,1.7314862797433528
18.849772640959014,12.236425396406895,6.071425871107772,0.988485889583671,5.626416046280611,5.287010976274495
4.619601358836465,2.6116872736084504,4.7355692413752575,2.432992266769487,2.8266136197558778,2.864296696357743
4.413416102124492,3.653272996526946,2.716813076748777,2.722296136280317,6.081188874054002,4.384178064205164
9.553056570566941,4.012614166436231,3.2790782128370037,1.1901752076542769,9.477639766544668,5.091009652593398
2.246139882185962,1.8050826647849718,1.0826624800741071,1.6890595230043848,1.5785776131004938,1.0558546787037073
8.450121299979404,6.681575905795512,1.435616796620646,0.5229188935809058,4.380213426222546,2.5301535039259435
0.8024908946678144,3.739429710285527,2.344297088675264,2.055959296995691,5.72318524810819,4.498579822641503
4.17908360166734,8.040010786739993,7.033707909073725,3.220455295053891,1.0696349587500313,2.4523404211932043
0.7392663820813399,8.259557036701695,2.065757211092589,0.2686348772833425,1.1779180586999167,0.9040026169418545
3.1015271100099038,4.300736880604312,2.997667937565562,0.6943763472485727,2.1246145391031397,2.410663400247514
5.043985045089375,5.160137388878083,3.1236814801682087,1.5487756738786131,2.6955840350257247,2.2223584085971417
8.603819609945406,8.434378577117462,5.1286653329183824,1.034626999860082,4.168209142655479,2.979531223901095
6.941659766695919,4.799405554868343,3.770970103855585,1.0326805547643803,4.790342248919702,2.945301021105732
3.638522927239628,0.9890268723290755,1.8931097364196465,2.2736173493350633,2.9454522970823898,2.7102130510259905
0.7491009828025872,3.7020931969167754,0.9188779090175837,0.8677173243315981,4.690606533066316,0.7299383769222254
2.5456124326987943,0.4910140777275617,0.6963910247077988,1.2503316299243532,1.9996903965565251,1.170405554900949
3.8284590136133207,2.5104303163221826,3.343084436752068,0.9458193714278368,3.41280672248916,1.6383811746978194
2.512037970419243,3.8198605499516196,4.2717550972307325,0.6966890188915895,3.580975963388734,1.7301438892600716
1.881562494809919,3.5829066577130773,2.7308350412035143,0.5877331603747732,1.2636655116112028,2.3462444312252977
2.774598630855096,1.9914445177453723,1.9575281006753849,1.4049869292894221,0.8726972469734368,0.978077303787743
4.624934205846272,4.303578932096052,2.0137784760826314,1.237523692843589,2.2377155878330934,1.3341913953783633
7.940216495738024,2.952518117909491,2.4457576987118075,1.0819133821737739,3.215146121547191,2.4544634349791883
1.2214708352279822,3.8683091298675194,2.029465359283188,0.9700753619791569,0.9476617701389486,1.5787559912803615
4.038827805791339,4.199979799952615,1.9686880434611571,1.0278704415822835,3.1286823168277276,1.483449247364146
3.61985044874771,0.7069559657498672,0.6243249642020943,1.294307447039796,1.431497362585517,2.5792275644027427
2.969050410586314,2.389593669745451,1.1506396317785923,0.6115377984939399,1.7375753543940768,0.5277484479011084
2.2317326066166623,2.2298798673162645,0.6717050662725982,0.631177645894681,1.592057899680752,1.4819952587160483
6.809613602704331,1.937245868898234,2.1730476306384015,0.4837627640400999,2.808729809610234,0.5309520538294248
0.9506655146449509,0.6903170847537305,0.49427337294021,0.08954301343704192,1.394686145956454,1.771725331046636
