Gx,Gy,Gz,Ax,Ay,Az
13.319324000000002,16.024371000000002,5.0878900000000025,19.269999999999996,619.9300000000002,19.072000000000003
11.693840205805325,15.320162874232317,7.898646195852542,4.499892749428426,0.7102817437696034,5.4821157170114105
7.514309442827406,15.393940689785122,5.017948508461753,5.260677379280605,1.9796235867640628,4.218789776725378
2.1116337173636524,38.115183289407696,4.354780097869143,2.8469347967244283,0.4123693410950707,0.48970786713467396
11.648138787215645,12.322166915648197,14.292470480780251,2.237563601855041,1.422983098345725,2.326110048565744
0.5729270946695797,44.442399714867854,16.84567182863758,0.1568844913942733,1.9985441526309864,2.485341521153726
24.97451827056395,168.25214621436734,18.95471363190439,16.911716280884644,2.7490739255191956,5.062366173529893
9.802339030664626,29.782639169154336,3.362736346650896,6.132956508406509,3.149041889892078,2.2706493110182584
13.689056848655046,18.651798239812557,14.837257771855139,3.120821916709738,6.423651618363368,6.976603693311732
5.482245570591824,25.099376399120892,8.89351553542795,5.098353876233376,7.472811058758093,8.972991260736421
8.293430708495054,2.8541728069191237,12.868142298927186,6.194520201728026,19.916711136943874,13.970443070886816
24.94729595859619,14.751016115471693,21.290804594880186,5.582468097728858,44.6666982989545,33.509627971987854
37.57296609520471,7.255673108597848,29.509121464025736,7.153030012503796,53.52470263956427,48.205569778049636
3.407346372987356,12.334803757213265,9.491671474148298,1.2291452007735402,5.896323771066683,10.938723895375636
4.834964507721219,18.23807400903317,4.121447733141879,1.4828273892927804,4.320470461359788,6.980967264175407
10.393310895254865,23.7295631349488,13.337110813101395,3.130561202703316,6.72055933644586,4.689897073759646
9.191600292540462,36.079053093500626,38.25114863990857,6.001328926725545,8.03687757263554,5.208808767178513
24.58687753827982,61.597541320455214,94.25170612817595,15.132441745095162,20.171713017647868,6.517758324394183
20.29544440565836,73.05642999194018,76.15517394987066,23.51840372511928,11.09284511197303,5.801083519768816
5.320286860080942,39.2051490101612,12.432914007991187,8.74888814293517,5.588153046194947,6.956038004168335
5.1117335365818475,24.335707361661786,17.40339037401395,7.228964228142322,7.12624225502817,3.5886280534801287
10.847296946297739,1.3315159821178415,4.822797427211131,3.5355528319232548,3.1916551128281156,4.1999297071843085
20.267387908344684,5.941823509395087,5.63762690085043,3.059022086325642,10.369715078502287,12.493609813116448
29.478853239472325,45.146547238646505,15.716401429487632,7.740911631860911,8.267571829289995,34.8910043311008
17.60989187601805,14.01121276466889,5.1578089829081755,7.255980915011936,1.6386881038707983,17.866101860070447
15.33094363558356,19.974942966637503,6.998147028363313,7.166457278166671,1.398494861106854,6.050018854348221
24.26038110129527,32.09428007921238,10.084613735582607,14.485049648702743,6.6300056922220945,7.373730774031864
9.602751971632504,26.264356594108545,8.855523702793489,6.539428209230385,6.685875028804207,2.897047997748357
7.864778571227933,22.412085750621447,7.783426759654888,10.357843447723258,3.41914237507088,0.27161327012241143
26.450081282981227,155.46708671577161,39.158201386127686,57.35080352126181,8.651776102285703,11.617372642015726
12.808125007823023,65.23114093635118,16.478883341980225,31.76387983386488,2.455750815634976,2.6339400814496816
14.702069527292748,24.904670266826827,0.8619681505296407,5.1067064160185875,9.847207995801979,4.298501200326714
5.689249956281473,20.630488857262563,5.682635880767273,9.362216215604585,4.86267690601926,6.440606303535266
20.790591895222846,13.289515709796039,12.948214846853354,6.564496670850398,18.29528139404046,12.265228877567836
16.075993745067233,22.33639019900634,9.224433709494154,4.3190880452244045,19.043954902044824,8.609969159512831
42.118682499669866,47.38019820283771,13.11608628374834,10.161250159852619,48.284038149699384,27.841734540035386
13.124434888073642,13.501554232897512,10.662919906910107,10.922334246374929,18.367407471853564,7.023679651673473
7.947130997013858,10.521168696000817,15.38206457375855,2.1630171107489833,4.597088791645319,2.3790346057897556
7.764538197053496,19.896908213259735,17.032446185750374,14.901245831613123,8.675508818113794,3.515014453617821
8.249524162827546,46.577539911018555,20.85495414485911,15.013731015561888,9.831943225785745,3.5590742266993427
12.66259386173129,47.8324701768836,25.55782679397184,15.637126578655637,10.412360311508552,1.3028210717355464
13.79156030671407,84.08852476403894,27.580176451016833,35.36726516907066,5.995835898393066,3.4953391822612283
4.548927619513679,41.69176013343198,18.257431502440895,14.457548524111914,11.643593687449798,2.722309300405943
10.137167987930832,5.069557326640944,12.051454545085518,8.612969067793696,5.656038307540207,4.773920038676891
8.22287959083387,20.732336010175914,8.164969488826516,11.401553184638841,13.086171205465462,3.0138484900324896
7.688597901931105,14.659997989674892,1.0669884115516632,8.197825028810813,18.867795876564074,2.3790069884566023
14.686719306805177,37.99681013353095,17.21661499348594,11.403199013434309,17.81879121031585,6.573828755936509
14.713948951989842,12.83323292707447,18.924707518916236,3.9696525868571886,30.562694985347054,7.170011247403843
7.517553146881424,7.000909423878254,3.83155715237017,8.436551181068744,10.40311710962363,3.215222919069587
4.512044226233644,11.661665969462137,16.353402974276516,7.294361910672861,9.26130873638976,3.2903813801613797
2.1172176948607815,20.592875135931767,0.7112692479218474,4.882868578377254,3.705644357365127,4.422107562509305
12.920366975229632,14.044149406997187,9.194209659907283,6.160621783546833,5.993232473807989,2.339328132631876
11.517660406370702,20.978161387811493,15.068739298402527,5.424825663877644,17.358460147658192,3.521488390858553
5.873967236673132,42.09876142155996,10.706056499653192,19.023290097323514,8.992719199624709,2.166420909278827
8.096345846598199,4.955905591285691,2.74429892470126,3.8395759411928334,4.465459206910369,3.135650454974942
18.665794622415522,23.749670242489717,13.15388296463693,10.88372796826713,16.479235215483985,3.482261852122817
9.53119787725711,6.48578826343143,7.830610075110481,4.647766085824444,11.399014579924257,2.4252335017424413
7.692819722976199,15.475002736443681,1.5465790942277886,2.2793186302982855,7.963430381422407,1.7475639451269724
18.9733892424553,21.41208526372027,19.68402461397039,8.166548298295396,26.554284881533267,13.005197025442545
17.5371148490775,9.791148103833502,10.436648533618744,5.73169981846692,19.088502116122413,7.324611717805697
6.896777510580234,5.201605286896309,6.850668894857239,4.573201699138407,7.93120627713017,1.2217301507687777
8.899058213253793,16.66418087087657,14.286188989272022,6.618755998275598,12.50801628548954,4.047252401845742
7.33909285009796,13.287538252385783,4.183831374989384,5.0956157822727395,4.3234802122169835,2.6293982108512846
9.771002206017734,5.398330994900494,6.576376367663751,3.9716181519642104,5.1953449709908694,2.6997327993494094
18.201677542678084,15.06310300287325,14.672038962307138,15.682450329286214,4.24495839124391,2.157919390756212
3.856298029147776,5.4797130025314305,3.158899317845709,4.550119445470189,8.701831674670633,2.7541754525958004
3.7697086802775237,2.68619617915791,6.414024897504916,0.9496475931112195,7.553606973479295,2.5840508374369904
6.918774995719066,8.006950260458167,7.355113180723831,7.087126350049713,8.829746336078566,0.5349663843283057
3.3150104811812398,4.060766576209594,1.714500936561454,3.03648908830823,7.793239127988692,5.337090457471739
6.10887528658241,11.590176276609427,3.852483671792719,3.1300675038624366,8.011753191730516,6.163383340988159
2.990539001557167,1.3313540117636544,4.390921123193506,3.9653809782103258,21.534400386800062,10.923647821782955
2.843636484782003,3.7535067462868357,2.2388138508871647,5.100630674811946,8.08760694022817,3.9536293540505834
3.3578416972889804,7.010981593537658,3.4278346642403226,4.003392200476844,1.517836992684675,3.2103010532143696
3.512671162625304,2.4129234067965823,5.171159881864485,2.5142652998520605,3.4226544016748237,0.6494906017543652
5.463250691136594,3.7453492039610925,5.142589492247176,5.023054768588787,2.785450995471543,4.945458860309188
6.743341810780964,4.454197952283762,2.82943803908345,6.8791613355808465,0.8942741969665704,3.2047675505859754
5.400754649761948,4.711306871190031,7.566380324628933,6.3787769862354065,11.250855314507856,7.663710689554325
3.722094348622753,5.496547930407156,4.463300249205717,3.9843759389712994,4.611022973341758,5.827513005319958
5.266138046362702,3.4734282441151363,0.7013955989378943,1.5957019147432225,5.392717601469291,0.7781285969863899
8.830121668477952,3.9283756856350833,1.9533987945614337,1.9380842798389089,3.1743837634517456,1.249003511094684
2.0784850257066205,7.0571563274829225,2.268435643786609,1.7965547639758859,4.283029111194924,2.898002250796843
4.575499151845961,8.804636379028926,5.021068939253171,1.641776862826221,3.196922444874472,1.8613429505223655
5.899918329808824,6.612192801578239,3.855642773398535,5.372851274074334,5.110785316274522,2.8931119260805316
5.145107459171065,4.359649058502898,3.7472425388254313,1.8568728825606726,2.536216408294047,1.0926583894156123
0.8968603231500007,6.01085915943588,5.545546594427875,1.651937637431248,1.2958057900361988,2.5288982702506337
0.8700716046060181,3.986457209542328,0.1207173621645884,2.619878079338903,1.004402918722116,0.403940187785161
8.736683458975678,4.1267549045429215,2.9700513286503383,2.2295856729662553,3.5885264437409257,3.0894352521703965
10.613508183727463,9.623617435358394,5.7777334151080195,3.2702825851566444,5.924728724110817,3.2051084052605443
4.527797223958606,4.913710809959686,3.2621584402681574,1.4334857961832967,5.744753399355419,4.017738322141101
3.7817812648763565,8.75574436284081,1.0163128571016096,2.1841935826972203,2.125298585790673,3.330037922275947
9.22939397163421,3.014666615335531,2.026239853470223,2.063684630355628,3.9798862497954794,0.8131508815087173
1.5498221392615406,6.7875238235011155,1.9202187063253284,1.0541813438477945,1.1023033854073079,0.5073026191960228
5.902616394139921,7.083670803887208,0.9916673939434736,0.7250605546641268,1.5835167690109377,1.5750220680287075
4.526470389818314,7.871043638128729,1.696447537212433,1.8032361912481332,6.304011256452993,1.37125560350412
2.9421772800277823,7.409576543587219,1.806916975204003,0.9203052724264018,4.655384217614864,1.6969681601718423
2.2818154844883343,2.3211381315315434,0.381042257950462,2.140027210640472,1.1650015193565604,1.487696546989809
3.3838004572403677,9.577645523684449,3.801311551586039,2.7567115368611175,1.418817250047583,2.1816804519268795
5.850402174459099,7.348538422211998,3.2243605189523534,1.3554198346568649,1.3176971151362713,1.4063217237883174
6.250043317970499,2.2080303866737396,2.7839753739506907,0.6840212454864433,2.1419670519440825,1.1396194014968426
