Gx,Gy,Gz,Ax,Ay,Az
15.822418999999991,4.341930000000001,3.5128589999999984,2.559999999999996,436.89,152.314
18.584950238050798,12.086004217278054,7.851380274016877,4.654755776226237,1.7819546429980946,3.2946674705952765
29.08184840111312,21.05050170507101,12.183651029441661,2.9608613880750108,5.459803718144693,11.318559991630442
31.403931257059288,18.727263955785354,1.2909158337263709,1.3404400098337563,4.313819799165004,3.0199574347187705
21.27432766649854,90.58650684756905,22.889718264990783,11.602242284860086,5.041932069724891,4.097217269687239
48.61068955434136,94.0399403235082,45.02008565761302,10.433179419714046,5.449205395700992,6.420965003790714
12.398551519297278,61.67107655610459,31.365966114786083,7.753347271342159,3.044082117028637,4.999878864535778
8.162103025535398,27.518718279668345,22.367184861814017,9.43299979030979,20.5053938691687,17.267676363584762
13.463921954134623,13.68704122363618,35.91161517789732,9.909312284818942,20.497855559438403,12.108917698365644
7.150774551690364,22.90896806140425,43.89230871129563,8.496672234426212,72.12918690169195,59.68120721485772
36.59745277483532,17.7724972271068,17.70802260616012,9.149181205151924,85.31438809941083,62.683277705728685
7.615961007034356,43.3582869945189,8.738099953192156,6.386871618430997,35.42285953566863,24.959079531844644
22.995401248867314,19.890423083643924,25.83843050376824,2.9114520098329377,16.713629075056875,15.9579756191733
11.417607709428236,29.093357123813735,18.888347027970866,6.581413196959054,25.46174033486874,9.176310088456615
50.43592131097767,87.78390310517918,99.53142749174359,20.20289115657148,19.212783781555693,6.048392494062701
33.980968881393494,56.74711852349901,35.61567339198277,8.780573787326821,11.316505723163116,8.774437041406134
26.73931546241042,40.45084373297881,48.652181148037215,8.134494826129844,4.53094245711498,7.201325812045808
18.25915759197751,13.591168224740688,27.814312951169615,5.769524161487764,14.197736992818296,9.788699992339295
13.132363917110832,32.85237273495154,13.846512192206042,12.966530779364087,7.705110252873151,4.660214797715767
22.29212179761962,13.17425055137736,10.52184349629638,19.12704299780941,22.660873969593503,44.00179400722631
11.460449288415544,18.943535996261147,5.815706821018376,10.487629848067247,10.518498315956949,5.062015857029515
19.675018435364773,9.85212138325338,4.016511313218354,5.353694277658835,12.48349097516724,6.452659852627072
11.140182905623252,33.744575134997916,12.060729360624789,10.416266815493229,3.9194413147703635,6.243664127043388
3.476933983490677,41.171145117311596,13.084237713401173,18.55614181368764,4.720157840403048,5.708348079888147
21.702618748604287,72.99544284487278,19.897358638811443,42.74563234554829,8.72853986481823,4.79569916067835
9.732155236045918,26.88535807861753,0.5692760205394717,11.177008428866491,9.34990630072939,1.2747154773640015
9.081780338288143,21.401347161905036,7.611146032490286,8.987499242384985,6.618568303787444,2.6623645216891862
5.490603907367875,5.407252248417254,12.204255095506902,9.3844388205372,12.634060492346025,5.030212179800432
13.096010904838657,24.1947244117052,5.416859297100974,12.630063278145183,26.619503699196088,8.864125804298117
12.503339701319929,11.046781866337529,8.467457159574533,10.159073723484052,15.948444139470016,7.270878977691927
20.564071499808886,27.765820937841948,9.600227588196757,19.398608345244273,25.010585735600433,9.686018313751573
8.839106899287886,7.871811475615692,11.045474487528887,5.044814616382946,6.157484862777768,3.8500859750316074
6.235678279176638,12.501130168484652,2.6323800925662093,0.8934196693806097,4.083934951119065,2.8230272365503173
4.41568396687014,22.167717452352978,2.8629854141508138,25.214916242800562,4.026019242658031,1.142432151723791
3.733980458353951,19.523465449999296,11.236867929300109,14.334789190197748,4.415356065746876,3.256664435702382
6.725115388735895,11.326608751716662,10.055810478961167,11.699432565594151,2.7594837977901645,5.542188691380483
3.200695605815275,13.176547753974557,7.338314594766128,13.503130892067498,7.504079366477682,6.466017690641042
8.875973991798979,17.757193557998118,4.920348730121847,5.764389260564391,7.244222176714272,7.438404768884035
2.8867184274563393,9.649686418698982,4.096269298116662,10.794326236195149,12.302049266626783,6.112316456103039
9.26213606976695,11.470130554226786,8.470569431297111,11.624327722950563,9.30365001061543,5.58011501124461
8.923727470306583,5.242620725894234,3.204727286276306,7.3268975880558465,11.773748290732117,2.503014737684278
12.769120372498358,10.19606971061682,11.120100944465149,8.42007903393188,9.315414868885883,4.04739340323161
5.005138861553767,9.766330621795673,5.675506906504511,7.242582094782423,6.344122481352597,2.450825087918828
3.9429903925479968,6.818288495364618,2.039093764463658,9.121070224353234,3.081452029268712,4.170251107432895
5.843002151155877,7.739409734530198,6.981542945626429,14.518198189749862,8.614749889138395,4.504388184996665
6.43038115768915,17.435031850752225,4.047034474489936,5.5036407754613235,3.1885735633876364,6.1893717480805375
11.474981163151234,12.964645334282823,4.433477033274553,7.5433983851235205,10.380907147886125,10.627389595089971
13.073211177265799,13.754767013611822,1.8511532967774986,9.600976534000726,16.247196456350004,12.302565892720152
0.9165206716330868,3.2569177815898027,6.690211578220619,5.0670403850728825,2.871269854660609,2.020309386569791
13.825292733492924,11.546115691952185,2.712529523458058,3.9593977074909006,8.964588324119582,11.246113360302283
19.61347717361016,7.439302992813191,11.773966868331401,11.14581966179901,3.848215566284009,2.645209506006944
15.974887397532727,6.145587503700272,12.822739193694588,7.248072652200059,11.416397234984435,3.3264933851925367
6.900705380691221,4.374746781101814,12.971799431428328,7.722670550169695,5.7168132262140565,1.713568896271922
2.3637698861949357,1.8707488857815031,7.10408337231374,1.841004797201094,8.861782595564538,0.2592256013065937
1.1442364558128855,9.506250072937176,11.715982945277226,9.746539202746618,5.400295721964265,4.631522930048857
16.124609815878852,13.879459029869706,2.981231907572528,7.420801864594424,7.224666203921894,13.405388790800766
12.161088774793715,7.752354152037036,3.4928544671900346,4.400292240567056,11.999143032904353,10.11526984120569
18.19146272853484,5.273128220501467,9.431529105853604,2.507120663225019,11.998156505747707,10.39289713951375
18.74778654737926,8.134768227028346,1.4914892980298167,6.866500505521004,7.673171686402447,8.930908110154391
9.299186273367802,6.211633725076188,7.462360541683432,2.066653164814898,5.247412624471305,8.947476848446676
30.05431047389994,6.898589426464798,17.96688298353913,10.503339286113418,9.55602460649749,9.938174882391086
3.2373430415265028,3.303004674907582,6.0168187893572815,4.321756622289323,3.166043315118554,1.2057696178715027
7.089514210149776,6.918707085891195,7.798981203225692,8.16648528937675,1.0864096567230852,4.086559025185075
7.940951094268615,8.335929031099665,10.423664958847882,7.747322315465199,6.1507202593820285,3.6676330154874397
10.6027330415546,4.1705453296866795,3.876571328571524,1.9101083121174152,1.3704775835199547,7.612325753836454
18.832294715830958,7.450603766883363,4.691735393227014,10.23003192682059,5.398197476453851,14.267545218742558
9.414152476620181,3.540840188396991,4.690390988860511,0.5499798313894462,4.044109531436362,5.032220411863718
7.8106203294222905,0.6419187728771459,1.8116690818466419,3.137191383440699,6.189620854914503,3.05798078473895
18.86502510606823,9.840583585659898,5.65714605021926,2.801599536719823,5.074698318048263,10.107060671219982
21.001878757849525,4.342210839498427,6.785651078499285,4.001929496045309,3.711272024352173,5.197139176883334
17.10958788905822,3.178959876370319,8.97230654221517,5.331828588509571,1.7954501492864678,8.133981127843178
5.173153966937354,2.192186734344325,4.7304810434354945,4.717483200645604,2.0756394723668894,0.44704787271344465
4.527617007997745,1.3853958801376727,2.0512841710889567,1.5038284819872507,2.27838337551066,3.339848212726828
4.659741667947374,6.214857716115213,4.8671946660108505,3.182225609911813,3.7529603347379843,5.58285486824669
16.467988117396796,11.1033531785538,6.169546342453796,7.537921948206687,1.7952753404564181,10.908539310584835
9.924632854189333,5.522421142831827,2.4579160870855308,5.018713572798287,2.040951687879428,4.091271548346268
6.331180086345696,1.0796547897502804,2.379226671478199,1.8507204299096804,2.695056882637065,1.5546735351670864
6.887145759121648,1.6084162948137224,4.991302183159501,3.182773652310642,2.1523094504971554,2.5987587666014407
4.65124457658336,1.1239194048337513,4.268495877594987,1.5668916879430195,2.5817012798601002,3.218001135908901
22.325463644144914,10.246510307856397,4.081916640011762,4.987234738133301,5.495609956074152,7.932091335187397
1.2172888173091894,0.9196950193528177,2.2173392720939806,1.3298366605113907,1.4144441286808977,2.528111130222275
7.24163361519962,0.945150331101394,1.0011083909216474,1.0887985548407095,2.71991342249738,2.7788981968792577
11.918214670730737,1.3981943321126125,3.3676066714627497,2.5857314378050265,4.020494932568029,4.669665640061553
6.031217761347904,6.365633247015341,2.710776785693614,3.7699638733967933,1.4938727535760594,3.252699574156401
9.934067766537385,5.76152895212316,5.406652695129968,2.8883940288337553,3.138559481404851,6.469450120050897
6.355237608417193,4.478311870254603,2.6511841043785362,1.6366892827779556,2.9906567606396117,2.028792602713542
9.672479490225601,2.274288173382954,3.092292855120298,0.785420031388905,3.0760209263165246,0.6944702807846029
7.307467327736231,1.191406588813722,4.357693924047671,2.157506484553863,1.2626695910024108,4.055472094704638
8.574723997819087,5.653767974032709,2.473163546130233,1.8869152542934555,2.6847156285565714,2.019327291200846
13.068641914352133,5.660319207959221,2.5143840626212794,1.6526749866973702,4.830242029949415,5.248512986540249
4.676226772108148,3.1502619983905595,0.6618252032039317,1.6948310675087093,3.8984997833230075,1.0254157432903013
3.5225703569933877,3.573050174956605,1.4912227732262227,0.6988632336285178,1.5806442101312672,2.7668664371856813
8.521822881389738,3.6138113499037416,1.4816837527208204,1.9998929322392172,4.338461300181181,4.2263152807972055
9.658472119153178,5.825562423314609,2.9272954285833004,1.8126656676860706,2.274831638120609,3.348335197879011
5.4086826882124255,1.4030736837431228,2.7723356620918467,1.2591380627908821,1.231366229374613,0.7802797246871759
6.3087660545362265,3.0190659671825815,3.1599096060968437,0.7847525982609396,3.6619696813691918,0.7564837997834242
9.561000949910461,4.304100553114195,1.7089609209208612,0.24785390926183729,1.6270941328502326,2.9492425746263042
3.432062738977911,2.730459032979884,2.7204776819576524,0.9009910492777784,1.2388313372239026,3.0267657174182467
10.51581913744572,6.27734364732014,1.3982066792433034,1.2322074855461136,3.674935470440222,2.114010537469925
