Gx,Gy,Gz,Ax,Ay,Az
2.5532970000000015,6.881553000000017,0.8001670000000045,1.8780000000000001,480.654,4.950000000000001
1.5329178696219732,7.55443821129259,2.5822769315582366,1.7584803093903285,1.2332569990316968,1.9974143291715392
12.043939568154869,19.00513569900479,2.6016486479197614,3.0143709514656503,0.5908777478598106,5.034897688600449
10.126088130860124,22.695627043699083,4.874414218176232,2.962304762464875,1.2700222872227953,3.6541682519621315
8.369537920839832,32.32531279123219,7.8895284234531555,2.7022545509585023,1.9439874634573218,2.416651556092426
10.854397094258605,223.0052533531616,56.15651729521727,16.111391650769495,4.086691861804748,1.3885260783608413
3.058497778734318,28.821894749538103,2.942819503707808,2.3824904046281556,2.450096347396511,4.380379763353922
3.7089762118118736,29.55120700547432,3.93696473915616,2.6023745769691575,1.7586748500451121,2.9682484670307723
3.9192393802243948,35.356648247692654,5.802725985568173,1.51750499780149,8.317649404845419,2.7989994364986615
7.867414960986637,4.954723547770172,6.8354514588747275,2.081252576492152,3.0865233926955877,1.2835707847916509
39.62313570813161,30.305977107457096,11.18631173991196,2.3295651475835406,80.52472105285958,53.95697119196919
9.31037788124523,0.7341387233578118,9.793824258788238,1.9863499225051897,8.564530931108125,6.216733810643874
7.795491166398896,14.325812212606888,5.881919673474807,5.19875477701516,3.0646701446199804,3.4873180652918645
10.831489696861265,5.66039264439373,8.221715270511455,3.828221571347712,6.264765627388951,1.6427621264499324
3.417742730980581,21.41310974931135,6.848993634650694,4.958587718677719,2.37657913484231,2.5250680117079134
2.1466887408417086,88.13623130599515,148.89797851498022,39.835801461932,7.545379036288317,2.371122390113822
8.008322648945128,29.263816392068023,28.681373657512612,13.833386816365254,5.14750303680501,5.556502823505742
3.998469916047898,16.56104541398951,5.0004409987619285,4.79234217663842,3.3443852813802675,0.9874188057655985
6.383792638887781,19.98042911446276,1.9446816133386493,5.3471206454327405,4.223755477661351,1.59864156383471
9.67926657010282,2.731131410701638,12.233112570435381,2.8337123780567435,12.608117645267468,6.5631978299427
44.6877266798937,35.2523436260733,31.78016630290798,15.917255056399831,57.36465525805615,39.40846493126846
10.644479820377452,11.647753370514872,12.195863476972853,4.668387340139704,19.147845544220118,8.997481159266314
9.404008213406163,10.943169001690203,3.385216911698631,4.071520338763698,9.236250798145969,5.3220931765818325
8.783417036919312,6.019308316255895,14.200391696482912,1.7281770066342388,5.362427335695889,0.6419707531322933
1.6331273599032692,21.048559828866154,8.194089948584317,7.53642353419327,9.123284597854902,3.6410521150150674
8.498931787476174,49.46020038712982,18.358623102014526,37.60389905676537,5.740573092170259,4.124965780840936
10.56173445870996,11.831117617184454,4.234480520071843,10.729579196949311,12.424225185669222,8.026056493290982
6.232669541452244,4.28336989922053,4.820266962209243,7.54704013687376,7.371419373733289,3.213965532944026
14.347994944775776,8.46205597374911,6.121726832271189,4.316553154656305,3.987848684265444,2.480577676093662
2.2016686816404536,9.864346953680123,5.686951735264069,5.8704235039561175,11.887837329615,4.963848488955845
15.366186900676059,8.76031677786611,16.37178225643828,10.178978248052275,36.96136489626633,23.139205361316325
9.10140343320971,16.11977369759203,3.6866208172261716,6.658855670073375,13.639850471814091,5.161531360310022
7.468054287584963,3.7358599666659162,0.17925914395911766,1.5569886581483183,5.450522710283242,2.5666334855021624
4.490722946329858,4.678213526302597,6.495731401546869,1.9359456570182672,2.5688504868356823,0.19493345818205646
4.495864887246596,5.75274975837169,5.201834376243613,2.6069890338215473,11.100512633788622,2.8779753264315957
3.1320076758047484,34.96973078541684,20.683550010090382,9.707750273378608,15.69111406999328,0.9636295796742889
7.074676778622442,15.795964630646774,5.47012668767362,6.927952630005173,14.331290744384203,6.380072251035822
2.1390922496574696,5.9106155735071955,3.3018352405652673,4.920510665318772,4.244802315339142,0.7338919706008089
5.313774705666804,3.091662422039398,4.320408368631218,1.002179996106321,8.54978590552255,0.9819473260431854
6.2986372167661,4.731701698424027,7.365471349857003,2.664050547562834,5.603226239520101,2.6298249968017844
14.218028182900124,9.956690934983463,21.157289750617807,1.4953149029515367,35.14598795180239,9.190253261620931
7.464125180463241,9.04860555100638,10.312058593472134,2.65632270127043,12.621234157505343,3.284111440322296
4.278514963334875,3.9445472660030574,5.993566306191256,1.6272525654522483,3.258651100461542,1.6559644155977988
4.407808344795168,6.53346907766245,0.17009100857957365,2.0519114416977438,2.249659853298891,2.0720900824539457
5.1943273857593315,2.6386574882729095,1.7100571631201715,1.171901038693394,5.191794360762912,1.6956782344617798
11.375023706728628,6.485336428926572,16.436180267562737,5.319499300803925,19.332056679425946,2.893333205215752
8.639533423843538,4.335102041989496,10.973732386230504,6.284459609031401,4.211119962751611,2.226737357698233
7.173780080436021,1.7257471621910585,3.5236552676309367,1.8041621014321254,5.073851518903389,1.0375260353936286
4.704039580039519,0.5114756544943491,6.060881615352507,2.013921582043701,2.883145197529904,0.7418627744729634
7.362139079631878,1.0581051022859533,5.056574496898297,2.4963588084683934,1.3875514289302942,2.9741309914408443
25.655330148124616,8.129508335717318,2.6986324447203023,3.7061219480366345,18.846724097078297,8.268555511668913
10.04079304965846,2.110830729772285,8.210144699938901,0.9074287719943176,9.340409103310115,3.8449458315622747
7.568494680252458,2.465181691257865,5.284887097038048,1.3517610786577057,3.2887847318277488,1.3780501367112508
5.531076489759925,1.91718446596413,3.9540014299564543,0.5292934951205515,0.6737908246639496,0.3888584446285745
8.517264085163553,3.324207879069316,2.57868586797969,0.9178691970167904,1.8733980953144587,2.540982345958433
19.769679875775623,6.373887134584215,7.143353208381689,0.8507524731022806,3.284831386632239,1.9536529750213347
14.042616858296286,3.6357188878991993,6.340191464411533,2.8161492685868406,5.732571268902913,3.807124359314295
8.972846149365314,2.3119603128678485,2.0849479655318492,1.2346401971735441,5.324653666353055,1.1018854736257064
8.035516069083053,3.799514035780715,2.1673452410632055,0.998511447686586,2.711535542058961,2.5471533904290595
4.137021609856337,0.974121100502343,1.1228832251872007,2.5023272163183687,4.706998000809881,2.6150895176961773
29.829652383190464,8.520668376182586,12.379460889015824,4.800659024878879,7.6833925528001465,4.980563136985517
22.31219044137585,5.2949048724758745,6.219620223813302,2.1349342680006846,3.708178369279062,3.594798971094445
5.965814372288675,0.9713605220888466,5.153937906637334,1.8913563708030376,3.4071926754835395,1.8358625621043192
7.153534995346356,1.0068215224423869,3.1346201025593206,1.3049720479718658,2.3329480729593928,1.0769088027421918
11.030330401505038,1.667049562806562,1.2319013558097487,0.9518682127221352,0.7106948626889088,2.4326623409332493
3.5307889129866963,2.6046999058822884,7.751034351182613,5.123862578892968,1.6523232277801494,1.1573916380181841
26.06162897416428,3.1492552885870175,0.8978280063820928,1.5723041846037957,2.771487285183431,4.160533086164644
5.240252137551665,1.2855943350609378,3.102072065895234,0.43222354153824827,3.2197138013325075,1.5078907498585925
14.069511793642024,1.4970082276840178,2.145313187609015,0.7344794777442857,4.751968203547074,0.9365815411449376
8.748915811108649,2.4578354989618094,1.1276589831780746,1.170109848462138,3.060579985221203,3.724429210690223
17.560058848869964,5.187059460719489,10.02455944823783,2.7735242524818537,5.245331354596386,1.90279496918528
15.865190863299446,2.524039138692033,4.005780420306185,0.301211345780922,2.7086000357701576,2.2066674281435548
4.086869414159853,4.818471600966588,5.107994425163925,2.197033400378286,2.9886251706902325,2.223065892387821
3.712982783345745,1.0775238505929303,2.1392319977458434,1.6990886861435424,2.4497120144064892,1.3663003443007806
8.072999695409143,2.4578096607474413,0.7736059198824331,0.8680934885329278,1.2918844623665666,1.049447065854661
4.290094138859865,1.0320873164002293,3.9354438746529135,3.2818261045775827,2.7885741033156073,0.2529485762004446
18.47101495790777,4.803555277900564,1.2247339962285142,2.678000698947106,5.715162802634041,0.43455101976141614
7.772502286494848,1.4330377821023903,0.7985266476456772,1.2887387624480116,2.769550387010806,2.0363374980789803
11.271471410327523,2.9958578251615893,0.923127586086773,1.238510797222513,4.40695698626754,0.09959631459749319
9.174497651138497,1.9726918713896835,1.127841469248817,1.7566863762777758,2.8456724664292565,1.9016608832948565
17.66238346435425,2.1690021420590333,3.8760379293514275,2.2206367976023116,8.862357216219769,1.0015503443911344
7.037429043709972,5.198821884059002,1.8329918734453274,1.2485206333368168,3.7692683024835776,2.2725346263214807
5.82869883321683,2.3887202644475605,3.0020754946143655,1.1797534228747246,2.8235686767838253,1.2577625981164282
1.9822810568743547,2.64977892829701,0.5557248237647707,1.217349238371132,0.9380249079921096,1.952914987171198
2.694284892563542,1.5553664155896478,0.8723633124772571,0.17432221941212556,2.3426521752060303,1.5646752721957722
5.368247519042484,1.3864156257713451,1.1941860162689613,1.4841563999055452,3.476528450364723,1.6351508435511397
10.372878453241684,4.246456613562024,2.93788267845783,1.8692350390990085,6.540414119514953,1.268440600891838
8.883247523119207,1.788035173056155,0.44970336703695574,0.168331636481509,3.2020121199310014,0.8940243541898486
8.261851530141984,2.544401199191541,1.9565822615345068,1.845173570164217,3.732111661591101,1.2337046792001936
5.694546975269413,0.9735461081896136,1.5931451938916426,1.2962919138455413,3.549561933140061,1.3570743982265128
13.993554037148321,2.5551000149359253,2.3603274469664934,1.361451223679249,7.927386993190151,2.4279412566370557
1.7495807716593081,2.466357779916489,2.8012594245714038,2.03184446545852,3.8199655651593294,3.1784407064637614
6.580172667698921,1.7601345872164427,1.0282093461711759,0.269050338372316,4.145777198369397,2.1091107864153043
2.9594214377579653,1.1812582349089906,0.7360867660592445,1.205386724733873,0.5398646109274954,2.486662079974466
2.634667248950339,2.6238591035521086,0.5531597934434124,0.38035297358019776,1.0648493180718082,1.5767324700849215
5.955875672177916,1.3931621241988068,1.2508181825732678,0.3658933950010933,4.002691025141804,2.375782769463146
5.249654817100247,1.1641193840611253,1.9150981290691942,0.5155729905109111,4.447580968128755,2.219321014572906
5.771281079163987,1.1348585456650995,1.4733946713278498,0.8683104408455944,3.3411311669201726,0.9232260750928207
4.913506260724176,1.454365417516608,2.142492826891844,1.52104899680915,2.30568140501359,2.1334466191075823
