Gx,Gy,Gz,Ax,Ay,Az
0.5494969999999979,110.35481299999998,6.9231009999999955,32.782,656.1379999999999,66.14399999999999
7.818398487053066,110.2444926051671,5.418974823220723,4.717590964960182,2.3427360186378188,4.0603797330580775
9.643386657513936,95.55322076493833,5.293435762121755,9.411866748754441,2.965307403982287,3.0071314089897507
8.340954174679554,77.29370406677602,6.998037931686978,6.301578904104406,3.1457251674262907,4.007890339122736
19.515220637051453,72.92895654997025,13.598824521334805,4.896003463126564,4.868416762370687,3.3484075873020283
18.639841824861428,84.46532913807816,22.614137790430142,7.784471434179373,3.6269138990943137,9.529788222267847
20.769638047974833,111.53127870717998,55.127712044194475,10.759596833738815,3.1413204221938686,10.695076766336403
40.848763089816536,79.08796382871346,46.5971765722425,6.438442202746581,12.362992917171411,5.027954391509577
5.673201001681237,15.396835165952758,9.939318827134752,3.3752516422104435,6.788917795164844,5.165744641630836
8.145696125700136,16.29232343250592,10.530955046732164,3.8780575142759117,9.184833090533003,3.9849956361805967
12.617654936793684,15.276910970131505,8.89530313628366,2.41410683541632,5.681602392601044,4.999085134651799
7.787534084547598,15.95920355025246,5.895654177993067,3.2689187431914988,11.993868734081145,8.956131010005949
11.102213636902786,5.40468850578897,7.571152837281706,1.0128409618534013,7.394271802993585,7.197854305859464
15.36309211898362,33.22397881435029,14.480122134333516,6.534890626100028,75.13316524194907,61.691677700468944
6.150103080609628,28.888344618827265,4.7940219021476915,7.24086521353925,13.10412925737681,12.80719392150382
11.783094662918852,28.17076520867145,4.374667934952563,4.405896411822885,5.493084324849494,2.9860600254105307
2.951134301572928,16.25741817401205,6.252796745285405,2.167663413350478,2.085352732146142,2.3219870165447998
6.521933583233437,22.449256803061605,5.940244327867582,3.9440536057512823,4.921301960790379,5.522443544684362
18.339652364780893,25.5791099490076,36.56666394507163,10.625184980541587,6.604906543617942,0.9162096866867777
23.86843335039825,31.644710722941692,63.25015079160829,15.102248970226686,12.999866755520827,3.1621815272209015
25.71687622805348,81.70798202536618,74.94181670252749,33.83848905549173,18.774759374184658,10.054383771495814
8.1781979473352,32.13076813138784,15.56188532300693,10.644231261585066,11.278272964706478,6.207541381774349
9.245866480428775,11.31896818554652,18.049971975395223,4.957974758470734,7.1349290594199255,5.763361765621966
7.434377426338943,21.330028053954297,11.924213382972638,9.77377909783684,12.439498210966223,4.861805674874757
5.664132900720177,8.513192580920737,0.578310403712329,4.790105574992332,15.571896899081713,10.340414555046792
9.001560548126339,16.1599078857731,7.186432201509085,4.805667308288942,6.584834888274098,3.9697957157535275
16.001066176300824,18.914253303163633,19.92133763391756,5.1904480775996005,29.960035137657783,39.79085966788221
11.778262405837895,0.36183739922575725,0.839874399187109,8.731852871850196,10.749164214443619,16.039450073547783
14.553843452566461,16.7456329010871,3.2650480803257373,3.772792061764562,2.5834497344006975,1.3116920011579625
3.4435927789820364,29.13519469349703,6.050801761102715,10.249605734851523,2.3559373771910477,2.1604943732215127
7.885140226010129,25.795664895554232,3.4277334537550033,11.321057163376649,6.219395199511727,4.905179532455562
9.315142511304357,24.81342981557301,13.49768649553526,16.44684838073125,1.135282946668483,6.1517616115473
2.463605732780242,30.9550438285654,11.713149063583037,15.24550948932754,3.505541877306754,8.696549963212066
24.934487651527284,8.934847650276074,31.544672742548748,11.144208640513774,11.284789774524324,10.99927602637278
7.730573430178554,10.469964829546976,4.1371895243367325,7.031221117324934,2.588794719541031,4.593664713296924
3.218075256734282,8.952556883565821,9.134302942615735,3.159288800264675,4.610890986397345,4.160800867125752
20.70358863361884,6.203619992486196,5.825547522991383,6.533127287910898,5.51287140312173,4.2844358317001285
15.123331415749325,3.1907311015409725,3.861603213587881,2.2998972829116817,16.468491334810583,11.63917194882366
20.639421524974928,1.5339564169713615,2.978770394748396,5.1343190725711585,10.161208288807396,6.64940754385921
24.5532854570691,8.678640202185946,16.513807588290156,16.694836432128348,33.25102755198147,22.40750340294456
14.544315570590696,21.32814518660319,18.074994831850738,7.32351849844315,9.322581728478891,10.352227719430413
4.428454480148675,3.798259554579152,0.7817094788333442,4.070099291090064,6.5584341168319105,5.124272108208232
3.0046394580319684,7.152411949789669,4.17628836971605,7.628400685639249,3.176255127425445,4.462516173240209
12.857214541621962,4.431979018743934,2.7223016770040465,6.003839138383496,9.841257659635648,4.584890633984869
6.523566364654205,14.205309250191899,12.320886583541645,5.77009575868948,2.466641794563129,5.768121751136409
6.9535449555817594,14.087713175421491,5.001511878045634,9.909951295992476,3.5411855211128858,5.686816138607136
37.637400042327435,30.72269679971642,19.70750722449292,12.452392393331907,15.082522300132792,8.716312665091595
8.421796601009973,2.2492193513926737,4.478169867533728,1.7391237568616924,2.209876652857245,0.9500546176236027
9.73645787326854,6.4211253030569715,2.6876842544268245,0.9945611652910502,5.030590287417672,5.309536022952809
13.669440416094922,5.424791916155124,4.162108862271595,3.9091279028286854,11.891559026478587,4.051519052902841
3.959366796774495,2.639514234878451,5.042269502384877,2.2453413222894705,10.299425526434431,11.001209407922602
20.174228192433443,3.9030359510227126,2.692767483013519,4.586371591669605,13.091876330092214,3.8929368114914844
9.42130536410432,3.466993260901162,6.795823541050201,7.354541275218878,20.20262400272879,15.20019268084972
10.45048376784494,13.253254086625272,17.29227225917197,4.692873137676819,18.25421812508532,10.054841674531309
6.791291030730495,5.619863128109212,0.5209333527523431,3.920818642277191,1.5676638647263188,3.759404391290158
10.607492031246705,9.144709113058484,7.092593966833052,6.328424557521259,6.699102126602359,3.9511231603013504
3.25494196943335,6.236611984339404,6.162705887526046,5.042821743944379,2.6144454147318803,2.397623479498685
19.045484531141643,11.134125088774843,13.045372489838222,8.582683035631957,11.1471064761418,4.172663169176257
3.909354912190528,4.692008596873193,2.49363929416147,6.3307995495316165,8.339281668826253,1.416899069106283
28.360697067685766,12.09743035350807,9.206621376854663,15.80970735886026,10.493324633478961,8.25451834736519
8.412917927949785,6.204622799738992,4.269543385501818,2.1220195162094537,4.337389669870909,4.038259032836818
4.311730597450185,4.376858578763762,3.7696328041113825,3.4006596163839253,2.990551691914214,1.4734805288189434
9.72028503138339,10.277366719150564,1.4446818199473355,0.8484407596599252,9.297421634439797,2.3453846876175293
14.869227678741156,8.38048678168527,2.3441301691199437,2.122736435317228,4.874773321169537,6.824661240969613
16.755741412777066,2.5740399332030486,6.032976259741976,3.4384775342245284,1.1120654965606125,3.7463609117240604
18.943013101964972,5.169612178000942,3.4411889829350923,3.7350251473661498,11.636965581503611,6.590855470366406
13.034312301441465,9.730424542457916,10.592397660181183,4.522507683751088,11.796613169361564,0.892194901390374
2.879623877835902,3.040240188758671,2.8188167840902856,4.247686056394678,1.11303113862987,3.4670682719085377
7.928528960286747,2.2453892688993906,0.7928286534421738,5.89270634447398,4.003432626544599,1.4024586592893324
1.8905485433866176,4.14460158629887,7.7019687856036665,3.8031755413642916,1.743823786387247,2.3417240364125997
17.58044494613451,12.81878872602332,8.334295812322884,6.602773193806257,7.5701231567429454,4.610538230765829
5.398801232666388,4.530775797152793,2.2014516176539374,3.7257957656504375,5.2408801698847105,1.5240134079546928
11.750359142919388,8.339127550718473,6.96769948141788,9.148453409876439,5.869891305906975,5.370974717781388
7.145808018600791,3.7546511793195063,2.9456777910408047,2.086104528771606,6.037333050378295,2.8372784414344525
8.28281905649409,5.323487055079121,3.636644630219089,2.0915944505619675,0.8906733028839721,1.2800748091095515
11.619363278871251,9.433671646823864,1.644404502214675,1.6648843077366533,4.656820412612583,1.8215065481825399
16.826071965487458,7.280469091927991,2.579028021946322,1.168442323001232,3.626060917561264,3.0723319743139546
6.933837496515967,4.410484152325245,7.43522010287874,1.3257914378623832,7.538393212471081,5.098135611141672
9.159759308401913,6.158234084300764,0.8470063781912672,0.7720851368160287,6.924038161363893,2.4808969663957003
6.389905875004764,9.376017988592434,9.393110413254815,5.816797840146925,4.0211816157723,2.133723282497557
5.049560365631045,1.3900782345094116,3.324354201644814,1.8094222093615273,1.6559772472050436,3.08133406518153
3.338675214890148,4.789029991645293,4.295649959135955,2.036910382925919,1.6898985833888192,2.080827316888415
4.371791165155976,4.455663945443377,3.1668043049361003,2.9095257733027124,1.218300014001993,3.0724379514391704
4.850967581070372,8.301768987805163,3.557621449456163,3.4841662914015963,3.2817019176270157,3.323725829463891
8.59543968270447,6.059017047394089,3.1328764067862025,1.6614329922292976,3.7453358963996917,2.4760504289268113
7.67149032889826,3.211316909020584,2.5819193832559004,4.916692593989497,5.115509851604968,3.337444663122231
8.609729199352248,3.2718077089807562,1.9464372545238633,1.5279393469168836,3.5780442590442663,2.5500910627236495
8.272427780289044,4.330439008913354,3.4243372384792203,2.613193392329342,2.9888435300063043,2.2172582254959456
11.761747375169458,3.5830061988514523,2.2204088477994124,2.2207125774047376,2.5797205275019777,0.27606946885819417
11.04389371133558,3.998847454377554,4.704415907695725,1.351320772965356,3.6651948048941363,0.5949455474733266
8.926957835158554,3.0572850413432024,4.975077997597242,1.492069007413657,3.656689009301813,5.1903971700324885
7.41628920613755,1.7279088541990069,3.6367817147754953,1.2616764693447056,5.840244465033499,0.8976758119398708
8.408489196149697,5.662635498695526,5.094023055291963,4.943173970079636,1.8377263063109648,3.3071194005438116
3.767558754095168,1.0061723771317457,3.0611311697375347,0.3350376564492325,1.1492032736776323,1.5096720867579023
2.0562548598391905,4.510699956707004,3.4034903902417284,2.0038805508845026,1.9354849067483741,4.495371173313177
2.185869645768088,4.256697742039388,1.1625906188249673,2.321470012107651,0.32634128489394215,3.3644424248080758
4.447943669989802,4.154012413844223,2.0656485495651706,3.0109660847027047,3.838474451928464,1.4527650707428577
13.648980130194861,7.194151883902294,4.653957283276682,2.3342416632167966,4.404244812037915,2.4545855988058625
4.080596056774439,4.967493080938309,2.046395430447785,2.437012751771843,4.6050802952646865,1.3470217840624448
