Gx,Gy,Gz,Ax,Ay,Az
3.8159099999999992,19.824126999999997,10.149145,28.629999999999995,352.934,84.74800000000002
4.372467142741391,16.00350438660524,7.9425017567920895,3.568625056505723,1.9649625710316054,2.9786031408278686
24.392297615782713,15.643866243613958,7.6827745631915745,4.272547634185542,4.12922345270784,5.550182250874633
11.731906041183562,34.56496943300356,10.998670869453958,4.281052872243548,2.755774589448557,2.669231486415002
44.61243010941218,146.48261168433947,53.727621379680194,15.34191591830266,8.263173683421721,0.2567597637367474
4.832377534805877,6.947918642855074,13.08667481842912,1.2960888997419941,2.4821552069976933,6.347846822585348
12.081602461645097,12.946772383634537,16.2135785340397,1.606417462196025,7.293290593040604,9.881488413779172
18.343190461658853,8.371916630760884,4.980860042584982,2.5790758702656227,34.73075628413821,33.96255685677348
14.227164636433193,28.262364781345386,11.359708587570564,10.412930135759233,62.59505000594766,51.84943660925485
13.540799323144277,50.53574070721692,12.666744944530208,13.110426189987212,18.603939643130655,16.841526025715478
8.16839135658537,17.82577178387502,6.029851222325701,8.74474447008504,10.294904822830327,7.8905950986226125
18.308327557810507,85.48607281637689,35.09144321359836,27.25449038224501,11.040001419815894,7.867183349437299
17.45144120305597,93.99236636133686,36.17572082077034,29.47790252852407,15.37607827260873,4.879330927286796
18.967643135235367,34.0420594186914,39.24691319707448,15.313863753053251,1.419757929933942,4.280623931338553
10.303986842158405,25.985938946542333,12.512723519159206,8.738221762988772,6.853770167430027,4.672650594011727
35.5747775229241,11.339509655875553,9.612875215229556,4.691812005042867,12.63162442236963,35.10059106892849
19.46777392492906,32.410191437839124,4.690847184367021,13.237463211072667,2.8608951861594236,16.641426316443958
20.8193778903495,4.842326507209576,6.70916473976987,3.0969724448086158,4.664753230589203,8.743356823140916
4.680803286282137,20.05039530158566,2.3105414160112048,9.44307606167556,2.5404017948581803,6.722407209462884
8.832732468736076,24.94849164469463,17.878203988607126,15.40886169695932,7.587722449769047,10.453287779728669
8.703885630690554,9.250185641747672,4.368261725184939,4.919988005771915,1.380655135091722,3.7006911128802993
14.67290646886678,8.379312232555288,9.278259102243855,8.569613854410644,4.571003245556362,3.05992645178763
17.171943827462982,14.07970542436662,9.488532817695155,4.04679911413179,8.690168245626301,6.769446877461497
64.37238426705265,28.099884802893733,10.30001186498557,12.227647440459434,37.18673381990312,22.645441649440727
15.751721779493312,15.638268527860857,7.159921685319753,12.356195739753035,11.822275825581427,5.652783972307839
11.462092094335295,5.159216898567701,9.054556196538549,5.464834650401928,1.7694286104143349,1.350443322076906
2.577501846210504,12.738382071941787,11.615575097832505,9.185719643263901,5.9684428518813295,2.6197337511299943
20.69284774016891,18.897752821300234,16.27062071572526,20.533232215239025,13.430610147396802,5.545658930908256
16.344941382348015,17.553015461721547,5.064838328161926,14.804875347522604,8.327377335033363,0.6861126010757771
9.261752319436962,10.144626594633454,1.7530552673612685,4.67614992120252,7.319664977140163,3.068253602568394
41.330089301230934,15.852983985419636,16.81490246717445,8.145642714910222,23.019339686862946,10.527939860879012
36.19463462660735,14.716602607064328,9.304975416256811,12.018044182311618,29.951921501884797,14.202026230139005
25.88080354195816,6.2242898712635055,8.432035648119708,4.470989493495841,16.183487472356205,8.70671492371375
4.642666765990255,8.030240086994493,4.502598249285168,3.9231591892896445,7.266620731012194,2.4183957406765235
10.159439697395332,3.706876115296185,14.234876891511066,24.00860678535757,14.600434569761768,4.4074177242273285
3.4276763983278977,9.063587248740038,7.665702234704321,10.689562047485238,9.673276062458324,2.425527702644439
15.879246325206335,1.0573370571179153,4.935145632867815,12.963642535113644,10.294250432485791,2.9864532198775553
8.14449104862348,12.11436255455381,0.6483221838204438,9.178847706036446,7.46326981452063,4.2383002405179
37.59841106527011,11.704124693950398,13.766209258847203,8.132248141563156,27.482012021544598,16.787410713415618
10.561244599996293,4.49398499331647,3.6713845024961085,5.96156210931443,11.075311167457139,4.599730120808493
17.918557805611474,1.8943307693298264,7.071863427060207,4.845481633354285,10.557451541955546,9.812532202905386
7.0699805477315305,4.494502217101848,7.652191556106962,11.21651127249727,9.978415335582012,3.5686519970350767
11.870876174709297,9.420243144334497,11.728273526170106,20.810692577393706,9.794646383356266,2.842388962620593
24.62203011681844,2.6441135698735394,13.124006846770268,6.416113918533107,8.909744356315915,8.83943989085801
12.579211357344263,2.0022671866990653,2.748719398284011,5.599351787296121,2.231620673977413,3.225359967524188
23.052558395442134,5.661723163323314,6.48213018531099,6.93662092563517,13.056380182941705,9.697909225194872
33.37284443464848,2.19699112588391,6.778062628464847,4.047072933559659,22.11058258002303,14.272227053072438
30.215949294639767,9.546662090575383,5.0957244913246305,7.467567581031017,16.877241895738194,10.668302842386993
4.197515125490554,2.6001760854963893,0.6830418172883111,3.422973744997582,2.3786396388834383,3.214498921776743
7.0484766292459655,12.603034902334413,8.191143334461,10.851698092981808,7.153953133456087,4.5237983705693665
8.671487489784422,5.7244194529642956,1.305399443862457,6.987674584022474,3.6784467504210157,3.320394997477286
22.54035485669456,7.223602377535229,8.078182921502993,8.624098793665183,5.2324158264006995,6.248143117084647
4.994719638098123,3.3852085381685297,2.486188527043738,2.8413943102100716,2.0694949154279474,3.916564510014794
25.664258332500726,3.6449130108402072,3.691478318898817,3.056421143262244,14.32798219331792,9.566196675222075
5.153902406336078,3.980102854065268,1.1094695693472258,2.243213468477216,6.817311635464847,3.5309351153145005
29.919206602066467,5.655103723795784,2.960667564136256,4.446561313848708,11.241757359246568,10.827743676852952
9.723358670292233,1.032912834231502,1.0343061920692713,4.0321424205247425,3.399817330541627,1.8494946937656829
12.934159797404643,10.704367527423805,4.560011315042012,5.915732915515416,5.490145221359634,4.332524528510123
10.7277156971996,3.1875877866509343,2.495400614225143,1.5561774551550076,1.21596314772267,5.05713373457847
8.740612898971847,5.421930231662874,2.666934351338985,4.03372775743263,3.141686982554626,2.06839241021109
11.062631673440183,5.9419908014018645,3.372242115692032,4.376581460109271,4.3630846894197735,5.367740195394975
21.146342154820044,4.416245950763498,2.352527315634913,3.4055969280982157,10.981615928681153,4.564471509280508
14.131105183586754,4.548902987117881,1.57461586735613,2.165098787852274,3.0767695576185345,1.2017683051077463
16.425745575240096,0.984076593936316,2.7106871450936074,1.7929634338139784,3.4076305385192245,4.974925244086428
13.503931715079238,3.72127897259674,0.8239270657402972,3.155429824385032,3.145663350579095,4.7309592274926136
8.857758401568574,4.583969458776059,3.8687936137929686,3.6937169704161574,1.8148389244915337,2.84333193195968
14.347465807935597,5.854473722653781,4.627968084013241,1.6382764165181196,3.9990314992419975,4.362298667708431
4.176229411164419,1.119503701952572,1.2610577654560298,1.2427230815567336,3.510572070389185,1.1803576627422752
12.527079645786737,4.992321918225988,2.0036535750169833,2.2408642792826003,8.164592332856659,3.829862415409988
7.210852958344175,3.280359985702658,2.0824584169967353,1.6894020963660918,7.470226596353561,2.7097549678153707
22.707672636771846,1.3976458496332353,1.4967318242520078,2.8121127620179616,6.565828064869874,3.687287692285955
1.9669003693619873,0.9267379055204539,0.5905077614768534,1.362781839651166,0.49963873143898657,2.5312941290597597
9.777524329453037,4.710355748092616,1.0983946909006004,3.7294389295064874,2.5510333459143584,3.1914574220632654
4.180568777822743,1.4918364184500124,1.6984098715293134,1.2065894383614182,2.5000627232313315,1.825207277856459
11.520296782334524,7.297645708925202,3.6604945692979167,1.5196105486985578,6.183142625799662,3.4282471256402314
3.017980256402596,1.1871277104997136,0.9550242933155605,0.6177621176776044,3.1726215099865613,2.1089366521527713
10.271306239542463,4.625466223791525,1.668295351038002,0.855721846829452,9.584045779326864,2.230082337355683
6.489536094146187,2.191663091115367,0.2006944340431959,1.3981069355230131,0.8788911251146166,0.7599354951676052
16.692597284335935,1.4542479274577529,1.784268119541091,2.8448067685498253,6.617365218422535,2.7925629141572608
6.788058243732838,1.634818297691108,1.890370777317554,1.3963591934602413,2.178010189329642,1.2179048937037804
4.6268454515437885,3.3526789574349958,0.38531176307633697,2.168971559141473,3.107664794474388,1.2369735738814314
7.846565699148048,3.9193559093887074,3.3011884051068727,1.7055202807248935,2.5695334165334547,2.239674831922439
5.670150404891976,4.079801550025841,1.1873927640589677,2.0014043972577196,3.2791800672832414,2.5985058875503424
5.439718025088557,3.8177136769698703,1.400384609524749,1.566006214868616,3.9251816958548416,2.1437218714596264
3.298955497876053,2.059705806648947,1.6061611194578576,1.1835368098085752,5.636183564388018,0.6064022508555292
9.880003056029969,1.2441451756691386,1.1364712349146908,2.035332508388561,4.259352083552279,1.502954566305396
5.2498903175949,0.9093096069968024,1.391874568483966,1.4778685391626574,2.6265310583074397,1.7094591042779066
8.600502423352077,1.3298342973660535,1.636816796625572,0.679965438694344,3.1773575433573753,0.7313982256075885
0.0,0.0,0.0,0.0,0.0,0.0
0.0,0.0,0.0,0.0,0.0,0.0
0.0,0.0,0.0,0.0,0.0,0.0
0.0,0.0,0.0,0.0,0.0,0.0
0.0,0.0,0.0,0.0,0.0,0.0
0.0,0.0,0.0,0.0,0.0,0.0
0.0,0.0,0.0,0.0,0.0,0.0
0.0,0.0,0.0,0.0,0.0,0.0
0.0,0.0,0.0,0.0,0.0,0.0
0.0,0.0,0.0,0.0,0.0,0.0
0.0,0.0,0.0,0.0,0.0,0.0
0.0,0.0,0.0,0.0,0.0,0.0
0.0,0.0,0.0,0.0,0.0,0.0
0.0,0.0,0.0,0.0,0.0,0.0
0.0,0.0,0.0,0.0,0.0,0.0
0.0,0.0,0.0,0.0,0.0,0.0
0.0,0.0,0.0,0.0,0.0,0.0
0.0,0.0,0.0,0.0,0.0,0.0
0.0,0.0,0.0,0.0,0.0,0.0
0.0,0.0,0.0,0.0,0.0,0.0
0.0,0.0,0.0,0.0,0.0,0.0
0.0,0.0,0.0,0.0,0.0,0.0
0.0,0.0,0.0,0.0,0.0,0.0
0.0,0.0,0.0,0.0,0.0,0.0
0.0,0.0,0.0,0.0,0.0,0.0
0.0,0.0,0.0,0.0,0.0,0.0
0.0,0.0,0.0,0.0,0.0,0.0
0.0,0.0,0.0,0.0,0.0,0.0
0.0,0.0,0.0,0.0,0.0,0.0
0.0,0.0,0.0,0.0,0.0,0.0
0.0,0.0,0.0,0.0,0.0,0.0
0.0,0.0,0.0,0.0,0.0,0.0
