Gx,Gy,Gz,Ax,Ay,Az
14.608414999999997,3.1649739999999964,10.369702000000002,7.119999999999999,563.38,7.635999999999998
4.257498098251084,9.202565889164545,3.2725811055536695,2.524380710160676,1.8018313226311242,1.2313532301172836
1.8492076952507914,9.618670854785483,3.666520370120208,2.4435650888521,0.825698119642762,1.680432708934634
9.897105211187146,14.435208701746948,3.5139547110516536,1.3218631619836065,1.982982600527322,2.387433005310369
11.228823156150076,28.10318096574572,13.317990905511557,1.4821543695305048,2.551728467921749,1.2688317733197
4.144077614513342,44.188029300214204,22.22530350352418,3.1622315861300487,1.7436153280752051,1.2672001135459368
8.455387264017084,132.14528797637615,31.943127135939356,11.051426734079664,1.4491429331751726,1.0999250787785098
8.465200220630964,25.668187134749264,5.558430335044201,3.0213355904047465,2.1649183406088026,4.561206051698783
7.787853094988572,27.35444239734043,7.109229188867121,3.4573575386957898,5.269066602894024,3.9979349614378705
7.246543904297227,10.525390501510458,7.403475405793341,1.3896617336309742,6.334955429590717,8.156841009857148
1.671336304132431,22.942449920697648,9.213019406460642,0.987637638027424,9.713549934441001,10.28188658086369
3.5537675151339294,32.381188777340036,9.064874285621917,2.7430829665051153,47.75154166700101,44.82394031456383
10.468985005423619,20.66558371753784,9.218487245385328,3.079501707640458,25.257637481186297,24.03824747297449
8.174642756342037,11.274951505718782,4.761187663196797,1.0262087002277875,9.679259950080999,10.929012428698655
2.9351701736074656,8.10988760921593,4.425699570327021,3.685753893531179,2.917182232379564,3.345811122343993
2.9483155004171624,11.817632651186372,7.2322605686592,3.683128098324235,1.2884429893844187,5.6649923488370995
2.8331033637087257,16.726482029263373,16.709216489790435,2.162817387939938,6.4849397021431345,4.219959390669702
9.799611858434597,85.34432419191332,84.60639290109175,17.791067941877706,4.143583302000593,10.306093512753808
7.099740778141241,20.342477829814836,11.46831838803264,4.074138876330243,4.779711843302016,3.6862302388606065
1.2510610124398154,10.876146284233615,11.624815609059123,3.590551957990717,5.811581653179223,5.668607738637892
10.128721912485332,13.077881657850432,5.885009687020312,1.9574025530381898,4.628910160108068,10.521799576158928
6.73138014995846,5.069364547446612,8.148185081644156,2.472699881040061,3.884621370467685,6.247054487806938
6.848423124578994,9.775617456096114,4.247360955249381,6.5586561554012475,7.760625565447894,16.48321925758514
6.957656690527179,7.994214092385372,10.91365248186339,2.3069620470865706,5.9197562779169965,26.493544648203436
8.54809843640098,14.348996194760842,2.3757793790039976,5.085783610116933,0.2647374107497343,9.683542399399997
2.1044539874521755,8.248170143887569,6.722720598650379,2.6688153131983134,3.040661609255834,3.6413005047906752
4.021108900932229,9.325847257298568,5.60211242978824,5.397797417408311,3.4767902727994753,1.4224957621364236
10.388145501045873,23.642996452095613,7.765035183550207,10.217913993164588,2.5751494779037336,4.489977831770229
7.0046449890566915,45.776890449663405,10.591479958642651,18.794529789973332,6.218865992916164,7.20381921158706
10.105942156093569,28.41774575446288,9.765232459349589,10.685529517875748,4.50898457354931,2.9230093631826386
7.053867648992722,10.909073827177517,10.321422759719105,2.3390619109836512,3.1406544736417605,3.130714004594097
0.7471985713741222,8.723424993671289,6.32421841750823,0.8952813695205889,6.263805971237051,5.957045082306667
6.399155887911841,11.069288557217037,6.482294200692979,5.3269501139737345,3.960072985306979,2.002252355199387
9.346215869001123,4.153185159818481,9.01093726975413,4.026281077838929,12.404952897362115,14.925338674383342
21.632311893443006,10.181865674194336,10.658651105105026,7.958298350956201,30.336258298806424,33.77266570327726
13.430566126902054,2.027990507870495,5.2261913647028475,5.844491080476672,9.404945269715274,12.04398731500709
10.949172296751952,7.8985761791729585,7.434270645214694,2.776642539555722,4.556668769684991,10.773531061406402
0.286451725343177,6.022081208239016,2.6388245198660027,5.560156540070351,4.346514690980761,1.3190923461167705
13.112357781509273,4.534002021308639,1.261754723982267,3.222824580554775,8.056608398148324,6.403595764381271
16.085467504454286,8.569227853391398,3.0787016894595807,9.517588211965792,11.402393145077639,6.813277121988195
14.901338473673176,16.65215919599435,11.565054623747171,6.978295386918915,8.753979055638228,2.846190828130253
13.163988306626386,6.484762920517656,5.446448069214422,5.841950849528853,2.4864855230686707,1.234290816968368
4.0411003580189035,6.800115554570489,6.118327242235901,7.9923596532815955,4.670660611195814,2.0606101147524503
9.224009117139682,5.895356721207888,2.0368736825245253,5.497198211554692,4.245425801536495,3.3921567712887737
6.5560522620542825,5.116158411619559,1.3330806490284055,2.0267725544567115,13.012185497482843,10.274198034932692
6.604563535341926,8.303353748320179,1.9821335372373583,5.950142468692847,21.017904578256474,14.017270903514397
8.752114428025576,1.3426869468506057,2.121113527626489,5.556155423996764,11.365459918336077,9.478240820497582
1.9725921773724624,2.1795202310420083,0.7476211861278748,3.554117034802906,2.713539172460926,5.66083097976622
3.734080800697397,5.849563857277568,3.2922829614076905,7.341649502774232,2.841134920851834,2.8134832475825244
1.7605331433061029,3.362711070149435,2.5375749188792107,4.355897807757809,4.577683921672148,0.5825542606365591
4.6114161279521095,4.7351315918458825,5.0971649964264705,10.713866756229098,2.644487191828787,0.3484160532938842
13.01094683808998,0.9985188588469813,8.37533302000616,8.234047879268923,5.080250467701613,3.5321532707878975
10.246252310946954,2.7835432032542484,3.7878684301413283,5.208726743483461,3.7647002926108564,1.3714348524979578
0.7579355743609192,6.4111490375709,8.791107085662818,9.77886891548808,8.829291159721675,4.461863624610582
10.310925655775662,4.454820747404262,2.9896430651833668,1.007431706459612,6.477967516685804,3.053306815520408
6.697427741004459,6.346099793838051,0.4908757666742081,1.3427468237117732,11.245598390528682,4.9513302196897255
9.442727620655884,8.209266827963186,2.957016039366679,2.058140528207673,14.090906182182154,4.1878072111498295
8.699176659887456,8.41134339887115,6.2294060141507686,2.994817457012263,15.070580316117914,8.643646679217039
1.1812588522436698,1.8037388814519923,1.4039411537589068,1.4060830634476624,7.710208302459564,4.6211415980467025
3.919532044543384,1.2582603130606693,0.8105698218432341,4.533861682566355,7.212819587173912,3.123596498984883
2.841687917794463,2.2164058307014907,2.1013006221413963,1.7805251046586408,5.304080915918645,1.605480701942928
14.403756190136527,8.28735835547032,3.2752405394045248,7.228857867049566,2.2404132484948236,3.4624710788411526
11.48858368364181,5.752612720381863,2.7116518194814665,5.059603470563786,0.5842966742950483,3.8100569180099093
15.928980210248278,2.3284432765133105,1.7758988319846327,4.5234821149864315,3.7448038369615313,1.5564722657869694
12.82882265768855,4.966224800222478,2.6879181345769405,5.944060886548027,5.731419271679465,1.1812961391385906
3.690438385869209,1.9767504332688266,2.1007845561527105,2.620021727783108,4.271987867937477,0.7375341146537172
8.40735042846147,4.721276945348056,1.8934131172559356,2.9313791657429245,7.02648038055207,0.8250470739989448
7.795630996885593,8.91594241540862,0.6785501835605995,2.969388974638227,10.278444859314463,4.111983616888135
8.032579443962009,5.870223070970059,1.692951785007086,5.136770200002107,8.666053035433649,4.672169200359864
4.360290469688066,4.437885636328417,2.0462933442683826,2.889945829546778,4.192483336363482,2.6508662388744884
8.62014353684711,4.3031142280897114,1.2341832399233372,2.7333488600863474,6.144478748783679,5.8745883554670675
3.3157655335344827,3.4264991306352046,0.9348086167421941,1.8913181115320816,4.6262603489980725,1.108461094522974
9.380134694080297,2.358151742571872,1.9599285766525252,5.698622591779506,3.947925156500288,1.4923009696351206
8.77420764506668,5.803651024383826,2.5876101429108873,5.132063819482964,3.184111426026562,1.1090330600971978
11.61589615985809,4.904260067665593,1.2376309717712692,6.300466536796787,5.936603762467781,1.388189952623889
5.325851270936518,4.872852140665599,0.8922710695933497,3.466429698018916,3.9791473050640085,1.2739983346751589
5.69613751294304,3.710691030137896,3.6078127733669745,5.255142457155253,3.98809069538186,2.6479615055343193
2.3909104365438507,3.971773444185303,1.4963595794442048,4.545450082455862,2.3211997048186905,0.5462476825190267
11.251969742549319,2.881206168863475,1.9148245855155208,0.5486398956767169,8.936798552744104,2.346739658519068
5.953325742492353,2.8058512321286404,2.316343243240209,1.9220364996947719,4.865680338067285,1.253641602706683
2.453119911185766,2.7777812846341314,1.449116905301806,0.30454441370898794,5.9853576251915745,2.9838540992179294
7.254662440534604,4.276675024788571,3.0332776466473215,2.7174680699898324,7.640444857614126,2.5823847055020894
1.7003060879121892,1.820865194953058,1.3405759748693906,1.6480040193755157,0.7015176863923099,1.1805990486434483
6.301552232834952,2.4953341521290677,1.2983596436729528,3.102569874805352,5.949199869362268,0.8680934840490616
7.184227504675883,3.4337401102308633,2.0810533832380678,3.336763755428218,3.634272113526149,1.1440303947803447
7.11134573164737,5.026927130887397,2.0880393960600427,3.1380587583177433,5.324844311077552,0.575183432549856
3.233833585474441,2.1830690468592193,0.4550303443908504,1.0041426335604162,0.9882235571465331,0.9858358356906582
4.118256706579162,0.6773637006152641,3.2016431578287974,5.162593565117705,5.291626985645501,2.3851252557256837
2.80587930934046,1.2308366976259808,1.5657050269983477,2.212821472514143,1.7023311753652783,1.3099875100605307
4.004002999250894,3.6533825397908473,0.945190484495053,1.9080668206347893,5.373283236464819,1.2856323832958476
2.400419920248286,2.507023231475902,0.4945874795085764,0.6631282178734833,5.351979743123629,1.0330365193968278
0.9127170822987054,3.3478083361923607,1.7110857102493358,1.8404341391382895,6.0825645204778285,2.551668192947264
1.2119301165162184,3.182663912637601,1.3094257697716978,2.3435221868626246,3.392645414005024,1.4524597016759377
3.330819496864153,3.2847563325331968,1.3869127241571888,1.646745536222681,4.839171036989517,1.8681771747145723
5.241960928554879,2.383948267197447,2.0041322221367825,1.6765180716940558,5.004184493320935,1.1272058507195306
3.9683433545329643,3.7681919022240637,0.7151482320343233,2.4277566752144013,2.9733477310593184,0.9778408882204019
3.1781874284122855,1.4875918825495988,1.3927754309973837,1.7054624164814725,3.00807905624579,0.8348067219030122
2.4819647930548605,2.0410986471361907,1.2580094582895054,2.504163801917697,1.6834550939668727,1.1730428438115994
2.490545376530379,2.5144209584807746,1.3886064205296442,4.004607689283163,5.341142883481374,1.6968184470592875
