Gx,Gy,Gz,Ax,Ay,Az
1.6911470000000004,0.366324999999998,3.1523639999999995,5.328000000000001,493.0620000000001,50.324000000000005
5.14479406395311,7.424782721136564,3.0315364625241834,3.28873828446947,1.0315806524870126,6.222955647446083
13.87590992407576,24.664408093004752,4.763220037615719,0.607416973158625,1.6067028518064745,2.776664421866188
14.640106056547145,23.034800395669826,10.454971069019757,3.2425339748359123,1.879554867410675,2.2085651901468917
6.721282954009438,6.223335716175461,2.4246128920448626,2.826636467439878,1.0677286819167884,0.4640098027686763
8.798912045844439,114.84066077192922,56.73238188823044,9.250939529933087,3.4607743301890226,2.5746311193686773
2.833074674057564,3.345487604381663,11.037654924947894,3.6345956026537087,3.3263588087068126,2.67360650980426
18.365060716717952,21.804272876443157,5.457653803937018,1.6133557829107303,5.319769089856034,1.011938595421363
15.737814795937014,10.513685507307061,5.035939422695948,4.333427748422045,2.7433133677242374,5.46362256088212
16.65493661729758,41.73378176082096,8.759752981947544,5.8348244109884435,8.657378080016871,6.510523433367197
52.42083793440241,28.432631598345957,25.206967596923292,12.131266719452524,77.58561555168802,48.270955665938274
18.161787504799005,29.994952615712197,11.874237629645402,6.942494935526402,24.62176853133107,16.22945771701808
6.436939210514487,25.783567432345563,11.56562443054801,7.769691436363552,12.846635488680294,7.726197494885258
11.412294387202586,21.577099019920254,5.739382072556232,4.452460286180415,8.791004866605215,3.76480422067387
5.159415961674449,23.505858760385188,25.0596061986744,7.7064422612752175,3.0564075671325117,1.4890160906079286
14.561113464183505,54.59069440857446,96.76328459686317,12.718033833477707,4.20028780104301,4.078007476800147
14.823480933360159,44.46583401125308,37.59095300302677,11.742734651116585,3.367172130773976,3.290184503519406
10.073581227070875,33.21056534790644,26.372261048415755,9.437481170244974,3.0086167354889004,4.681469015437368
7.789735019054819,9.489981127620297,20.3132077936057,2.9089311886577307,7.07725650405679,2.3509833855582443
16.536402213832435,10.637250298241925,3.8655273443068134,5.553779760993777,7.655948266778831,11.238688970339926
29.937197629930452,36.06911636972453,12.349292889282454,13.639590655901664,2.883874972123485,31.43854083218071
21.94761583175074,43.15782602818176,5.048755348688861,17.473112481783872,3.3468847349328947,18.616375494749885
6.7846704141081515,21.46386943213812,4.31619177852292,9.3949085280532,4.449429487399067,7.918977848691952
10.717051613543996,2.8900081549217274,3.65904345900023,0.7295837433589872,1.2424814339780126,4.0733237747394595
7.58685229568837,29.615598543440793,10.902214115156754,17.36028511647159,1.128913217611753,3.928116387574894
13.697713906403052,24.889025228621936,10.031481776655824,13.411210394373375,2.779552534955737,3.0257604804053826
11.79452115468013,30.844594206594476,10.925207028915256,15.284199490604248,6.263270330024695,2.6900921823182347
9.776039157644073,15.140411930530966,10.054131361110418,6.574052442974149,6.10040619263807,4.40375056400679
2.978462739594427,9.063002795787375,6.040111257275242,3.353112226519064,2.7428408312355677,4.273153374412186
13.332323068769343,13.030852398627745,8.071311660044861,6.173751927705046,11.113001618376826,8.058555149036108
7.787175047716653,19.539354798590324,4.137906530417773,12.299084411942763,13.632151578777842,17.712195163147605
18.78394097645064,11.781901970339526,4.492359383109678,2.27910940621005,16.938140570921217,16.124833214794897
10.256870501986812,13.980233154300565,3.814814832570258,10.427814915966856,9.014721664615273,10.74700592572311
11.236943981070743,15.006597835545925,12.128114001668957,6.500329755877853,4.271711921606282,2.4558951020995017
1.2107727991983892,8.51641599263202,12.812402661277716,4.292740927061076,2.057016984376248,3.931047422575794
5.7301609918088445,25.013053750843085,8.960274621566262,12.45815562578371,7.91253221529157,3.528374696103967
8.055424344229822,25.711109098482286,13.68738713001717,20.815071803678155,8.591375186258984,0.7000014508348418
8.158696387973952,16.133412156431017,8.789654436952588,17.201635372552186,9.392711528928631,5.798156275395399
1.2644177974313529,6.209397786108404,5.492972448543398,4.487249119493888,3.6580199414018875,3.922326226280568
8.491386291025227,6.311938798226235,8.110492597209058,6.129022105779506,4.136655904534218,6.097882620156688
3.1768213255733353,10.37650902769241,8.381776779874118,8.89347744984384,8.64239474323584,11.67444905077879
11.619952389765867,3.226474915773021,9.626436848596294,5.788496603470711,11.170628738935308,12.818193763049829
11.954094890950486,8.682104013827534,6.995272813758475,4.1997088491920405,9.425762880215936,11.38374457997587
5.189970760641817,3.1082663938965895,2.835650349632458,1.4539359716988953,3.5942904654392076,3.865112699211852
6.538243593754495,6.239348492706473,2.123849878374819,7.160311887745904,6.936088577621825,6.611582372956694
0.4019692409916572,5.966281367054647,4.277488206196792,12.52713094520379,9.606365897729617,1.6745038933217518
13.287561696727277,13.650417233120978,11.430997560112763,17.371475248175674,11.909165600915301,3.3401793979291607
5.788415373824927,8.269270011378241,4.959289580731784,9.76273438590292,2.1798189799340157,3.7583164094136388
3.18916892531583,7.279715832642419,1.7923535461004412,5.7847356289358,1.0518683167585785,0.7133885981329947
4.879896222160575,3.5268030947269917,2.69333605330876,7.185992836174997,1.7633179806846868,5.236010960791486
9.328492089414253,1.2933276450326117,8.414981086881612,6.561521872121322,10.401870112692839,7.556493766215636
13.043291940092631,7.449218117231908,4.215715298573489,3.153892518770759,11.7163241924956,11.868184756712127
15.780307891101854,2.9445472717980206,6.9736713254592795,1.85156822292452,12.876678660376733,11.818179702045107
10.754892186368762,8.325839571779689,5.509683795642151,2.4574360575645025,7.733935683562086,6.327883761712114
10.375443774859463,6.574432853655806,3.763334914943392,3.0524332267648098,5.4270326211523985,6.188891804440665
11.780177095157823,7.441442023594352,5.592560377546972,3.0103092098701856,1.5820723637445702,3.602579990559854
8.416458142436925,8.985970475768857,8.006213792297286,9.397759744088187,7.520798816750966,1.6942982238542499
3.4819798799984802,6.49919355659759,10.369919687992516,5.3187147552030805,3.810122407267201,3.394343274890666
9.167163766967544,4.9422054458734825,6.456700112616334,4.422488178205259,6.844943313644965,1.9491491260808607
4.047632132420342,6.580195617828088,0.046256595762509234,2.9824938115098063,2.42637993567483,2.9578772760124803
8.039485396821389,6.624412619815823,2.639848749765547,2.2885638717843957,5.396678648842803,3.3601150103731126
8.095088172060445,6.070638736729817,6.0840347640363746,2.614549570331636,8.045985729927605,7.097818181603471
7.21919137462683,0.6190763304378477,3.6404063224689605,1.2463375867095745,8.057450309914339,8.894554070559035
1.8564986729726074,4.763179751311743,7.378884521856716,2.355668253275365,3.929166118986191,6.83011359223298
5.985239388886587,7.524522066180721,5.4407426468191025,2.2782369868266783,3.12447831426312,3.66982422170806
4.5770622331823025,8.87239286481871,6.771859170102823,1.4814168645373593,0.9029365965209157,3.174144142507469
5.845704850132438,9.337622614392156,6.079223003697961,3.244111005445074,2.201873742650946,1.1374498043118946
2.082355018163436,4.082291791207944,3.645590904475687,3.4179584044552347,1.6153503204707316,2.2843450724333
7.491143313033693,5.146127747140984,1.429686298556005,4.339307039602875,3.4234150160325134,2.987320492188822
6.480938064292816,6.637345636240442,2.8662772868047206,1.836195969957745,4.213769038475389,1.8585185049642872
5.527262527057416,6.83398440562871,3.407342757770914,1.8633591528484332,2.202807727860437,1.4163712162896296
5.858902125278464,0.5487091543660303,3.741333504810861,1.0014719515744968,4.599365562659636,2.6748708421533594
2.5113361505956635,3.2520179848397026,3.368316423614947,2.012577193431651,3.879994761424103,3.9905069007578535
5.242567117135022,0.7448244133258167,3.904310117277122,0.7425073249471557,3.1571374499406293,3.903036434337935
4.51843186255207,2.898378121046328,0.345422536345513,2.259755348852363,0.3316006707022659,1.6389099676180956
3.0794847566650723,2.2856991308722354,4.1637160220012515,1.2951788139715816,1.858828452291299,0.8773641686814363
2.5661183518674355,4.138565142893348,2.1031200890151003,2.024460928317291,1.1903050991645898,1.248905153344949
1.3179383084745029,0.46772926385809716,2.363020643929045,2.05243977620691,1.316679014648105,0.9883352481774722
3.964203308194855,4.744005167556428,2.4835881256351944,3.2653742499329454,0.9287523262454221,0.9615615785058703
3.9091375309952916,5.333903712942332,2.0412430000795814,0.673026681159201,2.5667577944400413,1.2287692810073865
1.7492644464535765,6.837719346568048,2.777792942450101,1.1137988123895124,2.0521237002120065,0.8932867643967591
4.358692191703482,2.8675150489774617,2.2986270753190996,1.6045225058095136,2.060902828688861,1.4764453968396802
4.642957698577401,1.4303125650147062,2.5473325372900475,2.2509856692331036,1.6590248346017737,0.46782314435763156
3.987776240130332,0.7200720129257921,4.031377269061283,0.934513777319521,2.694180394851096,1.8005732420537628
3.196206840733934,3.326666966190768,1.9602524998192412,1.0828597684178929,1.177740105699737,0.6009942454838385
1.5499324045504477,1.874060512954017,4.122238213069658,1.628712915091351,1.4438753944193934,0.5966703278208718
2.786029908442692,4.778264401145808,1.9655266733708887,2.1879418445502354,0.8417561527603928,0.7829659669584069
0.801569900576114,3.2174493761140623,1.672144872580601,1.7194896518346239,1.5017060946848517,0.4255564849167973
1.8866541805604244,4.074737370337003,2.021670148553955,2.3273667842204873,0.5134120770481821,0.8526560706734114
1.909799215641397,3.630850297067455,0.9257206129517703,0.8409439453171429,2.242740535524826,0.32021766513739075
2.5320183282463513,3.606056160785115,3.248227828703116,1.4053673785032,2.0694488145000385,0.7747694994885991
2.3305295864421858,1.6297266140210351,1.309502808711661,1.093154657264997,0.2782527666052065,1.3437497868979187
1.7622382318944818,0.7963579830685411,0.5295652354971553,0.3989352405537904,0.9382361735185258,0.7845698357278927
1.8766432343474206,2.09294804930002,0.9828683623873116,0.21695470598718145,2.3955315335226977,1.7573090133127454
2.869903848512341,2.2377351859671135,3.3608102172814167,1.6866935191500292,2.0448472344394197,0.7056403740640437
2.106983889257398,0.6082815843774133,3.2528046058618556,0.9723157565514314,1.440721725551311,1.027115216681774
0.8657992528705152,2.9300597557831685,0.9657810556390626,1.0346184130544362,0.137140166377347,0.5192935644672982
1.7871181250291037,1.7688008551787056,1.0082684819094887,0.8273204893634024,0.8150652832210539,0.7831592169955035
0.7931408771066863,3.3532602379164365,1.6334694413968966,1.2106857583657626,1.1936624447975217,0.8385192662497991
0.30016559130181025,1.9402329303916792,1.8882064833303367,1.4749245637528086,1.6202056110361662,0.5542947930280736
1.3559527911778528,3.8050314127522347,0.8031762859429425,1.649017718971223,1.9198497740362137,1.1184187762643079
2.895329751459771,1.1055407889882352,1.454850574558289,0.5780700238022644,0.20242873733013658,1.2085373475129186
0.59486117398305,1.0888507838114545,1.2154824997653901,0.6298912563986198,0.6023491396694246,0.6922342500428853
2.198182498255156,1.447764751191838,0.44986539407703646,0.6827712349521698,2.050480181144549,1.2918706720060762
1.1013298340415987,0.6956994198126186,1.6259588638567464,1.1740815249449588,2.17779596750036,0.6135065745971489
0.723357109156465,1.2306424068401982,0.5981661173440372,0.7465725422514421,0.67699832849655,1.138187495706757
1.3381751343318757,2.5025270645818702,0.25344061857185013,0.430596665972026,0.45578888413721913,0.3649373515041216
0.23114647022041873,0.9878843049938277,0.34446755865049644,0.2572133345438157,0.29022979910619906,0.6202894734657547
0.34237761298710917,2.7245984848083293,2.1091469985251723,1.548434527445027,0.8531955187364479,0.9927597969659494
0.4974738759634266,1.5059814193102137,1.686980696983832,1.7497309310875575,2.1765418324058063,1.0338825256038349
1.2898697326901758,1.6015946126641543,0.5675285426044462,0.7210275371357241,1.132608810361804,0.886554845942474
3.1615254791051752,1.630893156505993,1.8538911307860821,0.15654668091088578,0.4437672134691644,1.1242741508893421
1.9971545581409242,0.985879536824945,0.5443034119184895,0.42102145063234675,0.6537916552945773,0.9823066365456695
2.684243001294739,1.8645908741679977,0.8147946744281351,0.7653328044097966,0.8290652748431698,1.1043930459423037
1.3264672337092376,1.0793006112487094,0.6760691594475291,0.8303499327252969,0.6790411829513845,0.6365919279421126
1.2977530798183625,0.4176852459719495,0.7071684068827061,0.644331882756949,0.25265295621050143,0.7075210272808741
1.0344107052092966,2.1431635900097312,1.0933406739395461,0.19407455350147082,0.8021775137016532,0.5003337918315723
0.6863284222711556,1.64125244286128,0.9278028008391926,0.598578665636576,0.34739571213024145,0.18524108704629125
1.9562269887393253,1.2423572239440381,1.4746122899193235,1.0755105936036615,0.12329280482989356,0.96599548868604
1.0493800591230895,0.9711026808742849,1.3804794618770544,0.9583646987550116,1.603295669402867,1.416778737704475
