Gx,Gy,Gz,Ax,Ay,Az
2.876255000000001,1.8234820000000007,1.3281010000000018,2.321999999999999,497.35599999999994,13.203999999999999
2.2116023104406644,2.8734608845621694,1.252973575969662,0.7529920313407881,0.8018610563985933,3.4429593953932676
5.460782606448614,10.23290107927856,5.2682364164286515,1.4788878002523838,1.0070533397209853,4.036832450235818
4.379127676655218,2.7178640062072663,3.9998974638800275,0.7563719251761287,1.1009318084767228,3.747511342734041
7.509700308387474,20.623642017482695,6.127897723867111,2.07558523649098,2.778235228292115,5.093734992246961
25.67624490567431,47.81830427335469,44.47927918219037,3.361846806691931,2.320613849907676,5.97844423630453
15.203169418885262,36.59752354942593,25.738951493472577,2.285264592486181,5.228406136261393,4.134547019668488
11.631399921926038,10.925987334077705,3.917664127621617,4.344023989783747,3.4593774744783845,4.167357700242959
7.710240991809826,13.484161845024236,6.684664602311073,1.0996273792206221,8.417760128116896,4.606587932375511
9.438292793082288,2.0342176861710173,6.656094807700997,1.9084008482659693,12.549560438712463,7.928270390021088
5.397224638090973,13.709463430758802,6.372543173359178,5.7452884182838995,31.2850861919375,18.38656039070036
30.917809345872453,31.32580354514256,18.178080597910274,6.42093174649833,68.40601241185053,43.2980839297883
5.133085866446777,19.92065676082287,11.459497464758543,3.54558555668051,12.697265146841865,6.606316300592885
1.3732273887498772,14.350671420535333,7.083071464224436,2.839726726230176,6.599903993872848,5.40197951928273
1.8879405787136694,18.838818077520052,4.956456937561497,4.421479524870168,6.763317618276976,3.7412469676883924
1.4606935414009368,1.0621721481421975,8.68116286648217,1.7338376278509895,6.67247536804073,4.8390161305306805
22.792463326394046,93.5594157841443,102.18613639954751,44.51515424437152,7.0042525349140785,11.354241491927544
4.530731396514998,23.753183843101787,14.040704708130615,10.000269343710324,3.767401306128611,7.72455160308571
8.990069918666137,3.9142908123009543,11.569290188638618,3.339696534618592,6.471960619046058,5.745967366018747
3.050818343560097,10.801685102557542,4.7467596530307725,1.1264976709030412,4.0206108094447695,6.165777519098444
6.162139626514779,19.750093817017575,6.065774848506877,7.024680630606178,1.2035505172671577,9.427485603471862
24.693467912348698,19.65240498290868,8.790743872336591,5.380931023250922,9.825859252430696,32.43635520232
19.627252037739964,3.209970016514218,7.418900695870831,9.216684183119867,7.295561963002934,26.083096823920283
6.365542450113118,7.810210391606262,4.730090426089214,2.4680307404470065,3.5244145470072628,6.835023643998906
6.158729418716834,23.431974414926852,5.549985886664584,13.212132218361596,5.4881818660898976,2.0153656498755628
1.3964253924582917,10.414276848250005,4.078656591936823,2.4654494895840546,0.6222061465820924,3.415500584171075
3.0574666150139906,16.9409990783199,2.197941366815413,10.41174504885247,3.420951911263998,6.22872874210885
12.891991302843019,50.92823770668786,21.424944307087678,46.7935093514082,4.432542409170916,11.919960988669498
1.757917894156486,1.553821093377554,2.8586963184685206,0.05074347435069417,0.17468350073096264,1.580340817007599
5.495572031595646,7.8540608707591275,1.4127003408019432,3.9689413919854872,0.6440401717386849,4.8878698762689625
4.45608418257549,5.093133882417504,1.6159857957679349,5.238500374566884,3.7485690567202004,2.1474397173287345
7.715560732240873,21.363347401645093,1.6485327247434614,9.711730084978846,1.232051609675716,6.327678792300318
39.716639458689336,24.861030548231245,8.849723635680006,16.274532051864004,26.206773575856634,19.193752866180542
20.242711059499925,3.4167969605406183,8.91349738104346,5.8941242953111335,9.41069898670073,8.992136607136228
4.876504851442453,3.1859272346757046,2.6978262447541006,1.9164410656262778,1.9832074473737504,1.7888972103171243
2.9513602235182717,3.0756730173441515,3.9273657619995204,7.065750405902272,1.8477907952086623,2.6937380361709957
3.787629147320432,6.376818285465207,3.2388068430348644,7.800198893605037,1.7019020467578505,2.870939261741271
5.1581586776945665,2.7759860294450975,12.976312867374146,11.921642054881534,4.743442564917541,2.56516155976505
7.204211156153486,15.565123249438441,12.743221246199028,7.020134646813354,3.733249293195229,4.428744546334604
1.9869732357869332,3.2092769075572347,3.0738060260440934,1.1133376103497736,3.1481709825567172,1.6029296251607843
4.419991456965602,5.546016022314914,2.0296060624311085,3.113032229367089,4.2108628165385715,2.7003445654037357
3.948699459157902,4.0352069195193065,2.6056766196358887,2.1265757119344175,2.226104610999833,0.19461605711453553
9.556916632805981,13.006572455028634,3.7809921666635504,4.831121587083672,3.7247227746372014,4.769202094311047
23.595717514135668,17.25047979347351,5.6523220354505925,13.155130325083686,19.28332329748016,11.225558140122434
3.391012580333498,3.0890068669977726,4.271138494559825,0.2258082572071457,5.485094772102684,1.1743615812354988
2.863018290592097,4.698345472636342,6.187462539033592,1.8952299925835634,0.7160383677863105,1.0566445564972633
2.7378754930975426,4.660850712654657,4.842837990312394,3.238645882896307,2.0220049280510373,1.592733263609782
1.9059907231217896,5.801718915764646,3.8960970864688544,4.734212209573856,2.1221553160812325,2.797888443201157
10.314463588475306,9.591100180293076,20.593577826971437,5.959741621726135,6.617349898982159,3.199171177806188
4.456420811793427,7.701177740985874,4.673079352018961,4.422339977904235,5.577592235922361,2.2469053250897177
5.398769682343037,0.2664375661436331,4.828719201277719,2.1110211512195836,0.4265682159865897,1.2335042259784716
5.807340197540358,6.033963917180528,3.8621449768706095,5.20910058825925,9.222970475707244,2.642701499306775
5.9134240017375195,3.88905291851661,1.8823518851135292,2.8415738959182266,4.352830718496676,2.666407020594372
15.752094512094436,8.618704810046546,3.668826872647064,7.276934817498357,12.076988926925367,7.352538333475475
19.411438650568645,8.08557985281018,7.850620494908646,5.780292178114324,15.715305924699983,10.088841652141854
4.493755625211773,2.5004244895995527,1.8520068960185614,1.0181727184773983,4.534003845338792,2.234814893401811
4.712915376655305,6.848327534693281,7.118891080330153,2.5539547142037256,0.4941463516403544,3.6752485857371955
2.020513064242152,3.8076208637032813,2.2361947949412997,2.1268058880299794,0.49796387920689145,1.9648256683898546
3.120239540174984,7.130846340154807,1.7976100955402208,3.816012113527016,3.198765685383429,0.9089283644772
15.588991062459758,6.25300004381679,15.37954347248699,5.433585989415969,9.371291539098888,4.549347755633999
0.9134954924554228,3.38149112315343,1.4160996704478273,4.062790562300689,3.644585428879775,2.6327411815750827
1.4461063480066623,1.3657449391876892,2.714423407033075,0.3527656658227713,0.9215538198560859,0.6883655481982248
7.871149577425028,5.847762063834,4.747279859575763,2.212634010026927,5.243089477139881,2.2353939679678234
4.187414195008298,3.875495087233993,0.7169471452363453,2.182894938242745,4.094593725469574,2.0444712484699075
18.863714326256158,4.48242800296152,1.9024030650413437,4.756886634887389,21.752072270713118,10.31609509503817
11.067990117641987,3.14504396163503,6.85606929815573,0.4915126749635346,14.466568670677328,7.4908476170601315
3.134133828366396,1.6192530712631736,1.1686100333877965,0.5945521914674972,3.6463732142916774,1.6580908414005935
7.3290994010748065,1.7281715969180287,4.820562243278039,2.937349154207087,3.454899628593457,2.3749883717026417
3.049411111212986,1.430065621446733,3.938537126120815,1.4259124033688948,4.853908577712431,2.200949075623131
8.09120394194882,2.2287368620394523,5.2788290638423785,2.2915116586848154,5.75551699055522,1.7930536957987884
6.072625549563221,4.476726983959241,7.439962141341062,4.699522767733787,7.163590099866534,5.3459422691588525
3.1640038124568557,2.479590783530275,0.8501830390427642,1.1264158568272182,0.15645011327240227,1.7615475225012671
5.126150795644446,1.8440494161184378,2.309687974620152,1.4047010546609442,4.500674946906813,1.4114105068214415
3.7544577664431396,2.2755621058721247,2.336951479030503,0.7600336162456363,0.44569859992839833,1.6740787415267193
0.5751791884668822,2.657497318721233,0.837042992800095,1.7729381423835984,0.7336088830546696,0.737033551918204
15.505757015824706,2.923399147814021,5.0511620951054,2.2634080470266205,17.91625341748562,7.8633755278322015
3.9904514987892825,3.116661205943751,4.572997531685336,1.0287885876112082,5.751589164523865,4.193176429335847
2.1522097475246764,3.1191321523597577,0.3339239918114256,0.78868764418591,2.841694723889777,0.9063448386964228
2.974610152443495,1.71352628073963,0.2863467267108884,1.6094923179690694,2.3760203529566133,1.6350811348008278
2.9602068349059167,2.6967235073428393,2.1326507234648857,0.37469891445988623,5.066076632198881,1.4194190622539715
5.78204095167884,0.7352779960515688,3.042797216587395,4.343941129197822,5.245924651807647,2.0125358355339733
0.6036384347062193,1.6469130547905553,4.172031553180239,3.7049083033439025,1.7981309522121292,3.3011459910604266
1.3425726103140692,2.7217235714606303,0.528938222566438,1.5768471399853279,1.9897302328622382,0.5691354441317334
5.615339284295974,3.2572673310701177,1.0492358587195483,0.6397717624151197,5.034748755981889,1.3020443123980796
0.517608294442021,1.3757686346670641,1.3618031415921923,2.485119399609657,3.7899881593670175,0.9939255814159613
1.8548765047353766,0.6598629474163783,1.0904007328852745,1.0429744867702797,3.960050833177398,1.5175628158000583
7.4550232484283985,2.2430509945930672,3.5675669320472285,0.572453707803204,6.830792772455945,3.8470374347213605
1.64578061997587,1.6505071000425173,1.3745494510605123,0.962672663797773,0.9477340591019071,0.9262370475206598
1.499889175624874,1.07326192674907,1.3122806018854447,2.0142597157835525,1.6117219780658487,0.8203242587062178
2.033927833357648,0.2901037957543692,0.325581640805604,0.39827417359308664,0.811112795980192,1.5082797592977757
1.8536417605914761,1.325729388178968,1.524722206336711,0.550573128153014,1.7123970755510238,0.9591426526561275
2.278639233251353,1.6828693619336583,3.616398211525884,3.125780233009828,2.1088938517998934,2.1671736451491417
0.38034225125273263,2.012420726649322,2.5272929088927745,1.5411230358698338,0.23954207975422817,1.1484996055275105
0.5302878198438498,0.6817706651712716,1.8008610348819036,1.576070587025233,0.22684747088609816,0.998939840921731
2.986375275435148,1.3428677369228001,1.8173069973055735,0.8100515877639464,2.867052610693262,1.9095514113410856
2.143157326577861,0.7295319806397422,1.0184502229931933,2.064906684977204,1.8597433272084651,0.7142379929297812
3.5183338330542457,1.6494572552852154,0.9808859747494374,1.5430610128493358,2.7640856264050813,1.365066459342764
6.057641154452705,2.0811599187611862,2.113830610243952,0.5980538782006317,1.1531074840371036,1.999159549830638
0.5127728161037398,1.3944930837888279,1.137582827449142,1.1637064633568472,2.3307261504390415,0.6643688850560001
2.4560399629936676,0.9491111797011894,0.9354787514875489,1.684432537870687,0.7324673496735813,0.27828951610904784
2.3432621392111512,1.094525020204566,0.4861255159311106,0.6067167894373257,2.4625729857333067,1.294910516946341
2.6397013453959244,1.4347066224238911,1.1299525133931683,1.0518239238325586,0.40911731483972646,0.5520209002957954
4.774586451041929,2.766925804367184,2.53027097189879,1.939018020766045,2.412167758196305,0.8885178627221821
1.0718774248457388,1.3297169325398754,0.9553601582996369,0.08027229561316422,0.37257966368047907,0.21539592999896393
0.9271492811455125,2.1607561739654226,1.25464491830176,0.30684484419666835,1.7418486551587808,1.287887166384599
1.9252630078698876,0.2240620142271103,1.70922056384731,0.2993360573619182,0.7559675533008363,1.4818654228824566
1.1090681903363453,0.8536210965005635,0.3198600864630621,0.36464206658164106,0.03726008596754077,0.17742383072019802
3.591506837964546,0.8356439369541808,0.5484106172650822,0.8042547461813577,1.437714890246352,1.282068468416058
2.406891868196834,1.1930422732544281,0.19375178781813382,0.8912600430304475,1.5788778488586954,0.4082007800168699
0.31692663561925927,0.6581691297030877,0.6041197135373346,0.3671904303727934,0.925987269870192,0.2858626909025584
2.4906625594161294,1.9947842949594319,0.7701663370487787,1.0112545556899606,1.0537654811503334,0.6425713510313268
2.242136775726615,0.6235831561020733,0.9811118083337077,0.5391478585434645,0.45899140505790065,0.9970317042424919
4.383779320276634,1.7019884828587164,1.059645402022625,0.5372279983914067,1.2902901074533681,0.8625767430791569
2.5338785562437827,0.17138847998605206,2.0330951778222084,1.4930676094799817,1.8887096729086938,0.9132462226352602
1.6484326065085608,0.8875536524768283,0.46865603128500816,0.31764248944705475,1.0489187114868403,0.24096877345231932
1.8081337185912443,0.8121894669420606,0.6985626548349733,1.062666174039263,1.2294631995966585,1.1022934343107225
0.5736135917881958,0.4743184734255489,0.2615828169651079,0.45730231754781175,0.20135010226409678,0.8661288397699866
1.8630170117097251,1.5995363679865122,0.6627589978134544,0.4231291474073944,0.19511264207089132,0.8168914308128342
2.750021741837263,1.5266152723575268,1.0047650499457903,0.17085341884725938,1.6902522274490925,0.8730929393147896
0.9546093757273292,0.5637510828018047,1.0340407533222993,0.3843649050964091,1.6751724250897537,0.8126324146727776
