Gx,Gy,Gz,Ax,Ay,Az
14.724675,4.372696999999999,4.894258999999998,10.956000000000001,462.15199999999993,67.53
3.4380209621415627,12.621255249268266,4.439843339270945,0.7808135323415742,1.5003949990827674,5.9684671297102
5.453560440389255,14.171786061289952,6.02092503680746,0.3377261897111198,1.8117457819486762,4.747799026345887
7.098275705913607,0.4843470495507098,17.988380050635755,2.3963351446133667,2.3435110980264913,3.25897277558303
11.373949476688,50.135165464561936,84.26982254512501,9.747399673275758,2.986303177224015,7.6468322648234075
5.595738555898509,30.344019564124846,29.09476758329731,2.349132347828768,4.626706031353166,6.258850306880115
9.579836791447205,8.941872240269676,11.115028249939058,2.4767286283669985,5.365226529346702,6.942003958142239
19.389942005384103,20.017067209195638,6.986987372898994,1.3601282660575507,12.017924415896255,10.60060808040317
19.120869297586072,12.104829944291716,10.10290170153994,3.145071576727014,32.83718126843736,24.727778114065668
35.827058085865964,22.048681342060817,24.041928691895276,4.43907023996044,52.157223269558614,42.0220530640351
5.938877065982756,17.421319463894783,6.781414674092288,3.1354156201969943,12.546587935224398,8.418154772258767
7.691212227439126,6.907743537892437,6.246650688343595,2.5026157011032235,10.899024348009096,5.79890752743942
8.14176789449911,6.248549677362858,13.096970141582297,1.9332581566526792,5.966301862380353,4.980166085213787
15.55674493682189,59.48616464273727,105.62535293109572,28.84379153088617,1.913108924918376,2.2487972735242687
5.509393155344854,2.7348240487286435,10.396309282759276,3.0543583441471758,5.964270688160644,3.748999596243133
9.910908772258649,3.277597258538556,4.875276509271003,3.6208023655541623,5.82665140289076,3.4994029135011844
6.09130253023998,11.4525117146342,7.090302254983764,0.7990394463387043,0.7156424269766697,7.552570728884471
19.776746832590852,5.790787016969799,9.808568255556743,2.125973153346862,9.875513882999023,29.917498971484672
5.542110309850188,17.20889926519551,11.593026108851527,8.959219497398069,3.8858225652671807,10.437446563143574
1.3992922768278802,0.20089994673946343,3.9620466263014995,3.394165866168123,2.2649719206219756,3.8280513669026326
2.8548093776109362,8.907390623740625,9.513848415190004,9.67464387940615,3.083191769200708,3.2758626091860017
11.074355623367502,27.111462411783684,18.776846552400652,24.590061241626035,3.048627297361386,2.957739077033411
8.816026225711928,22.44838645358349,24.540327512997962,26.898323075240537,2.120218059467967,2.646976820915716
7.275168889251983,15.178379576161776,8.078988408758837,9.570530462166593,3.4237996921331804,1.8809425489443108
3.143204330000765,10.866862980005994,6.318973016691451,5.063181414247292,6.415206845140944,4.244674681054748
3.6259757516083004,3.7718281134929654,3.3277457183286154,2.470954179526529,2.3214004162282342,2.7694266134967154
12.837741990776728,17.266144429799223,4.319527338782393,17.505541104103976,17.91415284058654,21.87025134454651
3.7079083796390178,6.287502558774544,7.421967250830734,7.082475436300932,4.089445286276057,3.3683323662046885
4.06642990149649,6.798705078683857,5.29653501127586,7.470855240519334,1.0876976577908546,1.2688120239866354
4.148682038039834,0.8077155745799814,9.34620077975903,4.765483437526815,0.8139880626185078,0.9491930745359246
15.124708570215374,12.176319728502687,15.716155297273987,8.958141491673018,12.204929449316253,1.2848498147576621
9.200128726265522,6.281567668579814,5.970114174663161,5.21181781760165,8.260691337718852,0.9431432011507738
7.9178129722500525,5.147212789334897,2.8338931593426793,4.169662198629466,5.075390280244875,2.229993443578183
3.573856173905858,4.4247042988162635,6.472664062003765,3.876982692990867,8.178421929828042,1.8392313877781095
5.284774387244965,4.822886786412749,1.0002773159153533,6.232223277778004,20.05908948869425,5.975542388053333
6.84283550963453,2.9431043890441146,8.253959562693199,6.549680850751358,22.089543064592284,9.584890472101087
4.882605698037047,2.8729367326401656,1.9937485536644806,2.271406101576147,4.6018477947199345,2.447638897353667
1.8646489623009221,7.928051693826785,3.9071197483308495,8.036826306364624,1.0322244583324554,1.2242380679050304
7.36944861371985,6.60911723881875,4.681165743388489,3.053279558105248,8.48698111698286,3.6868656123868053
10.871040559327877,18.80888669151346,7.3717426638000845,15.070453974910023,14.586542698070302,2.0388715883263964
2.870076088735171,0.6845522674495169,7.411381266573512,0.4969489310424529,2.7870685548199488,2.6778786545322064
8.312609042709536,0.07754245613111613,3.923252476334134,1.9240519681644521,1.993339945663294,1.9150612012314674
2.8874821500480907,0.8542091864657698,2.0942817604449404,0.9158383084682878,2.4376043412438317,2.0676424738933536
8.697405980390696,8.601139245012627,2.8777371307306523,5.918024572699118,23.31255918272725,10.46036433216914
0.7824891236802523,1.1004510323634842,9.074686676011641,2.0633300224138944,5.719228354140258,3.903274358282394
4.468762529341305,2.6506672380466325,6.277348658541996,2.9393388745492603,2.06357823324257,2.4430896459559888
3.9761152784820104,1.131696460557038,6.529240226429332,4.538152017626771,1.8211258265772972,2.137543769200559
11.570098903953724,5.3020903536488495,17.84217866216631,7.0373972227108865,7.902570815928611,2.4580706470047224
3.9795748824148163,4.505206939346541,7.25288358901415,5.1930980707953776,6.686715719672159,0.6673972532377916
6.353290812563099,0.9117840161484674,2.8746269629990926,3.2406913896640903,1.826701347170768,2.0667678338627153
3.6136264837725705,0.5805153275752543,3.0590108481178833,0.745849577630176,0.9987531750703924,2.1514544897147285
7.434660441294571,5.012772095326711,2.5910743123452535,1.415879623619472,1.8525564503239615,2.2387484363313375
15.900981826726058,7.320900647300299,0.8958153110156396,3.713566553690967,10.536527246888832,9.749224103820021
3.1328137154772855,0.7135745403600415,4.0385829249602665,2.5031153397659636,1.693248372519643,2.3041682248869346
3.261221302506075,0.5980508178937889,4.377858235431203,2.282031571572322,3.0803107176469706,0.6453347659607263
1.6719226955041264,2.3648943171759544,2.8411185600903885,1.2658758554322234,1.007006899872854,2.172055330689963
11.344885133571324,8.514683969563661,15.813990697142268,8.34511064036767,5.373447030626665,0.32625192089861815
1.9970129688281328,1.7891410406828088,1.7485873027006995,1.3409479633134231,2.9399271894026566,1.7000730956912957
9.72525611992298,1.5753641486511016,1.8140220829930414,1.9196617895587653,1.4682743884394471,1.051012960177766
6.260997008225798,1.256483851755036,1.7452947153988299,1.425628800355096,1.6744572576149064,2.6224615214884053
19.903455034539515,7.331141662410601,1.9887095571122264,1.6176656642807763,1.4973442213083603,5.878143408922154
8.159677275514666,3.3589429414317618,3.5862982114642143,2.261273824794917,0.35753507258223094,4.812682675424478
5.2536081080815205,1.6585195470577931,4.039735370261806,0.9738890752276312,1.0450968470138164,3.0675159425686256
1.9163332499390002,3.534779917713249,2.125913188542816,1.3016126196212492,1.409241888563496,1.7194956179011134
5.46069177361548,1.6521006828617437,3.2132404476094316,0.3434061627679737,1.664365828564685,1.8058591546410128
4.115081373452984,5.524928202144236,7.041082775398553,2.3194149277193463,3.747632204699513,1.3450928006446947
7.392189186579596,2.7064198364219783,1.9547316728764776,1.4571997213392864,1.1216557477023983,2.9026242018287087
6.634149296562298,1.884146094215287,2.9875790360144685,1.0836609397579056,1.8662919399657398,1.171734959156475
2.123051323195462,1.9919562902320878,0.7586056001650967,1.509014136563975,1.0861474797990394,2.395769881223698
19.651482109587036,7.504716053928931,2.8481778810429206,1.036701313606473,1.9543573065616695,5.196142946290574
5.70606728218223,1.6248197530059139,3.079602544407133,1.3639540719209131,0.7347503277508007,2.776921323139395
4.9519183823109545,1.002293856355968,3.212111581740437,1.1747403296421652,0.812421914690961,0.7568126969922636
1.3443836756333503,1.9378624606376469,1.502094241789528,0.49320457557270486,0.9707957110166164,1.2247269237395788
4.2544383993025665,2.1655943158290785,4.800560434633361,0.8563307865002412,1.9841014356653022,1.3721278072443335
5.14027511223324,1.4850691390521749,1.6667841194589956,1.2080557991852652,2.104895854162742,2.2195418892391374
7.046005110753012,1.9539683008590547,1.502863617792528,0.06901800311987426,0.380839828282245,0.6672011916492572
0.21916708559618273,1.3138000225999702,1.2990414289522652,0.5288814352363006,2.526270719370371,0.7198326610417695
9.362812923328665,3.679113452742756,1.1021837917245643,0.3201792956451594,1.441726241492219,1.2708038065336564
8.445563013378553,2.808314186846952,2.2932550587192915,0.6186224524983631,2.0352386612497,2.8917870005732857
5.035957723070285,1.7811370137149045,1.7644423991300862,0.7297810011936472,0.8414066408405803,2.5817109459691685
6.247061462280532,0.31099300983589,1.5649961939007722,0.10771434348505042,0.9931288194955901,1.923379030189848
1.7743571010439563,0.8993493840341692,0.5788177277864611,0.39803546627994846,0.4306969323386803,1.922310812467354
4.344627447692257,0.6282670663081465,3.706828130398393,0.9154501988910284,3.190307253225683,0.7622107144145805
2.5093243895942554,2.648766886679322,0.5965389856424396,1.0961925034046194,0.059731079137682566,1.5174361597931125
5.143201146628797,0.4111426326914452,0.908866255635819,0.7344885184090321,0.6498227636682398,0.9706694072385191
1.5794045284939464,1.0216301016187141,0.7602996603365161,0.45604091093933197,0.7510645540431625,1.88952408531453
6.6418209256427705,1.1381327006716393,1.8747062160077113,0.7911986216491861,1.129323310017039,0.7093354671131171
3.115681412488534,0.7995169749561021,1.680169161593391,0.984061413642725,1.6272418227863685,1.8920361101436174
2.760280263156816,0.5921518398633967,1.5182492210094873,0.11545672564223221,1.183398492795114,0.7442617422173856
3.4691816025053273,0.9931183855967802,0.914755502137453,0.7737831321253196,1.554091706380001,1.4577962256221113
5.820050626736695,1.2120713112048394,2.3910097635937406,0.4871847155549728,2.3803929454140724,1.8096319483916028
3.6198236877494123,0.22737061428499775,1.1555711023328843,0.7363492052280103,2.1287544393955966,0.17573144925067383
3.3496359725166434,0.6444354345492392,0.7399997579026959,0.30392999195619147,0.4880066319809467,0.4901126256947094
2.2573414320746337,0.3620945186165553,0.25009633285420024,1.0905786088982858,0.5932252413408966,0.6739331506664914
3.4634926829287456,1.2195455985752064,0.6641444269637111,0.09692878403947798,0.652971707065137,0.7208817531541575
3.334747776865747,0.61636032569763,1.1550700028437306,0.7283175375265912,0.7171235906354783,1.3547153450033593
1.9441790254294735,0.8297546914509277,1.045203635840388,0.9211448437577295,0.6876632423446192,1.0360077295167747
4.962132791940612,0.95060416649557,0.5969287349620881,0.6359464391438446,1.5762965937582103,1.116531639211327
0.2746353434990789,0.5506309173962811,0.1511697339329817,0.7719680971893507,0.597086063949325,1.312167765544067
