Gx,Gy,Gz,Ax,Ay,Az
11.612603,3.857875000000001,5.497784,30.985999999999997,508.77,12.613999999999997
5.482695237575391,17.002928577571108,1.4891113299331185,0.9442371821881721,1.3159468070691784,3.6210988267824766
5.932138880971829,7.411349953379203,8.734588396905263,4.693666769667596,1.486569733165442,1.8337632514842395
5.240922707196446,21.30429933825486,9.934662284501112,2.8308748875402276,2.2410408519253786,0.6760364047776448
8.363416376727596,25.593319362080805,7.948362998805217,3.8795694702402557,1.4150099120281885,0.18755191723446854
19.44838686060896,120.30261098167072,38.77021259510826,18.61708391265051,1.5730554065728928,3.7066882902124934
0.5349053310832327,11.164839025351032,3.030341279426067,1.1990489375833875,3.1446622063876433,1.5263494902564707
4.991874092887981,11.442050422970732,12.361203358704385,2.971041171683056,5.129609509941483,2.2716540543630206
5.932606773915896,0.3325384732316778,6.219829064287978,2.052572557621445,6.379753872390034,2.8235690288313138
18.10014770496112,16.410676332622014,10.601007791023257,4.6801272500405835,13.971792402636076,11.805187286615507
37.075603751546794,8.316412124554585,3.820737854198282,6.660144052660896,85.7898621649286,51.42427483583107
5.690760986404453,15.41588998144821,5.895057213001542,2.9764813426621157,22.859610645486754,10.905559332005977
1.6664665814607675,8.404098567192746,6.11992718402279,2.775076824953198,4.20628456621905,4.814246189469232
3.698464022838554,22.835776687731148,10.7539775082379,6.517956140826755,5.273466945033158,1.1335632294079294
6.849707591119471,26.890196138294858,28.251166127695413,11.431942434844368,2.5460332901862697,1.4720585693153738
5.025606853262772,44.388217399888525,68.77372829569781,23.6965122827526,11.136667314722455,5.155526778861154
6.49856814004846,18.626356097489005,24.096063195619507,9.53996963817714,1.9101418379917217,0.631332034915153
3.0979650480698253,8.488549115269194,7.525749359518979,4.157919782130884,1.4692725980320953,0.5989570532823836
1.843836874732594,6.947116931277173,2.3636150907961326,2.35365880856443,7.632069924047984,4.898819135475977
4.896239373553018,6.674836266713332,1.489246367173418,4.483858193187,7.581136041062962,15.649779685568019
9.159251206426767,6.507356255119695,5.43445351732297,5.162362601703214,20.295962273070607,33.15009625883859
6.358969804918912,6.737590976703794,1.604757628254538,3.7809441073812255,1.4026792490675353,15.091785058438225
3.34781071094704,5.350818216765079,3.787308631563392,3.9474492632913933,6.067289579879644,6.056750274558018
1.2365175999977223,4.144811833642571,2.6698133189032514,4.202005390193076,8.578634721104267,1.4235517168095524
6.448023387948988,6.629111530760792,9.870710379751337,8.69549659530112,2.639862951069403,1.9519718836051758
8.027463836943912,2.4667517473025873,18.34196957587096,8.678874783997001,3.106179613664933,2.7898365721440026
2.9283393962789925,4.0601661893084895,9.713709781254712,6.052140414498717,2.6533872760282393,1.8676364161268444
4.793067885527178,0.9273608225187386,4.701394484727869,4.000169210092267,2.067050201209838,1.493210835843178
3.16164168469568,7.443634357839947,2.8917462792556092,9.161980448618053,2.357083853026439,3.0029293707568883
8.818788377607165,1.6033448137154933,0.9808297212603322,0.8540554322167383,3.355562701745664,9.888717873072329
6.510281875052416,3.5169002022409965,2.8588213363643167,3.1324800100219052,2.4314551297977687,13.114305542852305
7.901827334515627,2.776786298797847,2.0213996051540506,2.7348966692051677,5.076489864593515,7.927573029608762
3.7690775469042475,4.608169307406573,2.6642379879577653,2.6829317188164135,2.125833922618718,4.27939466045552
4.024478665504472,7.366181614431,6.618641420144989,2.9610641582791417,4.052935202556641,1.6509478456171565
4.8342155188622895,6.049204674872973,7.449587203648056,5.430083451093827,3.063425545046616,4.31656609920384
3.2715866589914,4.112802489586771,12.885044682821777,2.3788453550116175,1.3783545700983033,1.2292234244660123
2.207769572520898,2.301875954923196,6.9841921892373175,2.9233172279975856,3.2379697116622426,1.1855394066489446
4.371418493132437,2.577906745280543,6.311581841463882,3.1375610775020517,0.6325874010321261,2.089926038369751
4.141455115230707,2.8884190369218343,3.467017142193436,4.287498662659547,1.8399635228759357,5.2810231055787975
8.782567041154863,3.670784063219104,3.123490608890428,1.801334268467164,7.000992433638812,7.646042539628231
6.1346090009563685,4.591660146753085,1.3593055516319017,5.351302237069621,0.9431242211866488,6.560121021613033
4.717306331054091,4.175573996300874,3.4144027776688137,2.111392571339245,5.854163894436469,5.904388399363225
5.885090273783138,2.9216700750493327,2.147348116784913,3.4942638086760485,6.303593339366612,6.29931491410336
4.595053231495787,3.854719742285652,4.473854653037203,4.185053210679079,1.7369648587302307,5.558021403342432
0.16077195167896619,4.627246752537802,2.7860547263314124,5.814469475938733,2.9485017080030045,1.332356059230541
2.059419751922071,2.6262756769190747,5.181782787144108,3.410269315959737,2.6648875827064464,0.5143981066838217
0.7713950473739963,1.827254201565605,4.628323653074222,1.6022710162265368,2.7609182676818036,0.7121284212638508
4.886121819885745,2.5446632651253758,5.064653590530385,1.5266590180455082,2.6321834564149293,1.012464297716574
7.647499585876839,2.005029282268847,1.967173545897022,4.908445940070891,4.50489142128842,4.273203331748593
9.758339011272255,5.821272701917152,2.1543582960064156,5.516240662410334,9.491187503012835,5.757532526263189
4.74225848752621,3.180628216387648,0.6737068697827332,4.2665179004798715,4.687340581852431,3.839082082807969
5.572300285276162,6.371387136295612,2.6835199331513544,1.7116416646532244,10.248382023225716,5.477737902373939
5.556099740733169,3.916859825646441,3.7269257527919457,2.8995327166039924,11.283116209479125,4.429418907008103
7.120204843914722,2.3861172988968646,3.8508463025063615,4.647484950287195,2.57476168774581,6.060057596875169
2.434163582913066,1.9988700546316216,4.02430271441881,3.6582399733866695,5.285516334531476,0.5646932161803604
2.6737251373374784,2.7706241290101596,2.917954764048616,3.341320316638177,1.0496552869731763,0.8198674050314991
2.787766293121773,1.1688432752179483,4.052579987449475,1.9439287814373596,5.317041497898688,2.3746889611510666
5.847133224377559,1.5392571328836906,4.972189979072118,3.8103149175875526,3.7924356750428823,1.6472634541958877
6.404999600137172,2.2193977841826333,3.1570874822998682,4.75512070751983,4.833272496655025,4.445374548157767
6.927245743609586,2.46589284081666,1.2011834014798872,2.3130466697208196,6.561195047912725,2.6698549059284207
4.338018103987651,1.64584602817154,1.614552835865589,3.802640495245978,2.015237730634906,3.086535246123823
4.00961449089566,2.910234205985854,1.710253296938127,2.297222138748531,6.909984102183579,2.191740155332654
4.233624735438819,3.5623170652488483,1.73782052287983,2.844799415865475,9.384666852196343,3.186845976610083
5.964562528276392,3.112471829266885,2.366193690078594,2.371417749075899,5.253877317660245,4.249159833684035
2.0724946433031555,1.5575100990170947,1.279731455786497,3.970850771332808,3.7076881482365156,2.0206986747618254
0.3656548631863915,0.5921745815829472,1.61163012366124,0.5688415775414236,2.6347393036372884,1.3337788610705463
2.102496613399175,1.5984703718666906,1.761712778771206,1.2368255131923014,3.6292150660874136,1.933420409072797
4.13278303737163,0.6420254503495545,2.6965623359476862,2.324497101351279,4.0117996161736755,1.2250642982462023
6.682464661918872,2.2177947559601567,3.308723989914784,5.028160607548122,3.3210055114945543,2.021375663785926
4.865104017017627,3.3566777415761697,0.36776231323448944,1.6600630431995698,5.173737909175629,1.735793519364156
3.332871288486455,1.926202029308898,0.7245049146370152,1.70209637832815,0.9349754034595442,2.2432596428851075
1.8181718189197418,2.497828442324958,0.41688759787858615,1.7273993983020601,4.302203891886293,1.7687263719161022
3.2652786284924455,2.3088275879759443,1.7215092937869858,2.945288113702946,5.205472547492431,1.8643292075731523
6.3497078260317865,2.218891705772607,2.266216286627631,1.4992169218205023,5.03256879562065,4.429714500019707
1.7268827598795593,0.8550403593419637,2.525188615349634,2.275723606869983,0.5570546787872465,2.3018201535752922
2.6279756935375302,0.19133026151777244,0.9643018639079636,1.9182966324403619,2.532020144507949,1.1849458622053586
0.7448793235740304,0.7990943818230312,0.816139825847546,0.20225267309040965,3.086465822502663,2.203566851223429
1.9990470176443078,1.5002509081536608,1.0441744264989605,0.7251293641452806,1.7464618846025042,0.9002419803380208
4.33746778301116,2.2274580785413147,2.568045624487684,2.2823236328056278,1.5778880651334102,0.2154118580972118
5.33146392947553,2.021687194336892,0.8709660471851811,0.9630164666911576,3.3824732199423564,2.2905935034206233
2.0462979181559784,1.93481643822542,1.189560813277553,1.8388297001779301,1.2904975204258142,1.1862945606447552
1.7450363677825798,1.8256880979108654,0.7182503350391957,1.5867823433042252,1.9543752013482094,0.673534866247125
2.3680140028513703,1.2196019211406728,2.049182382945325,2.2251134503726075,1.7068427904241272,1.2088403124348348
4.865735504111778,1.6293334657626097,1.6214895418884938,0.414194575265602,3.675705683702686,2.5774504207222
0.6961261453511253,0.830753483812152,2.6843953481971794,1.7949916965581458,1.9674879938192464,0.6134180006630456
2.133059619373028,0.45878786798619164,1.0698551533025422,1.953315441264963,1.0097781602642257,0.836563270244894
0.9418312359078712,0.08735694056072925,0.42479710972782797,0.7892563833088889,2.075592756241017,1.7062615352467458
1.3998785072190703,1.7622667071479274,1.6433730689793635,0.08062790836467129,1.886301578578312,1.402558414876115
1.579012301773832,0.6978552900791648,1.2053955549012192,0.9629655761085223,1.4166643141501691,1.4699276474408847
2.8829443919904927,1.1595884788348352,0.7320924493877349,0.7481576098693216,0.2260155236921742,0.8304655926498201
1.2109100788267706,1.3775916257463476,0.18689519752407896,0.8999582550343639,2.27555633476498,1.6998029490452133
1.1997631409759784,1.1582445830092432,1.0900640572429101,0.6502638712905727,1.2227932588484967,0.49925797906690067
2.122920435248662,2.208012069461204,1.2618493034238762,1.2817733076794329,1.8640911360481005,0.9005189029577639
2.6886027258934195,1.3526491909090965,0.3044196914633334,1.2766429125081549,1.6325631032787151,0.47836927996321427
1.4637488278777395,1.1433335014968355,1.2690570821166662,1.1893708369508689,1.73929275175164,0.289061588368192
0.7871980419698498,1.7734012073005139,0.7560550029811641,1.0381218406798036,0.10730417748986959,0.7114003107391602
0.5045435712031823,0.455386010174693,0.4570699348156775,0.3446415119964623,1.1628723225255932,0.9773596901285675
1.8173066870063883,1.0218438268511822,1.5761102852276643,0.6056153616093164,1.8176374821583428,0.8659803219030235
0.5385407368129714,1.3476278830626274,0.8885440560756339,0.9591639706302509,1.4374605975551085,1.0355339973703805
