Gx,Gy,Gz,Ax,Ay,Az
9.599833,4.553889999999999,6.049852000000003,11.268000000000002,495.532,48.162000000000006
2.238087980980346,4.739843844649616,1.2221294922478312,3.426905180950688,1.4733531918602214,3.540092292610158
10.613050580506696,4.702529113616017,2.3958423596713403,3.662188081148566,0.7759567676338762,3.5655511681409626
7.043223827268091,14.303598677334898,9.491029385089732,5.977277575502729,2.011043229870432,1.4027817858945892
6.583188588408218,29.367806140933382,28.532518077071376,15.485256423205392,2.2066681460486164,1.2021603036148276
9.902808810027263,45.75877565663795,32.64306568085127,13.980382045723573,3.5824332576148157,3.1962970444893286
2.8652823689908304,12.339769767405185,9.233616122563227,3.7855030023384963,3.447202661245304,1.8553002562756722
7.884298285314939,24.738131496365874,13.444513671142051,4.972768511802989,4.504167767910605,0.47478776061921696
2.3313784583921713,7.663502775024915,5.2273492517695805,1.525414695329741,4.047802104291908,2.744835617706271
24.78655945864616,12.364352071169202,8.29701480036329,2.1729945793634915,57.61288808178433,39.90155942122777
5.761814960882403,15.381650164650402,8.754888049291464,3.2357664372491253,5.565166699219788,3.6678421969631136
2.035331284677654,15.51314106211497,15.161697100470658,3.1101421996549536,4.404484434540187,1.5906381494221626
6.600977684287174,18.601661591952627,17.99124758492908,4.779593867023982,4.217893404232793,0.45524993105133915
3.9190559774825933,40.009270519000815,53.866991584060656,6.865757199041414,6.737007917487391,0.4492947177955615
2.427374168180939,30.16648355929852,54.65057181371719,4.02763284495149,1.8516234931221098,1.8313510082200957
2.116133837968321,3.57661355113274,10.258295182310631,1.9801833600513041,6.424052475581729,2.524929104643133
3.0391230872282944,6.834136492154273,13.032169900487903,2.6953504940150306,2.865108972181913,1.5333340793449834
2.8517293986001375,5.010342169693795,8.585319424564176,3.337954764263684,3.8781179595497037,1.992765336432033
19.848015708436055,16.135415892742085,19.980281974146823,5.433331970431143,12.774290707108397,28.439197603601517
6.233365271084039,7.873167519287327,2.279221473709102,3.185024597888256,1.5119961597559766,2.5487780377749516
0.8600138091668438,4.466569638907972,10.54713332075837,2.652822910211395,4.215056137991472,3.0835534108912026
4.352126235130284,6.487146984979229,10.345452828459885,1.6284096260434446,1.943827509226744,4.667024543179759
1.9029253093217937,15.115393410455347,32.460243478591224,11.308944324174378,5.226224409968128,1.711761695702953
7.45249132758033,17.167105524287965,24.689350684324886,4.6971776185706995,3.677025489826627,2.926787041727708
1.916981557408838,2.019996595549533,4.08120254414375,3.5374122818099885,1.071668171365982,2.2904319714414987
5.549582161045975,8.924331129595835,7.80231346968473,5.095452375679771,1.1315601351654119,3.2050921185274532
1.7492207391583907,7.116167853187766,8.92951596238892,3.18228363785807,5.082212598655457,3.669279224518377
15.428039331708293,22.943887191289374,10.450478625052646,12.060090255887864,6.432458104205158,20.791759906181017
1.9472959139102062,5.460840583013502,4.56168951497155,5.945448592787338,2.0448776933965744,1.7244815786804055
8.437838219399104,8.129666463070327,9.511176066431318,6.815408385187066,3.4279690162341954,4.678373003901844
6.187617502114226,5.493787180884471,6.907637782467911,5.401359256103044,5.191970255446717,5.120807231293118
7.583344512599299,15.497944433654428,19.399975939184827,21.422915084607595,2.649166709588034,3.4729456311206985
1.235057242968256,11.413879081947126,17.594106959696166,15.527899073726815,1.1931663984055179,1.591409385074376
6.240418267452805,8.047123194587346,4.8874266018888015,7.9320391041432545,2.018018545666287,1.6352347007552148
10.38014563527927,2.5721514073843883,4.942481473361212,7.1231019292582625,1.9466878069691511,2.753034368505409
5.979485578036448,4.655167986229709,7.803280778413654,7.8928910856272045,3.6420662712717795,2.8426661832774878
21.2908779677853,4.6037301514367055,15.166224641848855,11.781189200884425,14.177780693068001,17.780305917824666
5.364962268742244,3.5014871564322516,3.1713456788898227,10.939204705994037,1.6024779756033698,0.7900282393414682
13.331766945789449,7.769214169151552,7.0318807673663715,12.521696330492198,8.513880663293424,4.704099394105436
8.131459063487684,6.087968113490762,6.8209048944606145,7.775468137087992,7.5738346611749225,4.481118811776119
11.433308424529697,11.57056252061963,15.244485939580242,21.75118673161159,6.961504743214529,4.622627269461505
3.7502479998986766,11.940330134989832,10.002023049315914,18.426126316672406,2.879193252467703,0.6473181226903911
4.799424870735156,0.8219319036292563,2.23095571998671,7.732640260591122,2.107743328962334,1.2375439756154314
5.558875911888812,1.7725676772120917,2.0506961537227713,4.485096167999357,2.1348175291418396,0.7875682504930003
5.429330242973807,1.7259519522811355,3.2894626935901177,4.0537592455442875,4.846238765669913,2.300981076297723
17.653837573463534,0.14835410929953646,3.949558798173341,11.359960719206423,15.286933136999076,10.124516668381801
2.4953067084267753,2.6076929945759026,1.626304029092156,7.510156353706708,0.36292401761430476,2.4483239174874685
11.454264034407878,2.2355877347462845,2.3757189529034224,8.517425993682567,10.045610244537938,2.960769701514355
9.625961329893796,4.067632951870953,4.342437644111996,4.885651330374566,12.728268420253489,2.4843943498056746
13.05117536843201,5.348558739374847,5.470126657496822,14.163393028192738,9.908545351577018,2.171655970358083
3.6392088091953076,9.327865246078703,6.607825434340973,13.132308933668595,2.640843958106124,0.929263234523137
4.244132774228602,2.279079215385127,1.1620908602344338,7.006586879843689,1.7332912816409876,1.1541161329368819
4.820884868931921,1.0947638793895733,3.0624609079930014,2.6277502754211426,4.765058529523548,1.4239521714930308
3.859163479427561,0.30744381357724243,2.276368789904388,3.216232215075815,4.502323106314199,1.3317696595278825
12.128883710326068,2.236941850626312,2.8761848366255265,8.152410901192795,12.015438402732341,4.665391604624487
1.4564836642186454,1.158387841499236,1.4275846777890855,4.259883963702596,2.8770928292619113,2.5719126674810853
8.02988988769765,0.46262854725064523,3.125875763328166,6.207171539538054,9.677234071696297,1.131626781641929
8.321605881498733,3.105013631634202,1.668731584190584,4.586234976545057,10.46741723821054,1.588609056887052
8.69202804953836,2.913510922292332,4.0016798940348695,9.778032212506094,7.995911433596637,0.5845090393505835
1.8523350408668706,2.576844889058826,2.726758904451014,9.883698062080956,2.059372581641961,0.2197224587831388
1.765067265206908,2.282905742905747,1.219190190735234,5.801824026325272,1.467658249701299,0.5236671481742607
3.774830000206455,0.6435754724454222,1.5676099927492453,2.3508455197859983,5.001381479585929,0.9657487447530227
2.1889782451321604,0.4800270066094408,1.2020139641311778,0.8581243765355925,3.2305970471145438,1.6911384277003099
0.5009720278985785,3.42150638301388,1.8690699290649353,3.5579140841503936,12.008819672583932,3.2780330542028855
2.4457465233285753,0.7765074832217392,1.2090083752559337,1.8343835756751252,5.03515271436633,2.4897008978908484
0.4675693917893967,1.4135700657287422,1.067440629145528,3.780614072488609,8.64249869469948,1.480193672165675
4.584114470247657,1.398984076787649,0.38087798823516655,3.0157055963701844,8.841533603937116,1.807043232383984
6.436950217304071,1.061692541028781,2.0838168485417548,4.962772936647677,7.864989289623968,0.36742295719495716
3.8782705393478882,1.4481545857647395,1.9693771478892297,5.895115771907107,2.6800222906638296,1.7195936643221854
3.5815565370758335,1.4916270463025671,0.29045232664098436,3.8103435686857083,0.9145677787338294,1.5619575177029072
4.89211803715211,1.7031508071029753,1.4853852186833199,0.4223257797424071,3.0939491549226577,1.3567642752767308
1.8603612730794643,1.6041771767153448,1.5060175752836382,0.9598763066391935,1.9634743040027354,1.0668392789589234
9.834539484929019,0.5840984044724692,0.8815618966321801,1.773182107852948,9.625642559613835,0.6468628554851714
2.2400589952671215,1.4187364214161367,2.0588380353660343,1.5008321545119307,3.1620905358413918,1.4228846252838443
4.000131290414007,1.9815455893197977,1.6113769217625329,1.3155613143346805,7.102838237198075,0.7645568720273451
3.351750170481909,0.48997107490395825,0.26676823594047067,1.5057327010411203,5.6620206302111304,1.3655924802950692
3.3773822343810376,0.993832172368143,0.9960995739349303,3.13454595335651,4.449117755012428,0.5192843453728312
6.15062449066877,1.4023065881506385,0.6059111135301423,3.161545412317353,0.6417075169551206,1.2876144555157751
0.5967493337208233,0.3362167930978338,0.8512127163674115,2.375739738202586,3.0837282499480323,0.8707289580578492
1.623275509179977,0.4454557757575406,0.7536271960584072,0.13193405292403276,4.529251131611409,0.5349054301319016
2.1521337573576647,0.8914573150267505,1.182538982391698,1.3365924227901342,1.1465828217894096,0.7872059058201989
6.627235358025803,1.16874047045502,0.7240488958341377,0.8075414629013635,5.488545206645066,1.3535097690441507
1.837601502836511,0.3091539456338855,0.4436289748911797,0.8671885608101613,0.8924303894422221,0.37601595710820557
2.24987086779847,0.6036375722475812,1.6478408543252663,1.865754673052325,4.443029494174349,0.8217112682174231
1.737522178535198,0.7038745963556114,0.6284758417139197,1.2164478321845318,3.371755991302768,1.0620488532847034
3.1448194595148027,0.3477836488592115,0.20587428765854832,2.1358744174093856,3.5057457690090503,0.9861937845332134
3.2289870077201135,2.515028584844332,0.9451437363386421,0.5200521528091233,3.814612631999941,1.4728076931890859
2.4625545219850076,1.2511980701959384,1.127487403444062,1.2646128157405299,1.7564123957567723,1.7407870707036053
3.078393450046981,0.9017992535507333,0.6850505767948395,0.5443808132079369,3.3314484457099782,0.6457007828478512
0.3287902708117722,0.8893591342066142,0.7149243611942896,0.7575184927767356,1.7910044722679608,0.26196596360755053
3.8987086847426116,1.2013365433495173,0.158027688098254,0.4473637614214754,5.284430487299853,0.7157949123797104
2.167819107069873,0.5312243111429462,0.4523860530466066,1.1752277576282526,1.2875951432917947,1.2948507443396466
3.9246644495464857,0.3418192595504603,0.2632514850872773,2.341885171745377,4.550715795385259,0.7021045587462249
0.9868019046176906,0.3251988966860605,0.4414346270758245,1.0391423542441678,3.089859105139833,0.9177913187427631
3.337022999877642,1.7927820804111676,0.8320134558309118,1.8901145145033225,4.2950158268711345,0.5806194611203394
4.410532955313801,1.9602758040369976,1.253946096389085,0.5584818420627796,3.149919052351111,0.900024821133841
1.2973116176237707,1.4084750924111453,0.45318783785141575,1.164164365627585,0.7297765612068295,0.7499280811352783
2.5351110582566014,0.899384893653386,0.3344860120371008,1.1808429794153588,2.6330985550334405,0.24458364511032935
1.6964514078608122,1.1107670103524527,0.7916366195654941,0.3657162371346571,2.067998198189019,0.9412542641848615
