Gx,Gy,Gz,Ax,Ay,Az
7.940991999999999,3.2783980000000006,6.824149,14.879999999999999,413.9819999999999,56.940000000000005
6.34155586723225,14.28622057798201,5.439660725268159,0.929014449955567,2.322586471840766,3.3406290606152136
8.974852757221058,13.963361701210276,5.628970536869518,0.6246219624476543,3.73083104546898,4.150751166548072
14.936628546313791,23.479598686188353,8.059063471155472,1.4086602868042069,4.367171353417174,6.162266126659864
18.126991519121464,13.620285632246159,32.19647379437728,5.612491784727119,6.362965125874904,7.107741911761869
13.443465085321725,9.455119745138713,8.850553168978074,2.151999137442879,4.6739512240162595,2.9597029414372193
2.933834760300456,14.907760623506213,2.1242913824639147,2.275594043817567,7.370273875153009,5.337746978022946
0.7347204788849321,11.220200896102627,0.9435217815663337,0.6681023312840203,12.434965088942564,10.17336288746536
12.139325752019536,19.39742664553569,2.449475805452103,3.5313537006401354,37.12321059845343,26.03938358265744
9.023750054503767,15.112977133434853,7.825192274141452,2.479150237913935,48.21488474331043,34.82673656636651
2.1297664025534773,5.111491433670742,2.0639285261394242,2.0607665524532703,10.748207753907096,8.372161954709608
6.952146774459765,12.401465808384271,2.8299195483921857,3.597975076947434,5.794693563660549,5.817811771430894
6.541506181233711,16.264771219230735,5.136112549931045,4.996228656052405,3.275465451084325,2.1101270093133704
19.235881177180904,109.28217047517028,48.5918218782414,32.83724184301852,5.050078044361102,8.17246469483371
15.246861734278635,7.309512945792681,4.303513307249317,2.871982671980856,5.754953771688578,5.450443925889615
7.388251078919635,7.9972759676287035,7.879888975927236,3.9564639623113895,3.0042710401540003,2.108019665488442
4.218739029873559,9.055207041145888,5.633152489457949,3.657172429820976,8.256359583331514,5.346286419058458
27.00146037918987,1.6627171525258782,14.1826885903659,3.164029058960066,7.3965935265914355,25.40446503870762
5.565382872941993,3.114748740849941,4.316106185679845,2.3672445478462976,2.1669496760339806,7.765104725236596
10.017608500478014,10.113082717965154,5.3739491919355045,5.269865122073864,3.722860985531943,1.1222269356554073
8.089629739592887,5.632370077954303,12.527773258383398,3.95491672871641,3.795212031673352,3.179737666878113
5.690554271330242,28.201636232898668,16.19310668776579,18.650849016733517,5.662945033298002,2.835448561556525
4.988144329588115,18.36320499344024,12.299398042180847,13.067989454339541,2.396195833426186,3.9592156160725294
6.810420246687978,3.853480045075466,2.511004564808435,2.8056178907666953,3.395223285665216,1.0000848204422972
3.593613663426859,1.0283240081562754,2.3320428313783594,2.4250995804352056,4.329636400142616,4.470266507564879
10.790932244332373,4.616614375087553,4.751495317646211,2.6077964088033356,10.506098071602711,4.9898743656794275
12.128709326033917,7.006723350352136,1.8675519674836267,4.351830353940948,13.058423449736456,18.9263208321518
2.3425513565877947,2.9868157921615497,0.7090754590152254,2.1336538349907928,2.6036969849855094,3.1503116713213495
5.618029734385578,7.266711072717134,3.1681954157629346,1.9695766604262206,1.3971845276016364,1.9493285598443628
1.9214270266976246,6.323632369326754,2.7274069860332597,3.6248201243215514,3.276225991353145,2.612010135319379
8.481765422863838,14.717043937698504,10.16238893848355,6.559173885806126,6.583443528978429,3.6803829104188366
5.310236989164341,2.207310496340091,2.7298546300444984,2.464324255251443,1.370834911428437,2.934555717573146
9.49977546967793,2.9127021922215888,1.5824666493688802,3.698731742227696,1.1319277277554503,3.5555223240007825
2.835726533739177,4.722955853369148,1.2727071464322262,3.0732354967331696,1.7548065516000426,4.029258917875896
14.784034861016487,2.6547302037320253,1.8333804752938316,4.702831367096492,9.656402584648704,8.665875446660275
7.541017308313059,4.775885130163633,3.087225204520294,3.44697187449692,4.082257023161432,6.714561426148292
5.269782282605783,3.6291340646914345,0.9694724026503094,1.793585137476739,3.2694306832688835,2.4810925032855256
2.177977652766679,8.29860700835018,4.9133546050047965,6.586223732448635,3.4688140567594923,4.556732473484506
1.5995247085132105,8.47191239305421,5.032029691038848,5.728421350941656,1.1349395677937983,5.469843154388952
5.8603863951315205,15.232423330070565,10.863291192738377,7.580890849587612,3.7352185278430396,5.4780686093297914
2.6456228229776397,2.45082390067956,1.552345967321972,1.8089484917724723,2.839598447996657,1.9989384601213513
10.142547734041687,5.62101538091824,1.053821041129782,1.6834391972835652,5.950895936306616,2.4736713836056157
7.086847202123402,1.687973268213858,2.245724167066471,1.6398574626967783,1.8938393158545033,3.106399156439997
24.298859897719446,3.6756994816774733,7.204757399400232,3.4057910500696478,18.824874048762165,7.358878119260082
4.791246267617285,3.178539883458939,0.7845468638219207,1.2840057987578941,3.3134862585068308,0.6221157410175222
3.7733601124599776,1.3223522814208013,1.1570194664745164,2.5182404112934234,0.518298713737462,1.3963788683840597
3.824539654556694,1.2602416201969437,0.9222493477270344,2.2730618021925904,0.7352743589733457,2.403698318992745
2.6914754279013464,7.4827148006880915,5.240752926134665,6.793790734586217,2.446530234832781,3.5029226451493476
4.273409464600191,2.5530417905151954,3.2192871981222875,1.5461132978917274,4.65141911384047,2.991873274628427
2.578764521080807,1.6419571108361697,1.009876956213829,0.873262426473479,0.4933782213870739,0.25942357777902203
6.792377394237688,2.4139111673918556,0.8510159667909256,0.7533405617116302,5.202798809175109,2.666934572828368
9.631288551945326,3.9496024761035673,2.2686385728427663,4.6628394933716955,10.601110915237562,2.5947977696083124
12.986148091183011,4.978836254102877,2.2184190899381635,1.6242884323323006,10.098403707420081,2.7554132012671673
1.102592363514713,3.431254886887807,0.9656217680218814,2.334741329244029,2.24902237820135,2.6479985141324804
4.220373333445206,0.6464833052138829,0.9656704336630482,2.708327675468681,2.145933614888907,3.067581796713196
2.008651595800185,2.1805503825325436,0.6349957980073263,0.5237285301170708,1.9391072764460022,1.3505984592789517
1.9524532058677961,3.946389208601374,4.136649647758221,3.31170520226168,2.01757939005673,0.6570069126654423
1.0445695151524534,0.9407519600763721,0.5955346809140188,1.086713804232028,1.622122399371059,0.5937223199282762
3.3389616672199645,0.6661433100110833,2.924375239377426,1.7095105634881702,0.45317610810503667,1.1419851409776918
3.8400409752736437,1.1879083487387856,1.1769253658278163,1.0020553150484177,1.5400751149762135,0.9305292840876176
9.526405708376766,3.098617399930094,2.778875879794655,2.966636620157977,9.05328231762765,2.005748150483268
6.837444642630666,2.1668834870634774,2.173673059153394,2.2022281112816207,3.587550612693272,2.2009764445024667
2.3746347843995927,2.318753283574623,0.7398235910746668,1.438055803390128,2.762014279958766,0.37224752401893163
2.8903578893536563,0.4828877846521635,1.6909422048959093,3.4603254304266144,0.3800222425114219,2.3001154682789444
0.9680462275450316,1.3513180823526236,0.7779556379484711,3.382513665050672,2.1412307175024785,2.0213769261600487
2.8085392577061197,0.8762573324807433,2.13062904934198,1.292201873479404,3.2811071778963012,1.096132299549184
1.810132751110607,0.9982168667564935,1.8042910416717823,1.4213490542351457,1.742366823189734,1.3942156085808106
3.456646656099051,0.22349993992525344,1.5649394218794164,0.2091923096535534,1.21352151986363,0.6481106197104618
2.3360960473224015,1.9058178846503726,2.1857238766253695,0.3292647547193379,0.9446963130648797,0.6173768362019961
9.350810079931525,1.459909998284825,0.2867906473998065,1.1168455578100311,4.928,1.2592013341797244
4.062787821523395,0.8587634894633182,2.1283890994273316,1.8430025522277564,1.7506918579616038,1.618540094140041
4.662480635442912,0.3447924577318519,0.7912999644466984,1.224284394598675,1.9213963562123275,1.544190500868768
0.542068517781596,0.7267067434097308,1.1102227792188142,1.2197460204254666,1.732789701160117,0.8056001551206678
1.3946294633966472,0.9418551933993586,1.2375627234008428,3.4107794079956872,1.7422800900695843,0.6740587165183359
0.8768983397335055,0.9704517740235022,1.7022928838179896,0.8221330096181423,0.6229295085991987,1.3976007739314056
2.73760290238687,0.5959597954025638,1.8065208963592594,1.2314451546955576,1.6365388997842047,1.3572733074436023
1.7210799800918515,0.784508218785693,0.5577270849086922,0.9637223575935144,2.0709630773943304,1.608565043530078
1.9319188054461822,1.2003995209119263,0.921017116753742,0.22643857119050684,1.0191571303831066,1.1840462783782904
3.419341091927895,1.623091640355864,0.4706243745604182,0.5790004324437074,1.8797798867616038,0.1056645408844081
2.6021151911066824,1.0987758795275564,0.9162138019563455,0.21969222413167783,1.0924959840356991,0.3030895320281255
3.4646740593151106,0.7320384552867634,1.3311698907443896,1.001526639907238,0.3453774682118373,0.9409738273621153
1.3911457470005657,0.9947835768529578,0.39467103502268375,1.7122745249758453,2.394064126301037,0.41497427590513797
0.7942920155601735,1.021679357118747,1.3412930927602398,1.5867001710455588,0.7443091470182572,0.845661320963579
1.4258730492449112,0.8729423816641362,0.7063529441680358,1.212665312755844,1.1643755272478313,0.767889457672132
2.100855735244607,0.6144569131676398,1.0321234059832607,0.5664166780044232,1.4300016413075907,0.26047789512703007
1.167617751340133,0.8139976507402791,0.3462120757378728,0.38094927167865095,0.6210501569827935,0.5534633834072884
2.2876176883804282,1.1450706862772504,0.8809595482378819,0.4010667379022624,2.1339081511784466,1.9762225421023036
2.093522095927161,0.598178341694546,1.3283876209132042,0.10186080381468561,0.9153310450042832,0.9563269533674988
3.095545719125637,0.6320075110102181,0.2971219358683054,0.3309000376216628,2.0272589916014807,0.9450047789842466
1.2824628560568538,0.5398682870378819,1.35192805254341,0.2494021110490475,0.9710457499437487,0.9367310788982819
2.485380594956679,1.752019709105603,1.3213220392670395,1.2439298153064393,0.9707434185552142,0.3928040350235218
1.3451548003744105,0.9092867233923773,1.0230331818475893,0.5665207095903627,0.6743615011755599,0.9671422925936435
0.2302056422823779,1.0712766646137761,1.0104054943114187,0.7216374181004381,0.6324892684645523,0.9176716025897856
2.501527286183446,0.4016200710267391,0.5949557337035777,0.9613565152556952,1.8835421748059549,0.3773499153516245
2.8675465782326763,1.1268513489135006,0.745262671094617,0.6406929969926892,1.9325257118535704,0.2575344717425676
0.2759813633585311,1.257638029101739,0.5257015326047625,0.6358847566365005,1.1562670044905168,1.2857030134234602
0.8455857851019034,0.9433561075543523,0.3673558920275738,0.6451438999746038,0.8409650707526267,0.6933498316040196
1.5762733044094057,0.1802361379697022,0.5662106360967343,0.7061935243404647,0.9231635037384724,0.9389975459203826
1.0117117352407017,0.5039756864573719,0.18468923619795133,0.4441013568704914,0.9884961658355337,0.9231905805534893
