Gx,Gy,Gz,Ax,Ay,Az
0.6064869999999987,15.045615000000002,6.771167000000001,2.5100000000000007,466.954,42.406
5.881219843324613,13.484852066462988,4.979283170786569,2.1852976893007288,2.820274896024118,0.7596962818873627
0.5871333420313044,8.12610183930675,9.57799708017811,3.124230122259848,3.006119989027682,2.858382616198806
8.418366764673383,32.703816967929164,23.512746143990643,1.9318863455284785,3.3519774187576763,1.0149008711250256
8.841404036359386,22.47584911300661,28.661838875948575,1.7609974720490753,4.01770564308291,1.5833321023037368
11.309934029263363,51.739208742287715,44.23754607125808,6.03139555912793,7.998014980549295,5.676400740905035
2.340238318209825,11.27674892314925,11.034735448331647,1.161255516859926,5.760257080595501,2.8327842125297806
12.755647977113158,8.879879838829412,7.175937013789158,1.877245628999614,10.811857779706797,6.312034453378115
19.12604884298684,0.5346048423836044,1.5092017318960156,1.3320181467246495,22.113754616053942,16.1163840850798
40.55886752683875,14.197299248239572,5.742473543895413,3.88942450830731,56.01784686119918,34.85567780198331
24.53191267111444,11.29127857508884,5.6775328128580576,1.7776338069296347,40.561511072384675,26.700565061056075
15.006338238381565,25.841102528526925,3.097197110942968,3.1003369896900437,19.14685900337067,11.029793571232375
5.536306957220317,16.932790216867115,1.9280306476407778,2.7598075092126813,5.34742547574239,3.892318518424898
2.3508114737865338,12.802723735893219,31.414695919202348,6.1794780568958645,2.8342360162811144,5.764813105549879
17.393178679602226,54.4359811447178,65.23278515296708,21.53971417567854,1.1627385304337843,7.403649630110684
9.507166085913353,28.520354254596985,22.321202923851455,11.69219908324067,4.817511629359486,4.877825553280679
3.532334450218512,18.17494593586354,13.263186757757449,6.6180253188401235,5.763166305122828,6.6633472411230485
2.80388063095355,5.723627586523386,4.175187989766011,1.3268424964623888,12.436530500711326,11.861221712578898
6.772790653777955,12.805889980358439,5.350981175562233,5.9687425402570415,2.9991631285521256,14.643039926499238
11.188163818737012,19.15575772709421,11.493577396259417,12.28017278027844,3.5407417702162065,24.862364350933913
0.4885357296262247,17.602359188478097,6.5039822115421355,9.393607849892108,4.751068976035724,10.588060226141392
6.973058348392944,1.6433975169590258,5.445328219216145,3.8587380669970517,2.565618326083069,3.649250688427679
6.066289140270228,10.443936738715246,7.140584014132834,10.766996167086226,2.4625402945239845,3.2045205296961248
11.457440857966722,21.451323956282945,6.878168884536819,17.176886480257558,4.403847398916304,3.9200790687528686
9.354021870998345,9.747323200425372,9.019973268607599,13.095785668371931,4.445265690057622,0.9293817102654544
9.200802137391413,13.358518074410421,2.967347685598005,14.203001943950925,5.731649480798187,1.453700663723572
8.95446998562318,11.31274315384812,3.983943358186914,8.989762046263372,6.934888359683957,1.6293166035161308
1.9252753034812842,3.409502151182266,2.6050096438627395,3.156426788305849,2.13327712689025,14.08948955020236
7.565408603042321,3.8311762744348123,1.8893693957276472,2.544697184195726,7.445209592886106,12.848804200171971
3.9424014754112684,3.243074203633338,3.6193487036100174,6.750195436813257,4.920198051050843,8.971536467571486
0.6573073553347238,5.66613371437054,7.687838036858131,6.389662948367834,4.621707783349764,3.320268422142486
5.12635955411773,1.2952350282554892,5.883223657360724,2.216060873141002,4.131118304503735,0.4894924066918676
11.052709307144271,4.942977140087396,15.666256659925347,10.040197748803543,4.923333013139223,3.197479444787734
11.96550947695861,3.4791210422603114,13.872121104009763,9.526864597445611,2.608579931375513,2.5778578580132914
10.488653114666743,1.8661247525403737,7.246064540699564,3.7132909022506455,4.793908429749519,2.791202419390665
5.279220595829629,6.367361575311124,3.982070981815437,7.090244922248473,5.987634875221023,5.520830896599026
7.605039256376535,7.152612819926917,3.188932087968727,4.966627160602935,5.469719659027084,9.982334430188773
8.808139202208718,7.100472484832375,2.220774691452505,2.813172431455149,7.2459641174372695,8.117481135150186
8.051799465597623,4.2175329995123025,2.6285196819510555,4.502294978450492,5.858690400212244,9.756264733470674
5.281915788206633,5.750581168911634,6.3155703502656095,4.81570765917438,3.8413773644314944,5.561909632711363
9.81927599133839,2.736869014046743,5.791381285811289,2.875043022867849,6.155282132622015,2.746772025174101
10.780996676424344,3.6125583391060854,14.94442930651295,11.070896083179058,4.145346888383706,2.6137735311994597
5.692339395649056,1.6247778334727594,7.858263878967056,6.261946419054982,2.2332549437805276,2.9457491779159337
5.571585477540805,1.3807876956660097,9.465622323675063,5.8050374410810255,2.7078714625806786,1.1006632299190753
4.264765318442835,0.8448748313594827,4.242154246301699,5.244361581085682,5.8880213828239905,1.3315651962167012
5.360177131645464,2.4881981467148315,2.7194190902672255,4.306926344794723,3.968088598502321,2.4473885483155615
10.274595258967624,3.7881112702111697,3.967297292845756,7.3116889708564665,8.705804977324911,7.127686129490675
6.936600669049293,2.653412877046191,0.7390484628575731,3.3805122149692157,4.526570767476808,4.157813942610757
12.176993663466906,3.486446020437679,5.204535146998096,3.489409772562527,9.465527698227895,5.32078535017319
8.407405446635591,4.902066595975386,3.1307506466299997,4.561540688093568,6.542402842590897,3.6243346503545406
5.501221891299833,2.2658505575320484,5.113404260862867,5.547820520620699,2.3798359788849957,1.5389314543576045
1.6557554090360351,4.0572365510260875,6.124968162700549,6.210541567166214,1.7694503225480989,1.074537276721315
3.4383378261625155,1.7399542659471716,4.762426174076714,4.212439533021519,1.408880776801655,1.1375696115611367
3.399748903024486,1.7749766414479196,6.109152154730186,3.7580588285566927,1.3545245370463965,1.2441864067525465
4.6855036766472615,3.1063406969261345,4.878774172752811,4.409966893226379,6.170481209770081,1.3244225529524891
3.3184126698480076,1.3153367418766166,2.591334448271076,4.810966430021284,6.797592329994904,3.2534070218502946
1.8262000887071952,2.5784614377759927,1.9999677177758617,0.9539097041337222,1.146743912384889,2.2138320160401284
6.19004864390007,1.9875122540479564,3.8263945860031976,1.885680295592079,6.000832657969485,1.9277175900357593
6.453625964944921,3.4873222353456845,1.377033317211463,1.3517294525219308,5.619574542016074,1.5082161216613348
1.5096348490429725,2.6826242056229255,5.432978230662933,2.8923507284356877,4.605180542545438,1.0194317977750504
1.9455400119047788,5.214797699752481,3.2755308609105285,3.6399525579071814,4.559575994931738,1.9288601533107033
2.7358681847441813,2.2996855288996834,1.382550329759437,2.895398935731868,2.2233831242452684,1.2491688785839625
1.9529468417056717,3.114843304796377,2.8602673100167557,2.519905439751092,3.632644926341073,0.7785074633671791
4.306793949768235,3.000386962083744,4.442680442194653,3.372497103910425,8.139675322437414,1.1852326284572243
2.4793623474272986,1.7668983324224476,0.4256967701037161,1.4688532370029368,4.722699189989331,1.6537476685774952
1.7436976880119903,2.2621156534474656,0.5613902640097661,2.2285747814300008,2.488785140480938,1.7975624003372157
1.6821645544043415,0.28940061116869287,1.1196578116065852,1.0327441482716848,1.5144687822277827,1.7240146460841763
3.616051969661014,1.5520331642199854,0.8560480705311715,1.3609266973453955,0.7045956620944661,0.29817497764964734
4.908149450619277,2.942656860312216,3.73211821850728,3.530256361440332,6.84508076240399,1.5835498030380113
7.175375134637744,3.423062847935581,1.4097009807782057,2.4494662410315065,5.648921085339505,1.5823453034852868
2.8407115637675786,3.0717335404660844,2.075853821978751,2.5788675646466754,0.8194270512985726,0.6179502441798139
1.6896623471195056,1.3280801424313406,1.4694810121007018,1.177627479644317,2.6352548627040764,1.278611160512739
5.3846004184156815,2.1746613270733683,3.349891902164327,1.4761642674060647,4.368557893550182,1.7879728122535812
4.248610059858064,2.106656255120972,0.9024700000263395,0.9157749310982384,6.944483190665455,2.524997260992709
2.16439015451209,0.9969027788221843,1.9761182195648428,3.662032880788351,4.790991625215632,2.4760433049951502
3.9218528066692255,1.0032756735529156,1.6920613693065432,0.7128945950823125,2.6902432574113715,1.6107347025267218
2.4105766831433235,1.6964260203069128,1.0044727362704786,0.39091218268474287,1.7926401514950845,0.2066196092044316
6.540507801127141,0.7733456578612165,1.8275461606560155,2.587488766210823,6.469245650432325,1.943291108586626
6.353792284909135,1.9466561665698559,1.1572412701226216,1.3220803869869213,1.933845178959683,1.147886178708269
3.1005416504464556,1.6346538599618647,1.567208792701717,2.007477524054201,2.961812113042143,2.917057859840642
3.882637795653929,1.015177221358887,1.3352969245663548,1.280556361112546,4.524063786916482,1.1105658141096038
4.3977871879374355,0.8509863230133724,1.6127488134738557,0.5624633328400068,2.4454411880930578,1.8054430512407509
4.359748005783313,1.0193198314033263,2.3573764564379975,2.9856084747534233,7.182321211285138,3.8902432366707087
2.4737003984339707,1.5086120101659017,0.9021137240967299,1.4131637879627368,3.380006924109384,2.011625126426502
5.3724837928380955,2.0140833367060282,1.1000944152971475,0.5102509418593186,3.458636396069081,2.3492761612942514
3.877360187366664,1.2271251667553287,0.8934856291522095,0.7951124220720244,0.40340798484070833,0.8033181815608197
5.670814629575119,0.6503747451829176,1.5000825791294592,1.4234543027606241,3.517150232305425,1.2273052852577673
7.959045262827675,1.7516249021678774,1.4870104022221426,1.5375776094812732,5.589244681412695,2.564911479106668
2.5032833816858235,1.6334993610892774,0.7148077615463109,1.1065381906632898,3.339362143957804,2.2010396971972797
3.6224029629927803,0.9300236381825736,0.8216000578044731,1.6247869176436198,3.2904864504623332,1.1207611455688304
1.1919408393003517,0.7958893199025531,0.599233547819223,0.4907716401099759,0.8741687714892836,1.2675596932573165
4.359282999253838,0.8195106549122491,1.6882813666639438,1.5680183595374193,4.772361170476993,2.3263063709530654
3.0777879172144713,0.1649166637912854,1.2824121667066002,1.2770721602956603,4.427601132638818,2.015400033990903
5.14511176253949,1.3322751143753315,0.9889782776772325,0.4609679892677677,1.9575387767310672,1.5657618391714085
5.0535814788266515,0.7782682045664044,1.1384075029903977,0.4691012401113768,2.5533677673068746,2.2046967827666903
4.560260650816769,1.9242246360413817,0.6346852960236736,1.0358946945525813,3.0564407690125392,0.9366803389849631
6.537823231643484,0.8187372679719808,0.7684659622256078,1.1739251378305446,4.834421879727139,2.3971067958059877
3.606206105116225,0.7082162292163273,1.5907059186323045,0.9436303802441102,1.0278301807211676,0.8130153801070268
1.2115827157950867,1.0494404127720145,1.357603343173422,1.1782675563014502,1.020555522210512,1.7427950394223874
