Gx,Gy,Gz,Ax,Ay,Az
4.768115,4.262412000000001,5.175465,12.484000000000002,387.5,25.998000000000005
6.563573750471931,9.65565080795459,2.3027529162350535,2.799770465552076,1.4595223561107113,3.1543074357704435
2.062729736158417,22.678021575518486,4.224227497495282,1.8531849372971447,0.9835154109041757,0.5739828158533716
3.303619005680316,13.895968150647354,2.9354684032823366,2.3712589358986316,0.9807130770331054,0.7510103330287706
10.617568706534518,136.54621933881714,58.225683243855535,8.96558878464287,1.0513389124254655,2.899377729641862
6.09226286042418,7.072832191532255,5.347044315528778,2.447260811671289,2.165396133151801,0.5497219464528121
6.1655907036065525,14.341657906203228,3.6591878423747826,2.6498833451898243,8.814512883936416,4.855337202703498
3.55399292472014,12.32911130323876,1.1709015625822228,1.797243587612193,7.957950876080659,6.488085702440518
18.63414912508969,19.52294788206795,15.271553592435815,5.71254514156189,91.06421079469368,47.31308526939125
0.37153908284944975,8.337027696564624,6.84262983151288,1.602294664321442,23.260028517816338,11.204179453674026
6.257997158649429,3.2110942183472386,7.9535879717535245,2.5464633941664037,9.286347765677567,5.929715978017455
5.106976787099108,23.157915798250233,13.349263769900748,7.677603907240248,5.339798582485368,2.9498817164918347
21.38371402742936,92.36156938216075,51.88625292411818,39.211731934724575,8.716185970898863,6.611507737420477
3.7565127094285407,52.76552534058381,24.66554331147557,20.75587809265167,3.338966093763897,2.973133849554622
2.357119569342494,21.347679804264693,10.3181287714186,9.567204596609425,2.599461947026681,8.827904089284432
10.390998285722032,14.494699257718285,1.3535448053987118,7.7200348281532465,1.4008943189785101,12.016319709100154
32.3630246101643,14.98813921492457,5.830070474379494,10.852585960119317,4.507746115435425,39.549701799736056
23.293104556333788,10.241866596940948,5.704767471626444,4.213296484986917,5.063848487816579,22.20157297148933
13.09251052541339,0.9071414684665121,6.928142177343776,4.291637986619052,1.9869770832829803,8.285011635811443
12.70905698563928,21.81541831271511,4.915397125030329,4.5116547017987365,0.7339875504253014,4.397068447620567
12.256453122887924,31.985017787722644,3.0602935522146884,14.941734161022131,0.8268732854306056,6.0393424700577185
0.5839106811435326,24.56010378848774,3.559395929767929,14.28092032588689,3.506558703886734,2.029059429277151
1.2982835269776873,9.496043660670363,3.77478985178142,10.066186143010631,1.9862506785601757,5.603537414644302
4.7290533008610485,8.988909958988328,6.429726368467348,4.317275087300095,4.659526976909574,7.781827491124096
5.627667134231306,0.28985438466151037,7.302225348096966,0.8313118624574211,7.446211547577055,16.501958811938906
18.55489882707237,2.537108793186613,8.450598414848855,5.443788430605998,8.400374782222196,14.168792462724289
6.346722838911999,6.07715760220133,5.93645668271311,9.131141414688084,3.5755634974009616,3.327675216881735
9.562812796820692,8.94241984826502,6.008089150654558,5.063122432552257,2.9073516713394207,2.877482318326429
9.231796033334627,8.111376786912992,10.318938707761648,9.596271773717483,5.869340998786396,3.493802740115886
11.773094011159651,14.856493997525524,6.399216009112818,8.703561514770781,1.7772416629551988,2.6430032283260005
1.6686100885509847,3.4217566011109164,0.7673957067117021,7.527818418132762,3.938487628392581,5.18529017355325
4.7402977958364385,5.425487183774682,3.042610421622075,3.165967289820657,3.0493550711273305,2.732238687655456
7.018721623391717,6.711754552611742,6.015094669882546,5.7531696146540146,5.704595651525682,6.880680560077861
21.149788846047894,4.181194325300177,4.374797451342594,6.956212263475084,6.626463079201871,11.084184574914268
2.932849287335678,6.258238081969771,4.861248139352281,4.076947311053031,1.9026063509639402,3.383488630256693
8.664233880495935,5.974084644798012,2.9523313781246383,2.2961707106587266,2.529584038003311,2.20699148674354
6.382502947642471,3.0486679150316554,2.9754151869968712,3.040154318662877,3.123524915470388,3.7745911241319674
2.9540160286847277,3.793799997544287,9.103628913235639,6.883221615958361,4.28204763473225,4.072061347336983
2.8642821931694824,4.730106954692288,1.554920355756951,0.015144787968612421,0.2569954454751439,4.654970187053039
3.5862320327734465,1.692717623608789,3.197043890196274,1.0782512062250664,1.4323032490870715,1.5818853652718703
1.1327694873246417,4.033787190033199,1.7812425138790697,4.039965233327381,2.2572625489473763,3.350804181728203
19.096341141848438,6.476932743914627,2.603493919619834,3.894887282037103,15.65201902182719,10.609756358509632
2.5958982903820176,0.9169604836120749,3.0008581692391885,0.8489938403920033,1.5464695726118385,2.0298885971973495
6.225636523612985,2.656864738108571,3.346969816644953,1.002477449860215,2.337589463958792,1.5540758389827003
1.5503058746597984,0.78645511584786,3.121789421434607,1.4229380587141927,2.367903795730536,1.7365492100766502
2.149073511222142,9.549687517810638,9.592916520283902,2.830365919413602,4.245329995004089,5.19273660955061
2.3195594816400633,2.2381172337055038,3.5065159979152534,0.7407753036234747,2.4107292018013764,4.025098775642212
1.8767290765458438,3.9886316224211464,0.9230211839598036,1.6130280438148499,1.3020525305735091,0.003909325942371292
0.828017175088017,1.2263111942154026,3.457776638289346,1.8162815046086522,0.5602894185470805,1.1339119542153808
1.9648639560234724,5.6713642505927435,2.383127068668109,2.7453760832864624,8.111483068181048,5.385997572692018
3.020948589962218,0.652375916322408,2.0946780917057786,0.3457990451166989,2.996846479448562,1.8135362330154836
1.9050759447905412,1.1748572705877922,2.4780424742580034,1.0628236264567026,2.716052332818346,1.0189267372091482
1.0952831181081333,0.3760951681862761,1.1419706864790076,0.8951977421628136,0.3078893264139732,0.7968358839726704
5.414318297642542,3.876242983990954,6.43402942275699,3.9569980231007578,2.832450484510098,2.8364700617197154
2.2624433531251245,4.00615043899209,3.5529974334786907,1.9487017532938067,0.4121493843559059,0.9284433945310033
1.8753360448482852,2.244198139659829,1.2137982167931676,1.0604749529608228,1.1393523111982027,2.385647074188879
1.6168442438116286,2.687915548582175,2.1694242426893764,0.7895698889620759,1.2338148882799762,1.9123578406579476
4.774316045116866,3.051433264283606,2.3728599619453323,1.7470098320438474,4.890449790142729,3.080274109924678
3.7885190456271527,3.908920258845913,0.8335901454201942,0.5321366056239442,3.658193995673528,2.1243996406708163
2.0031435510251083,1.0580967343538712,2.7955456681543835,0.8406441445556851,1.127449349591974,1.3321501010176917
0.874468927090177,0.9616897105643766,1.4534642780605238,1.0342302754375685,0.4137997031572147,0.8382517556247331
1.6928306887389892,5.4624128785496975,7.4923159162043556,1.5210596212558258,2.537121231728517,2.3253813950785283
3.7731331691703263,3.463947633697024,3.220147147708398,1.6660840888205175,0.6909714316052298,1.2717986187162316
4.04455965341738,0.37088593747475224,0.08667530881598252,1.0185041635771432,2.5999918952605086,1.8148931440447231
2.061938198550883,1.5454046977553617,0.6823770928245737,0.43256069910424066,1.649467822221379,0.8067000798693292
5.336995948278147,3.803566974405593,1.4688302623115623,1.2836454337200904,4.13087398573456,2.1109752395798567
2.530474076261615,2.6091059316278993,1.1625219017228745,1.1493472287363624,3.2676606624749103,1.872957976686594
1.8068379112673285,0.4929433230238631,3.1202107069542295,0.6332351150434776,0.14530089615806605,1.051643693790871
2.624890015757077,1.184884011338112,2.289024557300699,0.7686008268004132,0.4281990536599391,0.19031825356546425
0.37873740356530583,1.1108155625237617,6.309871880549036,1.088665083782055,1.9873329484254316,1.3379256604123733
5.855558907662826,1.5646906706363237,4.747079858271572,0.5873237787783722,2.960290062223259,2.65771313235424
6.6676447764502855,2.207021544282154,0.5727529774215235,0.8482235923320609,3.1659388147728045,1.9791261836091918
0.6104959151308845,1.0262437436162148,1.2321483663153736,0.7652377714476872,1.034961926265066,1.510544662871993
8.318758603516653,2.9669652689359527,1.436415594689661,0.9599090742665214,2.143848279712162,1.240394893247334
9.611830860577903,2.0474053245995694,1.7171566619680316,0.9973207349974036,1.2795149856899308,2.3402716019281424
3.2376373868668864,1.427566695901056,2.8822328964532766,0.7066142961169611,1.4394081685419988,1.5679841484729218
3.0784313546738593,1.0115877542809375,1.6834150864763606,1.0378207719450576,0.49003501297198465,0.7504555081229778
1.944075093680151,1.2822598067020758,2.618118856014285,1.2321206254500028,0.5824828869154918,1.0703517685230823
8.13746496173413,1.51643795887799,4.272086591030365,1.0331566276806572,2.629390699239174,1.1580863084463515
6.10221261698792,1.152379908891619,1.2603982869340573,0.5323731445196258,1.679876990673649,0.3541805085833226
1.3473469464970138,0.72317380544136,1.0180988459558413,0.4472240329512447,1.184629233601183,0.9705849354664096
6.538399823246167,1.4456150054056511,2.081076092678214,1.0432579033712008,2.574028153172549,1.3820349016748792
13.186670620332068,2.9605630717264333,0.9966384644634522,1.6648862280586243,2.080908418945936,1.932636485895361
1.691006202339235,1.0991070543343393,1.5640374022348909,1.1525838612706691,1.5942078609231356,0.5009082489416209
4.470908807272444,1.3989219085646016,0.6510377661397325,0.5400708170283234,0.985598031752738,0.9739000509396434
2.8903359944061697,1.557895305746148,1.283155591284978,0.7344363643396672,0.6793899176658598,0.40267807588239046
4.75919030183218,2.4388368571600467,3.1973668175176972,0.9682020879222688,1.757917728286242,0.5914692504775366
3.6461957953777544,0.7617320129287274,1.7709988240738224,0.8507487308519478,1.343253587566146,0.10135801455144021
2.844854169555564,0.5915950141821994,1.2657130440641449,0.5695373853832016,1.8886048177022683,1.2618438126208296
4.3858423123242565,0.48259787567742274,1.5466186150472465,0.7707326213048786,1.7130690298064186,0.7046977812951397
12.009403950675981,3.8957461477454705,1.5687511065268573,1.6777863708984555,2.202382688888398,0.5393643112806975
2.4787624455001667,0.6823075293765422,0.9208258100116824,0.7966230751494775,0.7149019057031758,0.7603007069460757
4.294222926405437,0.34028343163548774,0.3572795111077915,0.7971301928006487,1.1474619862638498,0.6666384179885477
3.1101668655005357,1.6975685538557717,1.239954062090474,0.8606903203904643,0.3303271753007305,0.4139576254386569
2.394103659259347,0.8192490746919083,2.3710399042741757,1.2674508191669762,1.3736334673339279,1.0385471612936146
2.626906037378864,1.1340224167087312,1.6287277004118559,0.6123398907719693,0.5703373740830054,0.521882863494631
2.4104498887540973,1.3459070500252408,0.6243284929680345,0.21959772743475947,1.6409962237299711,0.184371789633159
3.19611414912207,0.408497773768895,0.992362693488486,0.8163755398111542,1.8655873930880023,0.3737784385325827
0.0,0.0,0.0,0.0,0.0,0.0
