Gx,Gy,Gz,Ax,Ay,Az
5.298444999999997,14.870765000000004,3.549509,4.864,485.352,53.92999999999999
5.872290997766275,23.080664965148173,1.969831842374426,1.9635853530231697,0.21823574194222134,3.400555235029068
10.67600343681136,15.977838616848821,2.678865624751093,1.1697234868383515,0.6245956207894736,2.8615976874109426
9.508325142619595,23.549619090631417,14.874966348964291,1.6614556317685016,1.751630091837057,3.864293185072719
9.420223151983524,65.91347501447329,59.909632319679766,1.8068257641457925,0.6192528358780025,2.4380487346161295
6.529811510246716,98.60558796987995,72.55270513209503,2.38235532165153,2.370006030863995,3.8388268459484127
4.921000832243137,59.10454897808216,27.40345908165754,4.858703003213235,0.7265326480899892,1.4511467305003203
4.421358832090192,26.010788454887923,14.826005945758707,0.5147505161920709,3.5436925421659122,1.903362014551809
11.09510221225769,21.079275776150684,4.530481753234709,1.5828300345556172,2.6805723683883613,4.990829468962019
38.70677461475606,43.58141667180751,15.47229579908666,12.787932441020367,66.12300510566445,58.63877513194639
9.459821717751453,10.921026845993993,12.460325269111902,1.212804056381658,5.586843225956735,9.60816984593694
14.404725281481308,7.084751105427572,13.829546554479776,2.7364678297349276,0.6587666297726688,3.8122722772222133
2.8575760049869565,4.2606993265262005,25.201406415805035,1.6090349444035543,3.597921301190278,2.464417265710876
7.791575412729583,55.10683973080007,60.891510006264056,13.308428206136306,2.365577131886452,4.817598509918987
6.341730714539673,100.23886852163645,62.04200523268672,23.241136876328525,1.8602232698860457,2.0718526401394204
1.801543372732846,29.78592657983395,13.269003400441598,4.064942560593198,2.5795194753261392,0.5621769810554317
11.206515357782393,10.274012055393008,12.327732120493463,6.950075127211057,0.24773623905102757,2.1930774601328578
2.490381724879754,19.921964726055695,10.467348681488739,2.652557266095678,5.222818071083408,5.76975514893286
15.565298865507723,13.574221260954129,7.215923100528675,10.393965317905124,19.723206819309638,31.856890287239963
4.968869659649165,23.660954735328836,4.562467388014707,4.741878341479208,5.051789901620413,7.283790024596951
3.44075757271983,7.778014243276527,2.323993551711199,1.591715125849105,3.5956059718056395,1.047152454971499
8.195000445455909,1.1701028663650566,14.537625173135911,4.470461774350419,2.1302315559672573,2.5361790904988135
6.628195070434709,24.36895887396614,13.906411535052625,16.092614801904887,1.6548617598592643,2.106851121023294
7.089698503799727,35.42333375806632,8.287460445648806,20.776661857192114,4.394384204065433,1.054650928219272
2.8404846629547897,12.241036421385454,2.990941381985785,4.949898609031007,0.7948706086214959,1.5030895248727747
14.119427221469161,23.56357579775738,4.651468318058879,9.76300222824476,1.075483850723926,2.394053028408692
0.6557348262989622,3.950003298075039,3.477190576841974,2.8486257822825634,2.8301996290076272,5.400412018429772
20.857585360100114,34.43778250221107,15.458254931397246,20.73994254636226,30.02744851630886,22.892373255334743
4.405829968464846,13.63097779628229,11.494449853238349,7.127890943745455,10.617591439905741,9.580245200016952
2.271867363857006,3.72490197265775,4.514940253967451,1.0307401526038928,2.79932848529287,1.5052767567366634
0.2712166112389294,14.840059591847712,10.639476354435969,5.093166211498516,3.2648832926816653,0.4090681682685765
10.824107349975355,13.944436826307644,11.614238656313319,7.615815877166649,3.9231549964012755,1.2556492570815598
6.0135126112959565,13.68816348988832,21.168907219440317,4.199592582768224,5.3987391549587,2.935392637741418
5.638186453801842,6.326387648184147,6.480154093417963,10.330910473300015,4.941282186126606,1.8332486953102334
6.859667791646506,5.91052323031739,9.967707590011337,7.859561397188819,1.1913035101747018,1.997619508980803
2.500675067146268,5.823799253738363,3.599890464795615,3.9165381461715922,3.1431018149766494,3.4408452710935786
14.816441973512203,4.768770079914755,5.732083424699091,15.141994532746361,23.650607919418224,13.707828516336878
9.84964728033656,3.682958791178152,8.871785567716698,1.7908217379565055,7.22631682788953,7.4177037077395225
2.587141360204068,6.239244405604458,2.352389752599148,0.3585563688451536,2.4147554083910587,1.5547165763454964
6.677374393314975,2.941200317405653,8.635578522754699,3.3059089378509934,6.254448262063618,0.716443140192075
6.090133068088292,2.787422864341981,6.110144351236017,6.885460659393163,4.902288342406514,0.6064163208808683
8.492865822939814,8.1069452666538,12.072214024810204,5.644759049396332,8.99908276763446,2.1887927764559634
4.161470066012711,7.867533037230674,4.942196863047581,3.273431153648544,5.04726356199528,1.8423941061638067
4.5500161229552205,7.752638243249714,3.263095722978839,2.778982752798114,2.281641303738939,1.8883168805287878
10.4730664968259,3.8301626380697518,1.8835717944661838,3.1939543680761853,6.856843557745418,4.466332779856314
26.24622928259669,8.338765874916161,3.2468315743487084,5.913343849411488,22.70673720453133,12.460114173260301
14.165857313578657,4.7507210277154,4.717927647555159,1.2102702721099843,5.242154039706482,6.128648182215176
0.2865008207344411,6.046837275316457,1.3829962313892936,1.4617655417825144,2.5920362207458183,0.8694656349147796
7.4753605902779645,5.802626700552389,5.946278987640983,2.521008150386884,4.697853799512849,2.169162172781477
8.400235977990514,5.162766844427769,5.290541271287508,4.93163921951013,2.048861140025232,1.2104991525336393
12.765602611075913,4.610482903820873,11.198907920240513,6.157812707724518,6.232202970980548,1.4182381322882436
4.356859623336161,2.0210203145740055,2.7134173835726485,1.6239803031556796,1.3859315433435677,1.3255508027313023
3.8572818199945287,0.9245856068343975,2.526257487872034,2.771908949628134,4.08494997341956,0.822454045728619
10.736379464864667,4.348002523266727,0.37534929110086723,1.109222062316233,2.0815247766579534,3.5438670921364976
16.328651194994634,5.853105987094564,3.4270772994737024,4.764043061388178,16.873338063640766,9.027367819462194
6.852939244453769,4.544384089924869,2.267852811057818,2.554970962030336,7.846838853401995,4.9687771665133535
1.5350090333129092,3.4514194331484878,1.855174881652904,1.285760096049407,2.0529846848829787,0.4526836895749359
6.764149574594849,3.3408301099404776,5.560074343877741,1.7553056245407206,2.4236797157747216,2.390230913104513
2.4776222023877077,0.819642659398074,4.232502031996903,3.4778931317289143,1.2050098298771421,1.0280536233319701
7.399243454930715,7.612287461797228,9.784114276021011,3.1353882778182363,0.9434744494008026,2.6353379449544834
5.291442633935179,2.049813128399227,3.9482529765686416,0.9355256161228965,1.1226931608527382,0.7343616057473026
2.3890622690974688,1.5859623681482986,3.00626064306169,2.4165487326930606,2.7969375009083675,1.4691857020539598
5.430600376795452,3.0639443051669737,0.11079568665434754,0.2419605402714717,2.1241793868181613,1.817160259334845
12.06489382490021,4.685117781671808,1.872789840639462,3.8005618790220974,6.110746970681604,5.840817346788621
9.192856551362219,0.844150687789594,3.2325917089695233,0.636522918555634,2.757155823226912,3.879048961536659
1.4478401478091953,3.231654728103062,1.585719427841234,1.7713071677858805,0.6511537631720795,0.6980055040596186
4.824309947134007,2.9950144800585865,2.3439315428975482,2.389908778243449,0.9374860740375276,1.6907538090175955
5.932443607513861,2.199672264195534,2.011644521846194,1.590087477570984,1.1321953135979115,0.6686321340775156
2.037994051550708,0.8418403677735523,7.709513899040227,3.5649236799863484,3.5640385273480097,1.1967397204337054
1.615644953445463,2.572382234679164,1.150148480572568,0.7444903033383939,2.593363719948157,1.5319181875554317
2.6020950974527137,2.20341419190936,1.4051193890384353,1.1522707905935448,0.8639133274900459,0.37684911057707804
5.124389997291873,2.9447374457453828,1.4177007282858727,1.3063690399810686,1.9617032344835246,1.5226000749854638
6.276870284855025,2.417813153750655,3.097639403868259,2.5756904665170444,2.746232468232397,3.055322431479151
5.581118957749752,4.266396926184587,2.038371528291139,0.956644765583801,4.504531389446488,1.327139205874587
4.933169185682168,1.0199643225849657,0.7246841895871476,1.6025821263434232,1.5135598139421151,0.9157017472099689
1.7159668143249993,3.8699938175935538,1.9714410675698117,2.2245378835131504,1.6681143766258582,1.2202318314030887
2.1932332507174537,1.7876914829743151,0.7002935224488427,1.794492660141114,0.6151570567598778,0.642620862696391
1.3911887390967854,3.5534136657186908,5.291141503751539,3.2053742873979667,1.3512372333658529,0.7158132487139185
3.5143140946956533,1.920984230130488,1.4329514146102902,1.8037993250641915,0.3814359074504653,1.982193553839774
3.829542915348468,2.6474579578838906,1.4772105608466195,1.2464570054124602,0.45177965636631817,1.344810122503127
6.663204830265601,2.2299507655438706,0.3490023011966597,0.5756821477291926,1.984314747833881,1.8310274037607084
5.700867191056667,3.5794586629387677,0.9899156636143144,2.189264085084058,3.2415708297645116,2.939273300736154
7.084374914273334,2.2611791018328176,1.8909904380686797,1.2062854523360877,3.5234669587269165,1.2415954061113654
3.3624910709779137,3.214247164772337,1.9499555830424664,1.0853729279106006,1.0015637730587754,0.8414885704012305
3.090233477403112,2.552527447140469,1.8683434672991697,2.004142144067388,1.7799682621822837,1.137407487652446
3.922961744932478,2.975051242936681,0.6678071875881876,0.8224784454596086,0.6747787004852869,0.5803646782150266
0.8714564140495139,2.203948720550058,2.521241263601431,2.7778186358282073,2.4700321242556877,1.0720634320169484
3.7835141496954368,3.507679079475777,0.8174204131722574,2.2725947984266965,0.5730380846632894,1.2333560802966828
2.3129073053164753,2.05230096967352,0.4020117648042173,1.4008296271655523,0.8226020294209978,1.153339609452563
8.551781109723683,0.8128222997940806,1.2834373522478486,0.36137444715253875,0.7329616722923283,2.1433728466158364
6.556198376435184,0.26584435693081854,1.2876235113117467,1.8278909492943762,1.2810877859933025,2.386389153010836
7.953088855677245,3.2831128021130804,1.106599291001458,1.5348728163706782,1.9111185784757345,1.6808588197668168
3.632004404070033,1.2670349870471542,0.3162646828853443,0.6600324635084371,1.9945547232588856,0.8593794926398893
2.3592084136075484,2.050560280628645,0.9374037230995631,1.8005304994358402,0.43739146211668123,1.7428099251377462
3.0738997349525548,1.4653436979222336,0.5191713055968333,0.72573583285725,0.4515199714898004,0.4879240973553131
0.7729574621020285,2.7708265231789255,2.8405384662605875,2.1654841749530593,2.6550339881733485,0.46739302459320964
6.49865325198816,0.9994904959710579,1.395074845508327,0.8231590770459506,1.9250175318006422,0.16812415937206315
4.47871157130641,1.4862725334127571,0.6891015532455926,1.3748410489488905,0.356891062865143,1.8066583607445064
5.907320784406906,3.137407624142356,1.0644637173784166,1.0711687807147448,0.881828674264759,1.8727534087184021
