Gx,Gy,Gz,Ax,Ay,Az
4.982231,10.468284999999998,10.361064999999998,7.870000000000001,346.654,5.158
2.445096585100898,17.687350586517567,8.05836456297939,2.363953452408352,2.3947358609514144,2.3063341748333075
8.09450606630678,22.83044389492766,15.812322123710045,3.166556203072809,2.7367185613590688,4.435345189494206
17.823972907617353,76.78963138568135,37.4209098530254,9.11786266218503,2.428118905453141,4.022406251072738
12.194317513925016,59.2446951779579,34.713766384760845,6.455764888835792,3.739909313444099,1.3450980571765963
5.858943560993955,6.246995675062197,10.739066034581958,1.9334618637013254,5.56074330256033,2.946309743940774
13.76184252960621,0.29101635680842197,11.732439979783964,2.646530995287919,3.905878368705612,2.5747342980864123
6.441936363714344,26.18730678700062,19.954583413089953,3.508034647514885,52.554587126060454,36.896540027903654
6.051669478351554,6.425371813541032,12.229125751066793,4.417530775147671,2.330840256620079,2.9855245885384036
2.105276591449585,15.520946412317267,26.073092269269953,5.2893853045664345,5.452157009712766,3.4476850269811306
5.999974900424976,43.456233980302116,62.554839157060066,19.176266517291346,3.2202946012070184,2.596021690360819
4.746824647787972,27.531661020172884,38.679805389965715,11.991866529024081,3.212624378848023,2.2690639816232063
1.1532633202727458,13.710251683037743,8.251430374720051,4.540057235343329,5.784953708604015,4.7427726661668554
1.7494282388245643,12.769958385079706,8.842852643109476,2.8790584929223186,2.4320351239238054,2.7306214984543002
7.783570863197708,28.80083396162234,8.50229135549121,9.595407729514946,4.279152051383663,23.58030225121751
3.80014331958551,10.85167997728134,4.17346552686178,3.33482504773214,5.148496091899835,3.333608689978719
5.967933029351975,25.183592430030977,7.1697904977250015,12.707956714902961,0.6044250400280076,6.140728195009411
7.660210886717315,17.247378916202077,23.437995764943167,15.481734191071105,4.889567709225136,2.7661786609881966
4.622961508608017,6.533519902848846,11.68217819327485,5.549332202454923,2.045502368745525,4.404188734981801
4.187411123438753,11.866889259852307,8.251876971628477,8.866238925520873,2.663658253547122,8.223369174656364
0.6000937694279955,7.982020083955988,2.202914107771479,2.751489570725827,2.5196318286015544,4.088829229809539
8.699263626199233,10.607602417820376,6.178044595042335,14.122337493078085,6.9611604734813834,14.101308667374086
2.1016298648348064,3.703623695899295,0.8817726793304997,2.4653620210535125,3.3581557133619926,0.9897751548986603
2.400572168685644,6.445904940569641,1.967725085944171,6.51538385649113,4.866534861916046,3.9784555916952997
6.771632277281733,16.88134217131643,8.841717234352748,11.380978704900194,7.452049463494017,0.46347829004866653
3.495529814074752,7.970429293668642,5.084821014816337,2.4145097693535016,2.656410139328599,3.3977262180318624
8.380634991683593,4.497732790969387,5.049553252759761,5.311250860508841,3.5223299355771456,5.794062270704292
6.442795035490637,3.2483708636123527,1.1308413214103705,3.6858773284301574,7.356250151035025,4.983694145247546
17.819049265191687,4.521994710184871,8.640743777490421,10.272412719967678,17.244479050413602,13.426301326472574
1.8714595370618134,0.3742692700028078,1.7716292997053995,5.092571119180806,3.134665078455857,0.8292536667969312
8.218489957726428,4.457607511196268,0.9149955476031473,6.713598347162142,2.3986821021855413,4.677425381377062
17.72344622967096,10.27276365224351,5.808718693974551,15.269192583254979,1.2778642438047885,6.454875111045863
1.6747776770211251,0.9853243102148946,4.23338053509672,1.866151493227984,3.4125435781897586,1.3018484655476228
10.735819767226909,3.4276226979736406,2.3188696186766484,6.511503337025381,3.8913248652299623,5.207705236720339
12.542785782036919,0.8998473259666167,4.243266585696672,2.975913494680767,10.293251662713327,4.543137024385683
21.198080601353485,7.222314629094352,2.2284761510105993,3.0435170453277194,18.028165125930034,7.47471683883914
3.014668336759635,1.6919277258519934,2.1701480872786814,3.997057080243505,3.697980920741542,1.7281382295419745
7.126064131648163,3.9006880083494355,1.0729278012857846,3.7281125297904487,1.9568127999403222,2.578375553935826
19.38134573884043,2.7755983363646033,6.536323581623,11.551648349108175,4.717315365989568,4.996449682443557
1.0911755309921314,3.2660216912310114,3.886937403728384,1.0224958878822021,5.0890597114274705,0.8647077310361226
16.096583442413955,3.1103615203183916,2.224298012494461,3.660080240215819,6.736810259647611,5.1311489065572005
13.345157940192413,4.6431676915318745,4.212320495068391,1.61373215455863,6.582719761174199,3.0121550623482825
13.950155151259017,3.6490492534079286,1.5434286777095199,1.3560546661442343,10.639149373150403,5.6621787891186734
7.65771852346459,1.9090549647127737,0.8386939082356266,2.3176491413588707,3.9357810584909068,2.6201359365573107
0.47138541282897345,1.3293303966988308,3.5562452419422206,1.1064727934801835,2.859788841148731,1.107538847363092
8.464069923108573,4.675052145481355,6.657311236222627,7.7870233060212035,1.7319179945587968,2.7112608313187962
3.3330953748201635,3.2245468314387655,3.4538902471385513,1.6700148306687685,4.477258557687018,3.040564797462984
10.327341917311768,3.932407056382593,1.1089583039354218,2.4601340083746277,5.800989164118814,3.9017938667658196
10.430788051316592,4.5430921526398125,3.318537994574093,1.3804400525077898,4.621367405402043,2.8542435833082904
11.48981714125291,1.624240442632955,1.9480469991078087,1.0708546579097864,4.5126977488434665,4.323895202084649
8.958600195084488,3.0853129775974697,2.178673378832392,0.895732664666895,3.9002315538529224,3.209440552211324
1.658567255768228,0.5509570826548689,2.9310861504184724,1.3167634586113284,2.224447606759016,0.8700746489769478
4.105833053014133,2.812977050412276,6.477117499715805,3.962114502890807,2.9237561192094033,2.214699921689839
3.9393743473053977,3.47498382442922,2.0336243211255174,1.0146992656020444,3.9201463347180674,3.9171363013318246
7.640964771989424,3.1404484253076386,2.35403452874127,2.4147721217837317,1.9779610621738555,1.8100976524988852
6.035798427130431,1.7557600009029404,1.1428245050897434,1.1268747970425643,2.28419003643629,1.9562738716370927
5.964900088348267,1.3484390849332937,1.6705693500572103,2.284888682537698,2.605291608141236,1.1693662441251647
3.894598657100931,2.2040603763656197,1.1714754501825186,0.9277193577725266,0.49509528031717287,2.121328060444332
1.8585800934658212,1.7359716419369302,2.976348334807256,1.1083187762344406,1.641227845732643,1.0441733384415497
2.66382081653263,3.016427098155859,3.5710185291143843,1.8369114413884966,1.8540781932400419,1.2307798719414822
4.531455940231227,1.942724225804922,1.2066037941980343,0.4697724274773197,2.1488746320748633,3.161469343941028
6.45054012598377,1.7691120721722786,2.1009238358716957,1.9439607086419628,1.1062960699285527,1.4882300790786198
3.9787751377183707,3.2206188414048116,0.2661601329953246,0.6875814790120504,1.1797391241624133,2.1457964208128395
3.295481548775737,1.1341386076857207,1.70113022387506,1.858483385925961,3.1769283145000937,0.6458279423117984
1.2794386392855885,2.15601302061489,1.395168794951847,1.766920193968947,0.5982063665187928,1.1967329052902305
2.916322916535163,2.1053183793397734,1.8176809004306556,0.7831098448177112,0.8691326389968785,0.6792492387148485
2.7753624195440474,1.7153364316847188,2.010669308666324,0.33600245082688074,1.2241007685322485,0.3406915492189488
2.2983306500509038,2.1694043435790435,0.8622199050424221,0.4209241903717199,1.7978515729014577,1.8090332444875208
5.508691920683301,3.856331278103647,1.4266926504842419,1.3266860158960982,1.9830422082281594,1.4610692344560718
2.5224004747369513,3.4323407968854527,0.20823000354569418,0.593129369366804,0.7003245716628441,1.5703208015727588
1.7328205548913824,1.7718898308921713,1.2876634891872205,0.7239971277964058,1.8776356279876631,1.4226354803695795
1.9245874181587423,3.9285166728872256,0.4676467278392706,1.0664580689821173,0.4449275294795468,0.8488148856822467
2.468407662445262,0.6884455641305283,1.3554580414820057,0.6169825271376145,0.44310964922588764,0.07217748685910111
0.45040218884200045,1.472793057180969,0.5631574883549936,0.7704931391731825,1.3947519967228172,1.1499024977414052
0.6171360875351755,2.307581258464793,0.21345421136782672,0.6707152933267265,1.332570360110082,1.2946332392129372
5.635110580779993,1.5349550627352788,0.9800448034528126,0.6076872268033668,2.2867280025656624,0.48884244673145866
2.3853425835317053,1.090029608016454,0.5588460482566848,0.34793866326343736,0.6861902418078694,1.029347392699905
0.9613215868761602,1.0251047095835943,1.5378193729253942,0.39485802896727085,1.2661487000362794,1.3186154870940612
1.0981071540776253,1.7526555927630572,1.2223002194357138,0.4094503608455239,0.6120265893859426,0.7403853169780412
2.3283269225204783,1.2947668192297426,0.6930644979409727,0.8383038145042839,1.1066902830714425,0.5551672793120487
1.9443882307251243,0.926436945441373,0.7901131646538159,0.4404665066120039,1.6157950300592743,0.9707010476400828
0.5844143481586352,0.7137127368949234,0.4329373026429693,0.027006133416741365,0.6708153050500417,0.8612641148890354
3.4679438768758613,0.6048471145811357,0.38229694448634394,0.38430073584899577,1.0639694371630675,0.44324422491305887
1.1205212186882227,1.2343972840153628,0.5337528426179928,0.6876226941905353,0.6041120148516065,0.2533862330475809
0.444038282231133,1.2941118437227415,0.6195249058585507,0.6630398571075345,1.0435344423680832,0.9505400202881488
0.0,0.0,0.0,0.0,0.0,0.0
0.0,0.0,0.0,0.0,0.0,0.0
0.0,0.0,0.0,0.0,0.0,0.0
0.0,0.0,0.0,0.0,0.0,0.0
0.0,0.0,0.0,0.0,0.0,0.0
0.0,0.0,0.0,0.0,0.0,0.0
0.0,0.0,0.0,0.0,0.0,0.0
0.0,0.0,0.0,0.0,0.0,0.0
0.0,0.0,0.0,0.0,0.0,0.0
0.0,0.0,0.0,0.0,0.0,0.0
0.0,0.0,0.0,0.0,0.0,0.0
0.0,0.0,0.0,0.0,0.0,0.0
0.0,0.0,0.0,0.0,0.0,0.0
0.0,0.0,0.0,0.0,0.0,0.0
0.0,0.0,0.0,0.0,0.0,0.0
0.0,0.0,0.0,0.0,0.0,0.0
0.0,0.0,0.0,0.0,0.0,0.0
0.0,0.0,0.0,0.0,0.0,0.0
0.0,0.0,0.0,0.0,0.0,0.0
0.0,0.0,0.0,0.0,0.0,0.0
0.0,0.0,0.0,0.0,0.0,0.0
0.0,0.0,0.0,0.0,0.0,0.0
0.0,0.0,0.0,0.0,0.0,0.0
0.0,0.0,0.0,0.0,0.0,0.0
0.0,0.0,0.0,0.0,0.0,0.0
0.0,0.0,0.0,0.0,0.0,0.0
0.0,0.0,0.0,0.0,0.0,0.0
0.0,0.0,0.0,0.0,0.0,0.0
0.0,0.0,0.0,0.0,0.0,0.0
0.0,0.0,0.0,0.0,0.0,0.0
0.0,0.0,0.0,0.0,0.0,0.0
0.0,0.0,0.0,0.0,0.0,0.0
0.0,0.0,0.0,0.0,0.0,0.0
0.0,0.0,0.0,0.0,0.0,0.0
0.0,0.0,0.0,0.0,0.0,0.0
