Gx,Gy,Gz,Ax,Ay,Az
3.260640999999997,0.4816840000000038,1.6357669999999997,2.87,586.508,26.444000000000003
5.2298373756951975,2.9080514593771487,4.200091724017254,4.021126735453752,0.6410089974394814,8.707276777507179
7.476130945142176,7.716726509166721,5.142374402492058,1.9210724317413077,0.21850533878332987,3.5577964168530887
5.784585881414041,14.882885209744241,7.414377764335664,1.6744247740768483,0.6515170304777573,3.9076144385273643
3.6168478483691833,1.1498741361752018,1.2722035504982185,1.819673591999097,0.6330122502563004,1.205980409373833
5.290510599239875,27.77073012930729,19.69586609948635,6.711957507566868,1.8236241141289962,2.5829494446990693
5.434381236030335,23.213588219161018,1.8662341652852552,1.542582959498026,1.4240064884907488,2.4085166214337064
5.0973938708546624,9.81737849081757,2.5702558518934064,1.0071833039990474,0.9707520660342351,2.7569818242692774
5.400107719135288,12.304028955558582,5.1427483553053905,1.7397300811629224,0.3498956957056959,1.1727811473177565
9.369978050700745,23.940571542450584,4.974160747821725,4.862099366495208,5.165098578961744,4.411267394541088
43.70190806752583,13.024463802640081,6.481513820071888,4.495607483306578,65.08966082830932,40.584676375916374
14.167350796544866,13.635460327499723,8.652537568036012,3.1039627876471645,5.5376894145178275,4.267104637495528
3.3988554158355933,13.927434534660279,3.060820735877383,1.961038900999938,1.8060682470186096,1.6997670288120148
7.559703753202613,13.380986884458077,6.59309076735079,1.6532179236268816,2.8703638407708185,2.622760050259934
5.562881841253247,4.48632345176528,7.584710060719352,1.1659868380302354,4.7578545637412555,3.6655912702258076
10.08790771857331,72.2601331462747,64.60631753628891,21.086290637016543,4.981394261891207,3.2885692235756556
4.433509128319242,3.0526840322327176,10.681572602770183,1.7931875234044745,5.349992315521707,3.87031161025091
5.863253698775377,20.200758758781856,4.12900513529049,4.100456270339737,1.8714821894369291,3.7249719554017817
2.2391893335917596,9.023438272225565,3.128190062376512,1.5572787539736674,0.2410169233807783,1.2818669523722035
2.2156164719799305,2.92265562193623,3.0103897778137187,2.5654292377344734,3.5325842447360025,1.5087812798406366
10.531503210818148,15.059143560349426,7.387989841248692,5.319951156972347,17.582401355283764,21.036014102408465
0.015410506317868925,7.5527314426210665,2.7691639819194904,3.492001683506319,1.5206551982359895,1.4230454539483222
3.2522478821422895,12.781300847290492,2.3226253590265995,4.507567987461173,2.040433127935517,0.6863239132195476
4.444788603046276,10.61957888300872,1.0734385822889314,3.137763389579928,1.647246667415249,2.4642434711592256
2.5111150529671993,6.619764095810101,2.845052806909359,1.940128329576104,1.6666174293864242,3.5714314320212037
3.10760994087501,31.54582774438432,6.98810780020585,15.477900017180293,2.987551198374259,3.9439615227078586
2.6870872390500655,12.392015062622956,1.931527422271814,5.201919105794816,1.868529834687422,1.9928329175241035
7.603970581018865,10.792565501205425,3.755721941056981,5.636182244635948,0.8619545240092242,2.1288872509810552
2.204182883998203,9.592677277217932,1.52012393491326,4.21298285944739,0.9827595664440184,1.8306707285718575
1.888183143560501,9.96708912944218,2.954752557100302,4.893608459446315,3.2872768369902374,4.1490346884480624
25.16402550891307,4.398402059972669,3.6543464137634554,5.246931954516097,17.175704987044067,17.042141513329472
2.8967771495449863,9.47988397551287,7.0145291700214125,4.941242289938774,3.8853219521540137,4.23663776925599
2.589650758532282,5.776893022935866,5.750853595308993,5.995649460795851,3.324191301657592,0.7995299625175938
3.6540872315329773,13.500125016739544,4.19203409448421,8.21815354524574,3.045562684778258,1.9621204235119796
0.62968543948533,5.371708785173443,0.8653879786764367,3.7264114426513846,3.068955795960224,2.0006520930275977
2.6587901521383426,10.086932751687074,17.4335500002007,16.25882109257627,0.8054374299921776,1.7470854117420935
3.4220062786964136,8.46843117167331,2.2074577411099243,6.822899525178039,3.2018961840699656,0.8255109243513123
4.392227962603572,4.68338357684513,2.8368692116937546,5.068741335169505,1.1158387465802073,1.8651973643219182
4.584046914087499,1.9224651228968348,1.0007825432702175,1.439295403982695,0.8878710750661605,1.7835997864744533
3.4880780226075165,11.023955485114001,6.553395526776082,10.548746430483716,6.0578209085536745,2.324871037216586
13.356949540397784,8.304039715778131,1.9823043762592945,4.724115029744105,22.299045476087,7.764674357811135
5.477473434003351,6.895503297109902,6.258432458783182,7.326847215287881,6.957403572713362,2.0894322434172916
4.310650561229741,2.3320829885635277,7.002872075206765,4.704802574957726,5.776989165113988,0.7821716883556431
3.218351636103637,4.487964235086604,6.009815029234474,0.357212165925145,4.9184650749842564,1.9757016247536512
3.563225409105297,2.7846650340272805,3.221407208089978,3.4457887432589427,4.919118947276971,0.9169689418374686
4.340927053530751,6.706726732046304,16.33606154905405,13.76621011681893,7.033769560015605,5.519360183472453
6.350004556367812,2.4334691658733725,4.046795920443939,2.5494997174385667,3.817995988186559,1.9364072902246259
3.028693178908281,6.906002760252441,7.205341914016216,6.757580455719676,4.108486255609143,1.1437025121060784
7.530065875139128,1.72330980955302,0.3797277403952307,1.913690402374642,2.620149533256058,2.1770798554165967
0.863086637299267,3.7388074598064103,6.5887298131093015,4.503562450704622,9.62630384044488,1.1497901196367288
4.970139759821465,7.3287577127105825,8.2095326502852,7.5892796125258855,21.48683473083997,5.853997948631058
1.9989622406743015,2.8646206224460493,3.714711931867971,5.57653797177775,8.340327925433558,2.70684165793999
2.30926537660964,1.6630380678703949,1.7541450876780356,2.7628822790024388,0.8836150810340151,1.1855091879889412
1.2807868463597027,2.150783841540391,1.4866243371635242,3.177415224623383,4.966234567231671,1.7795491995489714
1.4069405466883942,2.4456935083728717,1.9737395352986815,3.280498212921012,4.954871219248491,0.9010774165614075
6.994673219869992,3.716793933959757,14.267223097095421,2.500891406905734,9.165559035710809,5.138083619554153
3.929068392160641,2.3253059119650588,4.627256315064763,3.4260510589234796,4.997343153108438,1.2773631536290213
2.167945293090803,2.065599374044858,0.9200170382790767,2.6515540420129873,4.594117979710091,0.6499248748768527
2.619258355956928,1.7354309812443371,2.9111762701912514,1.655959595270459,0.39883635110504356,1.139876806087686
1.5460510419635691,2.923101651271946,4.046006448439826,2.015312900291997,7.539760826503633,1.932124459281101
6.517872843675742,3.318775743614257,4.29183631101234,0.9392823041066909,15.633998859397936,5.694958309605419
2.020871802442442,2.287748394972066,3.0625685024368923,2.544520131486891,8.802719308014147,2.660453487362886
1.4866240835423925,1.0662048385753393,1.9829096495895715,2.4154883390124438,1.7639212272472238,2.0549642179362273
2.838169281747464,4.255365386459733,3.0938068470739153,1.0828044810131598,3.497551775327051,1.1028453165701861
0.949506830682034,3.0987786822325862,0.705455862281222,1.7776918862066189,3.2515874473852264,1.1577685515637357
7.262086116738107,4.600074151037267,11.370296276404362,2.645806957821021,3.152451708449507,3.9822797668324266
1.6562752989566358,3.607404962252531,1.763379223992392,2.5707576598363495,2.8295428614143816,1.4638418088681078
1.7667055671346366,1.5199064304252785,3.519554254108589,1.5550119139741392,4.189899879629433,1.7981944341412668
1.7177340528813696,1.3100230097145444,0.647084075746423,1.7536491357423085,1.497892337724599,0.8962804965680315
2.2691756721724547,2.3431016091181096,2.2693979812609495,1.1635254023328427,3.9180810163166413,1.8504738656044786
3.7225587505172673,0.9732965723349914,1.5708144883638797,2.4760629288732683,12.36699657356851,4.1607751699684234
1.1417483816451726,0.9816697397574461,2.399644439949352,0.9262377007968186,5.085067469576867,2.115722737167239
0.569818108820111,1.4911887286334886,1.5863348657330938,1.1723854874582937,1.081139265703918,1.708106625360643
1.1745105764979877,2.7086542695568245,2.9805574504397563,1.269208712936204,0.7614756455853933,1.383278226182472
2.137631528004038,1.2337827850358571,1.0888359874738873,0.2799083975940067,2.3661536030056296,1.0888134114587638
5.352895127049303,5.73733203174698,1.9113753128410054,4.014608276762819,1.71080087037255,0.794264726034882
2.668588829237432,1.1750861841547324,1.743836337000473,1.5413755843874344,1.177172407456941,1.241050290875755
0.10261497188943876,0.45643913402816977,1.3098042458352501,0.3472850328842602,1.457134769625061,0.9108879061956613
1.2975110468330409,0.583667410307325,1.2466757792434513,0.6415828754332201,0.4481497890425643,0.3883461772346179
2.7421912963546196,1.5295203529037804,1.5026725878463332,1.0989254569014748,1.1959452812122002,1.6905972972645247
5.475835637735994,0.4152231260969337,2.0504655928069497,1.8332782958240417,6.985999509643575,4.00583442215262
0.20227465490019214,0.6485354698139044,1.7344918405780492,0.7777248892474384,1.2926753872631966,1.2199149798030706
0.9199075448884938,0.91058040331053,1.4413689262605642,0.35463551204751725,0.30795203471763843,0.9141133685170051
1.9921840763385559,2.0858191159381505,0.37183960777120467,1.0110651453664796,1.5333690773267548,0.7232977085327508
1.587111664952143,1.5875038504462773,1.818483971712287,0.573735827318417,1.5904600421003676,0.8733249803145363
1.9545278373781934,4.108653691200097,4.46474206734035,2.3936956501453612,3.0977594145528022,2.2161801760628124
3.3689393610801486,0.7293235326658083,1.7836719454738614,0.5959289923222435,0.8511004484014973,0.8032294866451807
0.8920262984904489,1.2596542355490827,1.4065783206301754,1.3705880716696042,1.2576450866705196,0.5563717716414418
1.4542969323851236,0.9238945168369636,0.7370603529478555,0.6897520492599748,0.4487389061147105,0.552898512976045
2.0237737444762764,0.6965301070474017,1.1426901561184821,0.8873648129502741,0.9586064572655976,0.5785776287418921
4.217688767863241,0.6945136791644577,0.8932454239047258,0.4483258182846612,2.6518948963088187,2.50941705888562
0.9159221641934322,1.069726440928946,2.339316224524315,0.9453203212530837,1.6149804579070388,0.717055656458133
1.0708063241559376,0.7895628010488335,1.2390160231362364,0.4721784850945763,1.4568729080564033,0.2499679036814318
2.06326528140277,2.026234877915205,1.0046003465316382,0.34065499461500676,0.6581067182057394,1.21884276875755
0.9765779819490598,0.2094861045980323,1.818552992651035,0.5296479733959907,0.6395401405794926,0.5308056674848258
1.0954148665085999,1.0911904762182756,4.448007447121439,0.907558685550579,2.549801218894204,2.2445013610038616
2.2526930575188313,0.5234011361510947,1.6266325882509796,0.1434520523599777,0.08812454683124851,1.2647613829520885
1.760468602102477,1.7481433114693161,1.14486402312939,1.2293813740350439,1.1015731548995613,0.4863941387017852
1.0424284685666223,1.6329090431438782,0.3953415132507262,0.38026895712500686,0.747243604051116,0.9196633877219129
1.0539854613681898,0.2846408944358191,0.4823139550503608,0.4291216503652988,0.5874748715760407,0.9465407855734562
2.1407414299020515,0.47981586840314866,0.6237269123765513,0.5750656126582769,1.1074462453280731,1.7363075427887718
1.848486057751254,0.7046136177237378,1.2936652134240922,0.6481480705359377,1.7479681964089206,1.0363376166974694
1.1972434119064916,1.10403283102044,0.7404308801109224,0.5531236266639122,1.089634800448654,0.4636486100114588
1.65626008473358,1.914861241817671,1.5186631585679453,0.3300005138479034,0.6664686224233395,0.5508610641701431
1.1782720708783252,1.0499466240412632,0.5767606465495309,0.5210360740113241,0.7042739890069004,1.1139389589633606
1.8695936116789027,1.6933035462100303,3.8760194694044,0.6987631538877768,1.165005141083577,1.6769210357571822
2.3899785399405356,1.6096160493960405,0.21267819280084735,0.27496486830238037,0.6368369336239175,1.1219011505924377
1.044301190900409,1.4705546573410821,0.6801099122340036,0.9401192967677262,0.6408903091614595,0.7653976450442437
0.37096645809668377,0.4167982424154163,0.4415421636373444,0.5016053446861785,0.42721820351562845,0.5740523567600276
1.60571201707527,0.12130151710302985,0.6064991138145238,0.2554890937037211,0.4397693493849452,1.0091988103982203
3.1858811609184867,0.49381147370601686,0.4827998629314043,0.5900207620242814,0.5889487219247876,1.0397102838834973
0.943276344586931,0.3898229428092487,1.127669923383958,0.7501848598136146,1.1159958767687015,0.4976497953056123
2.340213424164303,1.1091900091483378,0.6733529452789395,0.563132123778008,0.4593829866451095,0.4873639173533352
0.3412083308717542,1.0606594937931266,1.1500291016746227,0.2940917319578359,0.7102509603871245,0.07479503657650359
1.3152921761610894,1.7867132860354997,0.686828560529631,0.7570941315677598,0.3524699630814478,0.9683750631942994
0.9197666240837099,1.5844192451172445,3.2688938445704543,0.8546329913594973,0.3957641915199128,0.6732671383625469
1.2614406959254987,0.7303300537313733,0.5195826909559286,0.09537947042314131,0.6174089214123234,0.7078552537633396
0.12743336443302009,0.4605891619112956,0.737448783897602,0.4744397597516719,0.13775989995019103,0.494418125333097
0.7053916176658094,0.10487122556160727,0.5586998073710986,0.48433289038878485,0.2846270971988689,0.544267288814597
0.7331591027974305,0.3469827802038524,0.18328106427112636,0.07953427976304316,0.17533248650838995,0.6573113450718789
