Gx,Gy,Gz,Ax,Ay,Az
8.226853000000002,13.903154,1.3022560000000012,37.589999999999996,451.366,52.91799999999999
5.194526293554995,12.771208134811042,6.069725123570385,1.3555411352588143,2.591636894374703,5.3657532929378515
14.877121184827253,18.601476731323583,8.61493253724127,2.4437245216549086,3.4783718681972036,6.9923343766869435
5.816688406482382,32.56075138316463,12.158655000154363,2.6502529957767873,3.430934921216275,4.340033414067697
6.452048735901539,49.945309385416195,19.48979359136063,3.691395618486577,4.102237593774111,4.84035852240958
13.223771315608465,162.4223589492868,54.15447858375436,9.36242605735289,5.975756830245954,5.334410140292939
11.400846004620306,20.22065109193392,7.705295205468249,1.5023420246887067,9.81535732917641,5.805047895678492
2.2686890204899792,4.620662556563324,6.643609536936163,2.2922561950178295,10.618205315834743,5.704948168450427
8.827563939056283,14.362971173168434,11.793443139200773,1.5758466724153768,19.108284515961717,9.344267812057058
17.457764748238734,21.725262967255386,13.6182838027793,4.222400719637878,43.28575146973101,19.61138198851727
20.70439460349649,7.346918571956401,4.489471960531302,4.566519138551755,67.62968154505913,36.11435782612349
5.288392201633362,5.060678046103449,9.614727274901615,2.6484863990105856,12.719169408458061,6.080764781259762
6.133495036664003,16.27567871830517,8.93548601326687,2.991359166210399,9.26092827039909,4.912417272315772
1.9887789954219477,21.26715900408998,19.76091263850509,2.813274582638197,8.365152705092825,5.75081905415777
2.4926603924127075,32.91877186809569,34.76073927786881,11.285798712240075,15.495551672945572,6.2350779048782785
7.473738892228981,42.34766976390121,31.84872885953415,12.702057319094868,2.859103150180046,1.3704361373754603
2.6954109097866383,13.38751140747375,1.2414741421035502,1.9086830846870833,10.342808173093522,2.3631337389371447
4.004784521008676,5.862814768637515,4.139374963856047,1.0391861814695955,4.625861062438141,3.6035594648906297
11.350373817937607,5.212766825542866,1.7546938173695577,2.7422988623430107,14.22696924831885,13.455558971571813
35.76950150175191,9.882854508811556,4.090385176894272,6.100184614457652,18.872591186294812,32.08685900158715
16.774828649279257,14.603923582582434,4.811354787374484,2.3699828827217324,5.862178252819848,14.922243917065673
5.223378565510719,9.847478648289895,1.1601086808333874,2.3102748368036474,2.58774815725873,4.098061315282085
5.867531185627607,9.481437244239437,2.3746444777330775,0.7818620697734333,3.5732015372208257,1.7751072418889955
3.9752266731489443,3.0160209725972646,4.243296061930252,3.8344345256309347,3.4479341586342507,2.072936785022067
5.399469813359288,13.752608918852054,18.10526947380234,9.507982633510428,7.369182824517691,1.360871852403445
5.107176646675042,14.485410378566202,4.257089883748498,4.598025815533752,5.514500070847275,0.9302160657109304
2.4747730120764024,4.398940447048858,0.4170327629240445,1.3205689933696472,5.191239312529835,1.570493902806155
4.463313745788838,9.573421147457461,1.4714049048878715,2.6965099212104016,4.154303460737397,3.4320072766573535
7.728212949501373,5.936132099068442,1.6125119909342185,2.751531754909658,6.514683707965175,3.093599988031117
11.203487746172096,20.52141799270259,3.593752909171807,11.571635706886791,15.17695504998969,22.96194607643045
4.278307677228988,4.451265769617045,5.231499240493175,4.359767741886039,5.643608233761795,0.5032655600713252
2.8512656964927294,1.848640121068713,0.3567045053426061,0.15213063824050946,1.5659994020488042,2.324290884015964
2.1006265165875555,16.658659847311004,2.5523157277072275,6.07992794283945,5.1440136822655935,1.9362999769154658
4.573047187501192,6.25300474542006,1.8877826591069855,5.498158743060618,3.821971044093682,2.3419830292797505
4.457157451776499,15.345249326775928,0.7145433750135527,4.921400272514809,2.347475627833178,1.0150244452471622
3.3487444091232708,5.401588361410234,2.2721764062748764,6.5306874659339815,4.408175768311542,0.6961421761004246
2.942979776217404,4.3318030986374625,0.6968330792776436,3.4607101052084572,3.4034753083988734,2.450591394831408
8.448439677457559,2.1804730819559195,0.9898145813964998,2.488579792941058,2.6351354965094713,3.9831948671746296
12.011413866190033,9.06832066269044,0.7008547503316381,6.343834159437884,9.480700659558524,4.243202696365641
10.03705668279315,6.990899916992244,2.311276647315779,6.687180821612196,12.25095654984318,9.13695677383267
4.005622477154369,7.130489388662727,2.5979215135777833,3.9713504778622717,4.308052514905284,1.680515718198162
3.0494674010612686,6.196275298808764,1.43934981337349,0.4958927119536312,2.751647324595392,2.147553141428379
3.6593189055816793,6.257423727146886,1.5063463100752639,3.5927990236671756,5.819499667197567,2.6933903283674696
3.943609629349425,11.95941564850283,4.017240648920239,1.6983315864439816,2.839951052529844,2.2531924632393094
0.2636773526549478,7.005633303837335,4.587385358907149,4.091956154195762,2.923274930414301,0.6202186668131741
1.7114357839460834,0.6890674966911813,0.8965504258374923,2.8873623089710785,2.029562408905002,0.5841782372043601
1.448728680434318,1.8199665629931183,1.2747159991707093,1.747731859809068,0.9163618657167706,1.1453515470747586
3.262598749213588,2.031167852730665,0.3685741762300153,2.1394181346358354,1.0424098308924827,0.8722166235665417
11.905650395032582,6.464638861532525,2.754552858263091,4.229077242840911,17.46312932452741,4.153285185940255
6.83713775758033,2.4184948007722475,0.5565843885361548,3.8618286019471384,9.101603930903567,4.687119303719631
3.4319586719997988,1.912210786874751,0.6958667137281885,1.491858978631497,4.299556550183129,1.4517112510010468
2.9587932364689102,4.131209348356985,0.9276878628200222,1.48665873566827,3.580487905230263,1.2141982421122948
1.8176581790639994,4.664811252600139,1.312320094182785,0.31514328400407027,4.101775363773569,1.7584331589291828
3.308995247156846,6.483438639666474,1.0416201751306413,5.515679268559569,6.852527265794699,3.9670276229929593
3.985018017213747,2.7052692271910206,3.7553420935335806,3.975717675766501,5.8161966301561625,1.46280490964983
0.4867252149483115,1.1856862387591893,1.1177226521164563,2.2100322266306462,2.408623048116477,1.5845550959612982
3.8760780584142793,2.8070339445415797,1.8091644027532736,3.066556772843336,5.541837650441717,1.4400960532680993
1.551835938953793,2.5855036181185054,0.3039879192012583,1.9640655897044632,2.2551245735251957,1.3447006916422801
15.430875232111106,3.318257153283604,4.230639393100146,3.7390820095699313,21.388153289580387,8.468555743668922
3.9517394670973776,1.9866786207742144,1.0677186253529543,3.0195756689087214,5.461508507149909,2.8957301687227637
1.309791776164904,0.5881033460234314,0.6059000984341067,0.37850410154166825,1.985300385041316,1.297887902067141
4.026324158812498,3.244116484372582,1.8970386748607844,2.819967764187594,3.742368720723232,1.1185805852871953
3.9558385693778826,2.0148439955301973,1.311909611119087,0.7837360622193293,3.1045471513664813,2.135991612512175
6.558830937180448,5.263375172590381,4.660015027936372,6.0969469193647035,3.423053494375988,5.144364641813023
5.07725271984737,2.8485373147807946,0.8669100553231486,0.9444964191685191,4.7620597044446455,3.143166149831806
0.3862217742451345,2.6001362317586674,1.402296233907817,0.47948935696195133,1.7497100446029858,1.9458617070834694
7.591660518862944,3.8937532788430973,0.9350709565722735,0.6614113714883568,6.429564039113911,3.5573656625877845
6.718340898111907,2.8017573876762287,1.3097744923698225,2.208169455296178,7.142476712956534,4.342834411819162
14.32340959348398,2.8423590025633048,1.4777663957052283,3.286392630316346,13.323299429833016,11.868323876520305
1.9430076259018176,1.9459999151597827,0.5207305197464697,0.6781747296664711,2.1512418072332355,2.3148372077316512
2.074730661578424,1.2766973198160922,0.5736384949417542,0.9891700015331127,2.1147105052252715,2.2748244103157846
3.1465593902832962,3.1830571316703185,2.1944617753091387,3.3160990887014052,2.9892584078645212,0.6774727971741175
4.693774270826069,1.4202873459373602,3.168385222530803,3.179384178088774,2.6824583559136026,4.185705652269208
7.139706780806576,2.6711271972122503,4.524326932863362,3.875118539750499,1.6060901931780118,5.43059126769251
2.8151913056690745,0.1651342717831161,1.1691251314971844,0.8686276535949061,0.9865817535876933,1.788674235976885
3.4730969353265295,1.087920139834288,1.06976305607754,1.0493214723146869,1.3277211315648199,2.2518925683317343
6.262708201629854,2.8342689447354115,1.1260757551457181,0.18375970419930346,1.9645125237446524,3.83537876515812
11.951420599877853,1.6044609603331748,0.21636553500083278,1.510577372692406,4.331470235799485,7.78245777697433
10.129922324846966,1.2387795445176286,3.089730861308708,2.3009434244474356,4.423955317006533,7.916607912597549
0.8590518291059978,1.1698286896871337,0.5298491072994249,0.4323473138143335,0.799960759823695,1.5193912464190764
4.630806523905332,0.5547402699198669,1.7631626283353996,1.448259771500522,0.7535421954960992,2.159789859323389
1.3770362077063463,3.143357678759644,0.7907501963714646,0.9134208284527218,1.2520317422476357,0.6753723352031143
5.4448609092611555,0.9139684764077388,4.94035646907812,2.026030813051719,2.428190402767536,5.174781327541988
6.472830116472317,1.2631537214667568,2.0151139685204034,1.5070370184310706,0.9518716209182188,3.972247517701914
1.0799211202542147,2.4616889764963283,0.3609892666984026,0.794569094423972,0.8880035275252687,1.4883153543979564
4.857897843593542,2.3248739444153017,0.2650913671801058,0.5835256490405457,0.5662518032182997,1.9700535337032228
3.2211269857933575,0.6447539307476823,1.1487003061187115,0.9597323689970509,1.0670579847322388,2.67086306255948
11.596520770600057,1.0890077133487739,0.39604232192421823,1.3904115894457223,4.041240976898595,8.303163399137382
3.8052196437013532,1.3799765273253035,0.49084846372916685,0.8970474021967505,1.614663638856253,3.164631560663641
1.6714318239411177,1.0276861721374693,0.78372192685532,0.4290978614270902,0.9609930945775281,1.5599813585145044
3.0525436769093433,0.6168490270323134,2.0490467260017766,0.06836842437182099,0.9517745978023275,0.6342217968734399
1.0370495385485217,0.9809304261108289,1.0047498002002435,0.1291704405326004,1.4581086717747216,0.8526132104740002
5.593486829460365,1.2788702330022448,3.3750785449726535,0.2529848891621381,1.702925069699712,4.391614129187594
5.141326414944167,0.9096320715634477,0.7786812987262729,0.3827503784201396,1.9115108110206416,2.3285242730303177
2.1733867248193497,1.586871452093265,1.6494580914756978,0.786399986692399,1.1629152942819836,0.7798202169050484
6.196137377812057,1.5496862240681795,0.981661999000846,0.4411525220306464,3.100627390472956,1.7217159424941055
4.526050287421629,1.666336055007899,1.1742149201265475,0.8592337728188494,2.1527710743736517,2.3595843281160986
8.567481370411429,1.8559027026635155,0.6153859152569944,0.5501696565574055,4.239221997610843,5.50361152475749
0.6025363647470544,0.34030030070128003,0.3458147837179826,0.5025061262159838,1.544720879979548,1.1922824870199071
