Gx,Gy,Gz,Ax,Ay,Az
13.174671,7.004867,9.384043,10.606,478.68,73.26599999999999
6.844848331441171,12.716278014593554,0.6242898089250941,2.7956326023429976,1.799853361175717,3.773238663547573
3.7469935938019874,27.821281969466984,5.115656349424814,3.1720657324067947,1.7268451822122952,2.633470885013365
14.368527177632416,19.753891903689276,3.6468238093069223,4.679780586603368,3.0252599166474,6.193332351637066
10.737693294952832,32.63864573844837,4.0063528419613945,4.826132805576341,2.9322693297373834,1.164046524055048
7.763562155543027,84.19955963977964,14.05888251036071,10.38014949555622,3.454328877179695,3.244905978538329
9.15175217390144,122.30804393955124,7.395546410414376,12.847558814263294,6.662035496157038,4.443457734137326
3.700377856255336,45.10307111873719,6.858396997218445,4.596669361425409,6.317927198014789,4.577050370057128
13.165761253149437,24.919342782458322,5.739095662990822,4.473501369444131,9.538846771553352,6.276571739933653
9.269797050012386,14.542417545251968,7.03176573820155,2.6620020239261653,16.145263456160603,5.381985053747635
7.367088481889331,15.791018961922774,5.644121777803509,2.462574396450226,23.83250842566867,6.979255149958217
28.98126432839084,20.60029971489668,8.108345980418907,11.56281889886297,83.22466484635301,55.25269832342129
3.218410163547203,12.973736223881092,8.513084756710416,2.2476214321959027,5.531283250172785,1.8914417728023227
2.176725910715887,2.7495599486773217,9.453654815236794,1.9147290654695808,1.8001807589046137,2.210477483802352
10.267468509657059,12.571489156446916,11.763910943718674,3.8628662783851575,7.514906594830869,2.559733338694469
13.04711464495497,18.457022350156382,20.42734348769388,10.23549324404025,5.773583175017319,3.0109773869241687
21.169339924541447,83.46563407191398,50.53261354984247,34.12666914704897,11.59200287563116,1.238816175972154
10.16893352042205,57.02494893699528,21.524284367488587,21.186571703600897,4.637526683794151,6.035833447186345
4.782961486395767,18.58672544947788,9.204146837565055,5.5150407529744605,3.1424091452347733,4.971000420623995
1.5844034313250248,16.4798553764363,11.791990217336405,6.655538973475104,7.587218777401953,9.424328347066648
6.750513587817352,7.507534901263327,2.3152207721705613,0.8352400035658593,9.81325504836484,7.35733940079057
3.01636551065044,23.370515152706346,11.173887511833156,5.727479311602945,10.42981138387962,9.484034010732772
28.30235662282331,5.021461769632707,11.271429348971752,2.9253467976834413,16.95931586129663,41.45838928281792
5.800895993611051,10.068717814790311,0.5662813810681864,7.06140150795231,3.6831927323325653,5.49742600266904
1.6583620929560714,1.1839056161337655,1.469790235292652,5.355704426555652,6.05963275658983,1.8539009054019207
3.025529299142427,7.141140442868109,8.231534913869353,5.568523201724805,9.718760195003155,3.2657779748378117
2.64761412177386,5.317517904934666,12.161386137029906,7.79076215709894,6.084370001118842,4.4241470310696
7.9736919356291045,13.564971984845872,15.222854711066207,24.335927983844808,8.005825369130237,3.5427559302584863
10.90786751331041,3.312080282671803,10.763501851871705,11.09056861517031,4.724756741771395,5.449517521954041
0.8648333760108231,1.9015119849851014,2.923279331652557,2.812706302288343,2.4069708791646534,4.775301782062098
4.628818397710863,8.359680909933848,2.1705416248317597,10.272952688257789,4.796485145703158,7.347828634478879
8.97534553307088,2.741566060416125,5.307385830652438,1.2468502601608065,7.931152472597038,6.733746084818202
14.64470552819449,2.802334206367401,2.247449294043173,5.279350521219888,12.348837394216483,5.656787260781673
20.667811929394908,8.776774822106258,12.906387670163012,6.788114199467739,25.47808728567135,18.054388741674916
6.043567428162296,1.3749701318517118,3.009877342232363,6.619698400002362,5.983139226096825,4.578679056885107
7.012651466510385,3.972750113084017,7.02484120735047,4.023284719058062,4.246525603589708,1.1591800826883354
3.4469080775928083,8.880024048443998,2.5767711570837295,3.72519949366499,6.582685336489156,3.392304372306071
4.161667624744008,6.3648721132753066,7.957682248226527,2.226141524561231,2.925969176168499,5.289999830934522
6.245610288799667,12.964344759214848,24.903859463159115,2.3082874899980173,12.356749756348698,1.466453172627469
9.45687983517438,9.867933044352734,15.447887984562534,3.1830537091613067,5.151657673071736,3.719731267146991
1.8916624921522078,2.200074743028065,4.462403476375436,1.4482394771660747,3.177307591247455,2.232982654651232
6.351746774608986,4.6849320420587155,8.377040008281355,3.4718319673230953,3.231655500150714,7.923895535215706
0.717326272618095,3.288186861789433,4.193719872013632,6.104661102488037,6.599042917922657,7.477479722760094
4.775422791494969,1.392311658547309,3.453584071140066,0.7837233880242885,11.038774633395962,9.54081221997349
7.940009016467515,3.0092444170572388,8.577685123752113,4.133036268640582,8.118823164988738,8.687490516099835
1.9094613554940318,0.600746671408795,2.8146608560783464,2.851985765152197,3.2941134815181288,6.436800920646731
4.258277344165749,1.9979713119877867,4.547720672634532,0.5169929547180838,4.124880997604299,2.8318852190623307
4.0871239773552235,4.265709401627061,3.93709878294103,1.3931705792193274,3.264140696442908,2.9820253302760404
4.53462946295892,3.799409108105815,1.274707188529332,3.4554754536148216,4.917988655536707,6.3482570745228655
5.6590027546094355,4.001090721598303,16.92424519874646,3.6118137664482695,10.214595677006756,4.849956100896557
2.4221653052981758,2.7221566264147317,10.340670331201704,0.44730829202698164,6.586181468104289,3.9892242600865515
2.1206368519132837,2.301984526265871,1.586850194038877,1.0074280138599985,2.0840348075520008,0.46532400929228257
3.1776409417786615,1.0252975923395151,3.35468723413097,1.9852182431675471,1.5373563112063673,4.765309991866347
6.972769006907642,2.870326470660199,3.972607350959,4.778276272693397,5.665505073204208,3.773279199495955
6.580284170071025,3.1161077086211635,1.0636153999344165,2.0100402679744667,9.387339174489993,5.830364731928957
10.3789561603109,4.504845111916476,9.532141914134183,2.64800390185393,4.839599061038403,2.783954045199139
1.1066405329165914,0.5237793713058707,1.3000137537217378,0.26620298701368367,3.6831831808389213,5.248077913685378
5.303266215136287,1.8010037152440335,3.454340851559858,0.8675193334373803,2.859801182814527,6.477712474124355
1.6735997897293804,2.1986684423314053,1.1948374414010072,0.5484048114541921,0.26701140630379294,0.832415858638904
5.132871813397919,4.351439398538877,3.2026010633156576,1.346812280163785,1.7646073135220466,4.906427131470442
5.577771277578433,5.3195747209352335,7.239622030134823,0.9500262097424309,2.1623629047967095,7.164849582408778
2.3360666183493928,1.6518085182839426,4.164112652547697,3.3615725171169903,1.77068440453088,4.620791962029851
3.2601975267337715,2.641814439422881,1.1945612958275453,1.475726452739489,0.4792944529112695,0.546145866208573
0.8746270232941821,4.685523274005514,1.4039723591620898,4.279394186711733,1.6676491349557492,2.4165373333526423
5.201917504174238,3.423730529506447,1.3845658434108519,3.267327586027475,2.3030440686747857,3.318958140541571
6.90719392674614,3.90818273808697,2.638602853190461,2.994918555096348,4.450695572968768,1.6133468976870646
8.743280070481555,5.335613366744144,3.5986639538092895,2.31101984744695,3.494978089956544,3.3200718699322826
3.2500946750131035,0.8306683403407603,2.4577879221209664,0.6066951794154436,3.675570438609683,4.942861429918571
4.245450865706182,1.153142867100918,5.8704442575087725,1.7622909615173326,0.47081349044194293,5.70719588194138
1.6981805668368497,2.839791860793011,0.8171043033186595,1.5126822616648952,1.391587575246534,2.321345074828445
2.2908312774759745,3.460091689058886,2.9271633681311697,1.7972121690611949,1.4856407082798433,1.5185710913142707
2.7617815102037135,5.577440737286586,2.7565069474619155,2.0210413517217285,2.156565052066622,4.672321483446051
3.0800358586582983,4.022802743915538,4.463885717241469,2.786905332156836,1.888121520141814,2.48312984354612
1.660045878413274,1.0547223737338365,3.3730028352189843,0.6054947497557028,0.5375701987810105,1.9222819256449775
3.0814063636287323,0.8507420448761992,2.9633874399894156,1.297751967178234,1.4484991358349273,1.5037141704801453
3.9962389264667104,2.3567923122473653,1.4435606844999338,1.07338866556814,2.009110852115687,2.228888362296254
6.002457192114329,4.949721041565831,2.984990465534328,2.0007676956840723,1.9113764244676463,3.0566007879046957
7.023784547985626,3.2739586269024348,1.553115293181723,1.9193607077141175,2.065836650016797,4.721613658240074
6.276862607505516,1.0372698072038884,1.2689858455486371,0.9954480112780301,1.7765307287397782,2.737122058155284
1.8072373676801763,2.0897262772696985,3.955753561987291,1.045390780585378,3.12878612803795,3.055178292873205
0.6229986770684188,1.4921418870573282,1.0219435226718747,0.47382697263874624,1.1743917574642693,0.913763645588945
5.714368941436578,0.7380131706601974,1.803622949056863,2.486271129085385,2.0062657330476616,2.959082430836969
10.075613853998668,4.1345084858097865,0.6718191211298968,1.2057471241520805,1.1130712870117472,8.340558947217053
4.247916735080834,5.685198808333949,2.6498650027294115,3.2243340271876177,1.420679948499522,2.7279873622375277
2.242650878627209,4.252725428960109,1.9093019900617478,0.8032065474187361,0.4296912304658208,3.0442569719479264
2.062484611436558,3.7401284745937087,2.100960765756067,1.757633415684441,0.8804235194230504,0.6151123537241582
4.224077258210101,4.515829641993287,1.9834607759145095,1.3539589916472,2.762684891704798,0.7361730924614834
7.892881398020894,6.974277640675732,2.8558336368343626,2.5089561475693647,1.5356644207110912,4.506171582651675
8.792918853788317,2.307646628921262,1.7251680779978336,1.0029237098543933,0.8186657658953519,5.170028411676572
9.504405764254892,3.2023405878256934,2.2244962078206116,1.6958873305051632,0.9604982767823589,3.6107989899997195
5.298374584468463,2.630566493517627,0.6569057067530334,1.7515938387191627,1.4536509444839858,4.66057918625704
1.206125323724579,1.518496142774388,0.2996011946280971,1.0234444275115322,2.4735918198053675,1.9872356765982722
5.7031941852015295,2.5148156313286276,0.3482424084339805,2.0687558382403974,0.8396280453276875,3.566026663773445
10.943612550546087,5.449977907952854,0.6696702380537873,0.5473346566244154,0.7129859404481244,8.005663587851235
6.7645491980670815,7.514627322291692,1.1646930255137504,2.943788146953674,0.9617711632304021,2.206260432778635
4.145648114699595,3.5233055319355713,0.6933305646157061,0.3247035135281748,0.8547926668773455,4.21997496542682
0.4869861755752335,5.083280398850243,1.4404611433250214,1.4133778324136168,1.4319007076470676,1.8874785356963328
1.8973387695282362,5.138085213005545,1.2089224210222633,2.613932846670999,1.6474774495603002,1.98438247184078
11.33312855256949,8.37800048238492,2.154176223641848,1.1960035475484534,2.898087119426499,5.728374404008222
10.46870704754169,3.3537025137599454,1.1544507180462094,0.7020237722920896,1.473695589646072,4.812717967183091
10.745901856312534,2.4711819380430966,1.5516854740287465,2.4228555176007887,1.9844709060922774,3.213724159823068
7.551005907945097,0.9191021066873077,0.6196231655729084,1.0218790314382729,1.76187403158345,5.173095260569234
0.689812063483289,2.516992335621692,0.9207162381736894,0.43513410840571337,1.4004836601963455,1.8953959844798063
3.951848843698688,4.519226518581293,0.9410557446630599,2.584869847201101,0.426329673035173,3.9921516186206225
7.529164088980121,0.5752589632672609,0.5282016501686306,0.7205927210562516,1.105456930461484,4.0430672728818084
3.7086699104608156,6.130030135666076,0.6697049300593433,1.7855497742389552,1.6333488615193616,0.6207766484399483
3.2731652046200614,0.7352026611483921,0.4996356261488638,0.3934542175173795,1.1747062430111506,2.702812233693155
1.6005409261450394,2.7907934143371045,1.0752718292991121,0.6949573465661313,0.31868998680796184,2.412439619765039
2.8904786947908363,3.9554067878459804,0.7456816767631926,2.0235191318820553,1.085112701983871,2.1247299284672927
7.873185190288094,7.499305645706252,1.1518343336840537,1.2684725625127076,3.027146368987068,3.1341677806085744
9.55333221592852,2.294012328655629,0.10147572530012136,0.48373885720122817,2.452760512759233,3.6884984897546396
9.231066038151301,2.8507375635151595,0.8087689082194737,0.9383040284085638,0.816779800184685,2.2096742383740016
7.40003375599183,0.14873031715578186,0.777395932723922,0.4728281333185509,2.1634248408945824,3.789114967899212
2.5830219231419265,0.5411774380257135,0.8688288571638896,0.8850066270903882,0.3997832841436978,1.7116360862433884
5.468288950485561,2.0242283881983822,0.8670235729669684,1.3309431181689384,0.8574070227662169,3.9221321578111454
3.8719011397525023,0.773456031657256,0.309321411041578,0.370754380167182,1.756780978989854,1.5253546049585556
1.4169387543597487,5.699974348751899,0.6314136971303211,1.7448480783957008,1.18172626963826,1.0525967605810633
2.9686697631978576,1.9779781810152595,0.3415408554656692,0.4230693118039994,2.0147622143949477,1.6031432972734123
2.4361145887621682,1.3543834348429131,1.1822408464762055,0.41842675690150744,1.6879312082911688,2.430171710072002
4.2405135100433204,2.6727718993467073,0.799223765249334,1.7602063280922902,1.361779253824611,2.0361033009732226
