Gx,Gy,Gz,Ax,Ay,Az
10.550579000000006,12.386573000000002,0.6538950000000004,4.1599999999999975,427.486,21.19
5.4349811414461096,15.175090452021188,0.4897992091972838,0.1610330594629109,2.917085468680736,4.538247823760297
4.296046366333269,13.824188718090973,4.449108505331989,0.6354923267733161,2.3039216537176417,2.5405677131237696
10.100875115908535,17.361950566368517,5.951656166573968,1.6367026393444728,2.6510456890833254,2.7850227370419476
8.112293326882984,27.418161431204467,9.67996367375068,3.215610068659984,3.6137297977437903,4.046354016509704
27.277823992832747,51.321732800937994,38.82391101293363,13.302382958904019,2.593726735107516,3.028742191132667
10.0621502887154,9.494984983649408,7.297697899481308,2.909803038882034,6.254938151116528,4.308316835166218
7.627378022698695,4.494912151074213,5.847694133281265,0.572192074488763,8.697661259898144,6.089323218367975
12.805074885317849,14.080868327134766,6.3070931778495,2.523892094754354,17.642832876599353,11.150539256335378
25.785621766505447,10.093410430022452,6.062646526724557,4.949548081992661,47.437682034872545,27.376682654392326
45.27153174965991,12.541796948222682,2.9686848397868384,6.22012875877359,53.02843490869677,36.225698613921146
9.43887320310044,9.040658307376306,4.383322810085146,1.8203705854385788,11.24090242339863,8.044568087682622
9.403777829366476,14.79686131598282,10.10536969760886,4.967734953913428,10.721912672733396,5.5253989567036035
9.808013160918405,24.544952300796066,19.86413283073968,10.83684320308235,7.033112675666445,5.011614513723617
19.46625718578747,100.7671403126119,52.927533138351784,32.63112221040657,8.704171575113127,10.583965726969074
13.087641740278574,67.24753382856358,33.39341422514225,22.754098493133476,0.8016113953777803,6.870930229999474
3.9280675609242426,28.11889923405616,11.535066166364295,7.20653253648917,5.693554598379098,6.232200100938814
3.6420647110480395,14.04383338645539,4.139284564159526,5.066838522866853,3.176374451340761,3.8974125197893144
2.411419003028845,13.107317394246833,7.84636154621324,5.209898960868021,2.8818088060172937,6.944871217390611
14.917850446872457,24.060377602153036,2.0946097202261673,11.98054172144667,6.369021100317373,36.29865757144234
3.789567161833362,3.515393132776367,5.452913627359974,1.8108214694502704,5.091968436400518,10.593623199506833
3.0847281307704764,15.77874882861968,7.025587690022115,9.501764129124942,4.888706588663101,2.4321634864339625
3.799610795990473,2.9424366832786517,5.865098798238906,3.420064373013732,2.8219217056910826,0.6360311128432511
5.915940849464413,12.327477326148369,1.2186330085502455,3.7958007344787092,2.918867402483095,1.0994797363924558
13.560173824747766,38.59272138482802,22.53288391966064,42.52851371391522,4.40630486120975,7.299491779435769
5.216933573185775,9.176824211247215,4.875380019056449,8.0134892227347,2.3020227570142873,2.994238343047202
6.150678763126041,2.2657205599825447,6.702487391472641,2.482272228016892,3.9401458060604444,3.5685690184992493
3.63682240959624,4.440047736621107,5.115601961300084,1.3205548719966071,7.62446628195315,5.767517524352434
6.608610961956847,3.834674088105468,4.307799853409832,4.7430037376694925,9.192583783016426,8.837813979936772
26.830135159692304,7.576044820990564,5.55001361876605,3.1806229263526844,20.19215407184916,20.11302938619551
6.034518041548006,12.281559450623888,8.64540878278498,7.072859821495081,4.185961694210496,3.2946705082165586
13.20057612533102,8.418506385325301,5.304123978946887,5.560124208082481,1.9805219528560096,3.3362518497564815
7.288990815693217,7.607180822099257,8.270510114486488,3.9728384222296667,1.9696243002850107,0.8925512339809456
23.772358130317443,22.836366461401457,20.03660983187746,10.192577659791857,8.29671525339188,1.3080416764331875
19.386291857192706,12.977436367069652,19.587318586362848,10.382032659795097,6.925761621629052,1.2264279737750592
5.90689234263346,4.367721665604206,1.3502507736606029,2.2426661620396087,3.6836189923555738,3.390512342027547
5.171570569012112,3.7707536356730835,1.4254582721686975,1.6682096870845138,2.748099606857901,0.578871930580578
15.648795232745359,4.272783823915264,2.0930197458104014,5.364262390312483,8.947106647171074,6.526249505066577
35.01158709594686,13.251098989694695,3.98680452633697,7.617421314223417,23.32998655948091,16.04143508776649
23.752342799236228,8.826988608846507,2.658625908524696,4.284017450333869,15.778484366675547,8.591475984218734
6.911851873880817,5.379902365831758,4.83388359707763,1.3704486191421092,4.575621555101423,1.9279489139741761
7.392859817867438,2.824774935617852,2.332412885428239,2.434356320581464,4.622501302273028,1.6202899060049403
2.2565365835448428,2.685116247041441,4.765888206250395,2.712411819473473,1.1680204832418761,1.5470394575646031
22.23022015328385,23.42660323857899,17.010850602458984,15.543036858129264,16.498537088695347,0.7109042436261561
4.00406412785099,3.4829867626943454,6.954407732381377,2.8911611535223325,4.528351775332567,1.4498033131893548
6.886754325448873,2.7888080591240945,2.44632840133218,1.093426280160138,7.750075604745125,2.164291428562061
4.83804733507946,2.7937490699225775,1.0170749249636037,3.1310049276694163,7.823426387551763,2.0535504396753317
7.666349191476832,3.385239613927431,1.5582454815206481,1.8129200643902232,3.989951496505185,2.3126416811112307
39.08722156999103,9.595489193048085,7.459843943861913,4.336171335533733,29.42788247003726,8.509600666974888
11.617960974923013,2.3334220045071032,1.8843179928653246,2.025222008510354,7.267840900849918,4.107028223163666
4.828912707867545,6.823971948268787,4.440350228006932,2.059079446328287,4.029149091287838,0.4454702452758066
5.038885972556842,2.825653045429038,4.286131394816393,3.784392368317764,3.217510984419659,2.8443531914074414
2.004047366795613,7.333927736027957,7.343664131894514,3.5527785898188844,0.8893995544087433,1.7007063074217594
7.639755840979199,7.275918252724954,15.537598524718307,6.57808675288753,5.365249245873418,3.4251875310488313
4.736217534041042,1.6861478643416372,3.113271736347791,1.103840494132911,1.2179818840300873,1.9563530744763777
6.477612466747123,1.3599659496652945,1.3554771342791119,2.325658979557238,3.970826264612967,0.23689237431244445
2.0259216792777868,2.9230827014466567,0.4316918255274365,2.6701725713057107,7.651881772022173,1.6807113932399542
10.184657751441065,5.849772514021284,0.1569009502734872,2.9085316958797733,12.269967515595319,4.992418395364908
12.674178332097455,4.077173329034727,0.2738836207064122,4.176594756063017,11.795357788176775,6.442923671915385
2.810234638038459,3.284692523988121,2.6574181097586553,1.147557057335543,3.02154653857901,1.8822479801255356
0.8456328377026758,2.2051267770561984,1.3443732922879275,0.6296805280528655,1.4481373851805783,0.10488472623753221
4.198627578380444,1.0538077010525069,3.7297816124761014,2.2516579572192543,1.4500272862848984,0.31902359043330003
8.542530957414947,9.238208313103575,11.238009254943485,5.054711723509386,4.545665307567093,0.8714187466146865
3.54106373135033,3.3053970975996037,6.351803289135099,3.1610827456205315,2.4267085528097025,0.39329870557797786
6.4835717426001995,0.6082439091887294,2.9282354717894936,0.6464383622072423,3.60751212193312,1.9400366026085438
2.699404808700293,1.1133998866036972,0.599523070948785,1.3118094039745956,2.9488584743122934,1.8047246389325584
3.9051416922771063,1.9984637132559944,0.5134027091670349,0.9599560064184497,4.0158177143390095,0.8234516866898169
13.325753967193547,4.2401575809230785,5.2088244212105375,5.509035655849978,9.013306306509683,7.460381291084626
4.54784000194695,1.5931951190821168,2.6712820444108645,1.7094279783965063,3.717055964156966,2.8950371008692644
3.286102974317286,2.673663085416784,1.0023442222216339,1.573300192726561,0.9907218627092789,0.9700880412041728
3.6031200184145535,2.8874203383722112,2.605088888995224,1.151589888731577,2.5927413912291155,0.47640500180059175
2.497913457550689,2.928752526411235,2.14318275500594,0.3987485552619861,1.5839939631339839,1.3219587166044462
9.260837110302404,6.79776936621693,8.49800293312163,3.5401769878258538,4.741225513224452,1.0980800474278236
2.4142664893949415,1.534390494493128,1.6996045971076237,0.35297935428562854,2.296768299857789,0.4657267694169407
3.5401726070042536,1.1671979717182908,0.8084069553445724,1.144563014989443,1.6174296554735341,0.596309617217397
5.094570876560486,2.499502424550531,0.4753666674396076,1.6894954245900011,3.4894865772559984,2.500572766458792
5.597513312780733,1.4354103424139129,1.1503145361074596,1.5399171490911587,3.8022184561788355,3.0732862214187384
9.231091109982112,2.984121163866471,4.742154050367656,2.8136224793913165,7.241844635707518,4.830556627505204
0.664441500732165,1.1257988439580864,0.9055397476444959,0.4542326868810311,2.2354396675878876,0.8477166837371991
2.789359033617319,0.4414582700269997,1.4247122645685801,0.2128719698349341,1.19049386454462,1.1287125269770486
3.6115149924964887,1.2014094347642856,3.2702204651856124,1.2729718155648702,2.9900463824191266,0.8143206522580548
6.899585154955305,2.989625215513121,4.152256469520128,2.2547299601396014,5.105502756601891,1.6357460311447032
4.194180405241731,1.4704844892341613,4.088782736893128,2.089169104819032,3.372746035544948,0.8041770145499753
1.9718913228081636,0.896792385094734,1.103381341079371,0.19939643956437086,2.61397491299392,1.6637846827141063
2.1447973851074806,0.38004632502384555,0.6469621285228897,0.3714423891703956,0.6525392452555137,0.6810275432642463
2.4527231368074496,0.29757073402584694,0.9619335840522667,1.0413660955647575,2.89333713472369,0.6308702932422456
3.4201865515739303,0.7284314600043059,1.4358333301335648,1.5325909047976638,5.391051815786617,2.3132101482996954
1.5475722188975007,0.10852723312053027,1.0112191852798167,0.26428781702074183,3.986119230623499,1.1293565698986334
1.5431989910626642,1.523219589999253,0.4471218121157064,0.8086980056505181,1.4606237093489611,0.5791584963329179
1.4256414924044787,0.29937262445739077,0.9164096617857542,0.39389285017774633,1.5799933213601374,0.9706731969078497
0.6718766067076212,0.6185497314218664,1.8423231164059977,0.3828478429434195,0.8112911909656431,0.8361953445547596
4.574351395477037,1.5739298691238455,3.656431541920212,1.9622163170719502,4.169977546877623,1.313138632755838
0.4791387213226499,0.716655773755689,1.4185535014152455,0.6977707554950953,0.7838060587535334,1.0432930844434076
2.3389712286561823,0.21969710416588312,0.9236128526521126,0.5484133360812895,2.423137151004207,0.651667134519417
0.5477810024388923,0.7805460418782784,0.8314711173874069,0.599133337531942,1.5935814220281534,0.77973341585319
1.5294204562998892,0.4026837275980137,1.0728234469709326,0.39666369202609153,0.7715311050557759,0.453221959839876
3.205271194570743,0.8230391880675894,0.8417249876302009,0.9045366227396113,3.4582558234645435,1.2728227691188836
1.9710155130411315,0.6221905496383402,1.3757512773762042,0.47309939706235504,1.19467742528776,0.9522590001569899
1.0140636171496142,1.3794563731228557,0.6655361762172993,0.5685652624319149,1.435229065413855,0.25983371023716795
1.5182439298246928,1.1455865448795879,1.4265556101054548,0.6945630451210043,1.2768531633110338,0.6580580985805901
2.561852008545426,1.1202911181246062,1.532448184433602,0.7425530088596682,1.6540178043841285,0.6657861297250097
1.1633045390756769,0.8492160077080831,2.1989102911020817,1.6394220375311244,1.4834338718208582,0.810833342727345
0.44981377723521665,1.2162130885002855,0.4511896113986419,0.4441062229408668,1.1405477711511296,1.171379492130746
1.5118484109149781,0.7706729039330581,0.9017930841176759,0.7018840140526604,0.7735928460778965,0.2754820656528682
0.2309137022842272,0.4142631740173871,0.330405122782235,0.6654492194589171,1.4027392392646532,0.6066699566228769
1.1098822874674221,1.0640433160848186,0.5398486690627069,0.4996323933253749,0.6758680918258634,0.8078739283718902
1.8445545920935598,0.571130303235233,1.3608890036927053,0.4353090192455564,1.7212103118747044,0.9727392829403582
0.27539234957044123,0.95421600739119,0.3039560457158728,0.2476673415259659,0.3427708146035509,0.8059319001494198
0.0,0.0,0.0,0.0,0.0,0.0
0.0,0.0,0.0,0.0,0.0,0.0
0.0,0.0,0.0,0.0,0.0,0.0
0.0,0.0,0.0,0.0,0.0,0.0
0.0,0.0,0.0,0.0,0.0,0.0
0.0,0.0,0.0,0.0,0.0,0.0
0.0,0.0,0.0,0.0,0.0,0.0
0.0,0.0,0.0,0.0,0.0,0.0
0.0,0.0,0.0,0.0,0.0,0.0
0.0,0.0,0.0,0.0,0.0,0.0
0.0,0.0,0.0,0.0,0.0,0.0
0.0,0.0,0.0,0.0,0.0,0.0
