Gx,Gy,Gz,Ax,Ay,Az
11.229474000000002,2.016108999999998,0.9011610000000004,4.679999999999999,484.90200000000004,162.472
4.2331465136714055,5.8961980695154566,2.9340802616854242,2.3953829726426634,3.4943434565509564,8.009409769772542
16.394208361238366,7.166397946989783,4.19035321981888,1.928861957373619,0.7522474104976743,4.222495337214934
16.649663774077705,30.859943118675684,14.07318131602602,2.898103969808046,1.0749330234616548,5.168573036068916
12.413548302652549,56.40302211052236,38.38222407010723,5.36313071410417,2.176146958043439,3.1996767743561882
9.612032412663584,74.47483407940999,47.03983573940662,8.370108454179237,1.4511396282752251,2.008626252475294
7.950964516725654,7.74490082716199,12.905338997603343,1.4388026150285749,1.491858795417836,1.6012226359672643
8.535690376523167,11.529594628157428,7.428633715433918,3.341122009071578,0.7437420877945642,0.9881449254427245
4.5135464942623935,18.84076426472307,14.763903190014126,2.6588197944246073,2.619938884747824,6.4748583108958595
28.901386286575416,31.863396394151838,20.933158809619187,3.5902948389544433,66.09087368471299,61.67552621056484
4.765534662446144,4.27140996181741,10.771451831744777,0.38488636558977773,5.569066442456832,6.000696402149797
5.690736581637734,17.775364230692553,15.102669666910522,4.89564909359494,1.4762991983410536,3.4042967024006403
4.82936621867074,15.10368253743523,34.98619964225154,1.3449851698848954,5.2460904410179765,3.052043916197865
6.358503917412303,35.29191818476983,56.92757353545554,8.87408159960592,2.8251109773564647,3.1777265811072586
6.8287429469615155,49.79652551258712,86.57497930965337,13.898793974805626,7.04276488932281,4.667341972278143
13.537131671996809,6.66873785873516,25.83723885730038,4.742482120739969,3.936807046246752,0.6588053592556427
7.388803472431686,12.192394280900972,10.254065469944734,6.18627584888432,7.810362465761658,2.527174888141242
5.4479570079198565,7.702801089807629,5.304141716633327,3.6573079528767294,6.94002592407733,7.65214447873802
5.6287850832142405,6.170470082619481,17.829790755847355,4.85576118592932,32.59651382407914,29.611288048317405
8.704128490395409,7.5820457857062795,5.735328095659867,3.573803881756647,6.3425838136389725,6.8750113991864525
4.616673144828884,13.14230535798025,7.071105748006185,8.219071604505578,0.6770794425486745,1.0324750961920617
10.461376586913381,9.781450836197708,8.807539751713803,7.685235185482008,3.228192908180063,1.8576235092966642
8.971046596663854,17.99953735632405,7.445946346303271,10.621190212097293,1.8692053401441835,2.881678295163452
19.662063864918217,9.31560142014415,7.655469827124009,7.989353935780729,6.645693046324617,4.712406457997251
8.999588896473087,20.16413353517693,2.7566575665378603,12.920651989637618,2.7018204927174096,1.8438931358300037
2.553428004292349,8.544495182377586,4.363277748922977,5.559165791091435,0.5920733533517419,2.1635370334603063
6.10773012248463,3.9538769854862283,6.115921579792684,2.3725618357341056,4.952130756380117,7.440686016105352
16.094808625850014,0.8291468512823638,5.249200948041487,0.8002465254685192,31.14203911587002,16.43319811884874
8.189449888086507,11.20133721249535,6.754553920641835,8.11030876196261,10.298596293665744,2.67612689249673
5.615702928361309,15.780891104037972,8.593352443151282,14.638749470497673,4.8997427816294685,0.5989011166193393
7.156227463246046,17.717662933602718,12.231788827134833,13.397139557293379,3.3023023464817873,1.0907553808961075
7.527606453960665,6.99023429020597,12.465203097842823,6.563820560366343,1.602837287503663,2.7922876878739022
6.011470524665478,18.213819793853073,20.71129023388287,17.939561361197608,5.913981434821049,3.914299501878851
8.348282860341454,4.2388558853710165,6.6351620085409255,8.235762781850536,1.4492514073097529,0.630172281959759
2.102586896229816,4.449997245487227,2.6115630894838877,5.076338312012301,2.431630324544085,3.0222449396820026
8.086148666369958,4.006271458471381,3.891633130962572,3.390002988286777,7.130789196580721,5.287703265537132
5.657000569251619,5.601578900044511,4.977073563882647,5.037887809179951,22.936733023581397,8.619887546101905
6.51896189343981,2.6818086419886007,5.580453085941371,4.056923268491242,11.44240722517161,3.6153787729605127
5.213988595070434,4.249361727437837,3.024582986812036,7.445865914760617,3.627025659292204,1.1351535898435572
4.163896951156857,3.2052566167328655,4.285299945984463,4.7829531076268985,2.9850893618430914,0.742625303142076
2.386485963829201,1.8577353310024272,4.5298305623913775,3.9345092742590815,3.8658621937625495,2.382858063643607
4.258331955049547,2.3709236639083375,10.536757970612063,7.91201997613887,3.7589705653621475,2.7603370631932433
5.684425768852619,1.6113653189722776,2.1708443390943573,1.4800957729149766,4.45674290709458,2.053730173834567
3.0756286825552794,0.8302542668097449,2.8235362941327304,2.575765124355911,5.950018112474541,3.05081948966958
5.591783814347057,0.9700200639030688,4.924812608138803,1.748671472823992,11.664989524370348,3.1336488968901755
4.121604879229864,3.4206018926558257,4.1903032717979745,5.289963186360511,16.793250617696053,4.34239208132048
6.515144921372066,0.5879827110170908,4.634134469413944,1.7350922568208138,8.784274742916695,4.718627044500379
5.411967884780481,2.256217259643424,1.3305685337721918,2.7664688191618416,1.384336353044814,2.3479395591052064
1.1231627791572565,1.522815253561798,3.8893790663187024,0.7303761001369943,2.576413986834101,1.8705291822762142
5.446350665884272,1.9519524237412877,0.7762446184760775,3.9752687022531967,1.388035525917999,1.3436485346177238
6.114251831251319,2.9555733386432945,3.2480862669473556,7.435691113773218,2.284341804056904,3.740097308068586
2.751565497263459,1.641012366907398,2.0021500723719954,2.115942498484348,2.682361940356375,1.8478195489752807
1.3108957770636536,0.7755889686449433,1.9943250504499612,1.4278440343798044,3.681379728370376,2.8615245280404427
4.277104620843883,1.419044695299679,1.3997622278818969,0.4442662236384727,7.825470006299139,2.755638998694957
6.896566828470145,2.4688150454440643,3.340577766088798,4.795472959204769,12.538284773846192,5.674094387907838
6.566435050466815,1.9894108826637535,1.566974289064585,0.45686209611860973,7.161329680863959,5.609218867983635
0.8389037642469169,1.052210628575741,1.7050126394735314,0.8688689784341759,1.8203548721817704,0.948327712820639
7.173471784487769,0.5245614288176688,2.2582088368657365,0.7351967473454343,1.9438977818037473,0.8631504353791838
4.734417612695162,1.7600541911636145,4.402089893472252,3.823128906309975,1.7769664048565854,0.5829725433383399
9.619252942531476,3.4331286886861636,7.6115641645504235,4.49370718124399,0.7442249466422839,3.8281015734108204
5.660269166991115,1.499640029356898,1.3012822808175044,2.867411000177693,1.2302003618145165,2.0947688601196397
2.0867868511582053,1.7392066438804716,0.6007453731679838,1.1837501218671524,4.821695934014384,1.5678438056229695
4.575731117691689,2.691058186500297,0.6871964967191089,1.8071279462208236,3.7919369848502242,2.3500389534953836
5.170235385907648,2.0354751261712805,3.9946374269232323,3.1067362829253478,9.393806791202001,5.983243601392518
9.15586180128185,1.2794350795067513,1.150024020061685,0.9379129159677715,5.871450157026547,5.199344645726126
2.506679964656406,2.034208199623649,2.384981254607297,1.7257863111192497,3.053275084271888,1.8690826179601174
5.786925191489981,2.076683524794349,2.022344520798658,0.9525323723470689,1.6348707321370217,0.5149238681346594
0.5224024738579984,0.5056336354966464,2.5563797461273814,3.3146790459906343,0.6507353412024561,1.3723601109668473
10.113799075346657,1.87530277050255,6.648363209820678,1.8743983931082815,2.290670341429863,2.463244616192561
2.7736109971428813,0.5776462132385799,2.3931098060396807,1.9370405074991546,0.9820163067345952,0.7064195546750606
1.3452516166872557,1.0763473014488742,0.9596311950901543,1.0845806359654102,2.9489267378646393,0.987397096159114
5.108300899131449,0.7107352742432703,0.2916205259831228,1.0437674171993998,2.6382446224045935,0.8390388118016634
2.280460898137778,2.5515859643808017,1.5437129275795598,1.5590950792509746,4.312669081780859,3.2772727410284226
8.403752322827776,0.9728773066286023,2.486362554153425,0.720946035357551,5.979559195112372,3.170786532089192
3.0331251324324877,0.643343849968324,2.0281470008296707,1.859340657729954,1.923274747258967,2.4736405112247315
6.203476956720921,1.841451535015411,2.1116637728742993,0.6806134775240491,2.1017817090691153,0.17248595033038006
2.197570424199014,0.9238209392034422,2.0043005203007107,2.418425472455012,0.5366604072544802,1.7833320451291157
2.9851703404676173,0.9857036058203019,3.572769031920422,0.6069842735793928,1.3093000497585203,0.4398389359689128
1.8613213679119873,1.1835915768309093,2.1979589468048517,1.5478472214747059,1.166719067987821,0.6660095911769316
1.6110205054093825,0.20537734831557297,0.7297727171346596,0.39397409758343105,2.0457748628986816,0.7095259855633963
1.0742159065435406,0.2802646884506255,0.49407305742177404,0.5402405391635455,2.066143423424749,0.9687522882945173
2.1345034149442945,0.16110630064090162,0.6779647791379549,1.2107128064277708,2.7782641049031,0.6942277136371788
4.046418388594546,1.0849732316362026,1.3857848679263325,0.913240959476226,4.850718996139769,3.2222614973255603
2.047209466187828,0.534578431878372,1.286878308307818,1.5436346043844889,0.9448748456383013,1.882413629196272
2.465353648603119,0.9893445167508377,0.8777401793581003,0.810146098270973,1.9640772507254527,0.335672924465502
3.1637314067643114,0.7817631253610843,0.42157065227701174,1.2543589469123166,1.010080609994929,1.6781084655871148
1.8589622777496186,2.240089296457099,0.8102652411556375,1.2471496279339813,2.1268104993429353,2.514068129285665
2.919713107776291,0.22646410251946592,1.191343240568233,1.0067616588187056,1.278431990174382,0.8446684624311546
1.8699216590699823,0.06402517354956273,0.6399125101057335,0.1588610025345463,0.6391775342076482,0.9738613116781492
3.202305679224487,0.5887094435052662,0.35091464447398857,1.056156040470551,0.8621945165751983,1.8771078866185453
1.464098602998009,0.831235729359751,0.6230626240598166,0.3976470957365351,1.1222976476602982,0.7009150588038893
4.92658511600973,0.6460395609028631,0.4103860622115647,1.5416928406524684,2.9318507619174246,3.5333739887779347
1.10649396886822,0.543661549753192,0.6190978356975084,0.49049027216930985,0.62382717157506,1.2316544097178874
1.744926616190037,1.1053275863686762,0.4152796498605166,0.3913224980329137,0.5219594979494151,0.3591659992146001
3.7026699091192876,0.3952051888882614,0.4675825383212802,1.1599645241167347,1.0900613295499029,1.100097796774417
3.4867097011310535,1.5321435250928286,0.6866871805329559,1.1368149428731484,2.673947576701217,3.205982904665586
1.9780910068023652,1.6178851761457553,0.633226719017325,0.9969297124220355,0.2058667655220512,1.6018816019793727
1.8664498810516577,0.3200637987116046,0.3373848497198212,0.4848353817799523,0.25044676748766687,1.618264839056779
2.3175853761121656,0.30593582582847517,1.1821056776476115,1.3515180671261455,2.0668671580024194,2.5926299660707572
2.7082855255861027,0.391103586485121,0.35210426913741644,0.7219047652248951,0.3837054903984834,1.0507512062347053
6.117606623045131,0.4144085401358356,0.22508296508346046,0.9329535858647748,2.32455427564621,3.792120232687097
1.9038055486649992,0.3117276136064976,0.8176351648552509,0.5617694904993841,0.6561864124794051,0.8169800586489004
1.4756447200412388,0.30671195429340936,0.40233933216686485,0.5287026932258726,0.5447877697849417,0.3883250196521793
4.598212093496338,1.344448422432903,0.8713946148108582,0.5374583505807004,2.110363120766164,1.9356049709501257
5.794316218579232,1.7807403923690297,1.2919003656523067,0.3269685691770878,3.209595851034372,3.570873372175746
1.772572800747119,1.4624221739840455,0.30412042057067135,0.7857398960960227,1.2835458696934057,2.450054291417981
2.207655429547425,0.475210509674804,0.6281989676641927,0.4357665946553538,0.40391008414135604,1.0462989458068435
3.142887790255909,0.7853565387626045,0.9121941739097493,0.8237019696601532,2.030867700260409,2.7691670218885482
1.708511063530984,0.5337334130759281,0.7625253426664024,0.7847810091931013,0.5128081001845779,0.4691314886286642
4.533751827007221,0.44888900169074436,0.739474905169114,0.6615023430056968,3.0711231338780807,4.776612370501794
1.5097590074087637,0.5843247038940398,0.8072776807677176,0.3888852937614947,0.25363814266045476,0.13576027856717393
0.7908312885827665,0.14923679193408282,0.7560940148760081,0.6763271709981724,1.2472435314863901,1.3413171535441457
4.677363940071876,0.49118752355722956,0.5999605876991936,0.11623063457172021,2.5153788542806885,3.1223315780931684
4.341959279524705,1.4795324541134125,0.404506728706724,0.2582109561854207,2.6292589073918045,2.481295222385588
0.5745023594195856,0.7669651924510312,0.48168990985401006,1.1185315322423564,1.9143972699987766,2.791332569862726
2.5233964061908285,0.9478932301835812,0.5730483871687422,0.4792332647166077,1.022584417606408,1.4672350300867305
3.6864384688132974,0.1646342469207332,0.46016909471078066,0.5924178436909702,2.2065408239448576,1.8192603340405638
1.817923873034327,1.02387795768133,0.10139361810872245,0.26478760954911557,0.8500986797917299,1.513198183001302
3.0952719112511926,1.2605835284299554,0.6872195210636816,0.4176866755452955,3.3631968263481036,4.996000299468686
1.404534116312833,0.7562296248244302,0.04404176337961096,0.6939456024549718,0.8574341430768048,0.8476473641221292
