Gx,Gy,Gz,Ax,Ay,Az
4.196075000000002,6.951854000000001,6.406680000000001,9.172,343.41599999999994,67.58
5.221432831546754,15.294263875049761,2.6491794592671956,3.1827003769223543,2.070624976703614,2.343903354138807
4.641308987804522,4.544682663931587,11.419321989968878,3.8432440315514595,1.295659644100322,1.8581229566202446
8.564033162839143,29.444299101605747,18.102586904647627,6.488215567237625,2.683438110321945,3.348641101100285
6.912110194268954,45.69534553675631,16.263794587538126,9.145609287525536,0.7779349824930258,0.8517844754707762
1.1503676152407363,10.837763453194528,5.981068684740958,5.678701270319443,4.41212881492512,1.2322636590420588
8.610892815977342,14.130640513310546,5.81730038100396,4.406303527879719,4.435695020296821,2.8854278906418385
35.526655882286306,19.479345659558263,15.382162434417708,16.761048558983745,64.10477059862353,30.06324406771541
6.810858310815634,0.6127393550731429,9.578127916868107,6.803211690551069,9.164934920868937,5.466338284566563
3.366846814855816,7.316762878053846,2.7080570169025004,4.649466125255285,3.937866193598158,2.7468972448609175
9.47884628566961,23.544021615914133,11.426821426315326,11.136406999274715,8.397810420613615,1.8132273964619512
23.02545553185519,68.61553217332316,22.274127811494242,23.460523681375943,8.538625363611418,7.980314717452924
8.48215396949204,12.023632832718524,3.9037188473882347,2.7771741030062818,7.468321435004118,5.04746242471221
12.00286706488263,17.782571976017564,4.94737665351851,1.8183765847135256,4.829595039530501,5.006505449653138
48.07761496473599,29.489456136860053,23.826283887338754,14.92005594631042,19.021759472060147,28.58068826586547
23.427767720933623,41.3887844929358,13.77793805722563,15.095975010847946,3.8530855000953386,12.717395896949684
6.972082151610816,12.992571170668496,4.535418023549312,5.769305853094766,1.8481265696369364,5.896629804198021
10.324677586331386,11.918316432471109,4.072505956885959,5.465995899482516,3.948466849853437,4.036029688065545
26.79110568114891,20.54586860962929,8.933033053923355,9.252691701196255,11.01540221339227,14.144194535889909
4.716949416093937,2.992246681939992,4.890197646735713,1.993169342319514,5.2024521477628305,5.430500214675336
20.57253026551787,19.225692201462895,4.765633713601183,2.9761501913139483,2.360212895248709,5.157234012490089
48.08879157119302,43.247815451204985,13.410554733457335,14.123069147070867,19.444708638680115,25.87626943552085
33.61773470411779,29.960368096665334,8.940695979995244,13.058945258248597,15.164780875634445,12.617477255288355
3.276803271394199,1.6930809092282912,4.430370610896961,5.021599428686136,7.063679645380274,2.277686961948606
8.62099129409774,6.3841421088207815,1.619846901078809,5.279214860356005,5.628543737110749,2.9443539434153996
25.81055243699365,7.867219899223784,8.455197400254288,15.845702640848367,20.536688124532592,9.813868473178175
9.353477033917489,4.382411420391821,5.088328655624951,4.487012353620631,8.46869753232361,5.099063202021384
15.860328297183104,7.823767605892812,3.2542675328736173,3.3145161631079416,12.425082189477639,4.673281856561319
42.45215866571986,12.625355780916061,13.837853586441259,7.16315854403039,38.3661190076413,11.729889682594044
40.25888288228635,10.382182775586664,15.638073719118422,10.783678569418699,38.200528987603406,9.187501876820773
5.373186485940084,6.550356414928812,2.071819747756595,3.836217520849899,11.90678322192004,2.8207164219252516
8.911705330201452,12.506932248007956,1.1133314602722695,4.281325173536557,12.643316476708273,0.7701053720370249
25.45020858546257,21.04610188181755,8.52828749876907,16.51476212885748,18.479881733763374,7.651444969434133
20.74197672853249,5.014876313678857,5.258761003193874,4.296351004729539,9.836155577106364,3.8156331168764797
7.378107190470619,6.869065013853064,3.506703352929741,2.0549424555842832,7.070944181104527,1.6092503864292158
15.984711537337994,6.671227278598958,5.28994015356589,1.4378144516639273,14.44239378851435,1.689604480663031
23.048903383859216,6.5861098874843655,6.538959647734194,2.81945248620826,19.17277893818581,2.890272585379566
7.2957780293284555,0.7810016308844775,1.0750565012394169,1.649771906204995,6.999718736748341,0.6987767914006702
3.2575789278375806,5.440650692128543,2.673454203993538,1.5528822452753812,6.655712950689603,0.6823276735777773
14.659412459434558,9.773231284469116,1.562868164109942,9.472933097329243,12.266814676630446,5.126806402371747
13.176639760692558,5.380982107893544,1.8534811218336704,4.054453413797456,3.477382877662239,0.6920792316880071
2.112290496708415,7.627025589288266,2.610266526705838,1.6630381843107644,2.5760160767011184,0.9062038352537187
4.892310854460796,4.662679617319537,5.307859416575241,1.6384811496786842,5.235001096493749,1.338144284351919
10.929224551463236,19.291181230237523,6.869712280784712,1.4375507662740465,4.983260678341148,5.451525341281717
1.6798055588932888,2.6762596775981464,2.91863907631879,1.4877106262878688,4.579693328249949,1.5162744995827373
4.569106839431977,2.928413670377511,3.7224856855313098,1.7349596123690267,5.338068092828459,1.1608684093250194
9.821877096481376,2.808295492091991,0.7828494176108485,4.3196118314393015,7.3560345688724205,5.3657736869758725
8.211528254014114,3.0271058009788123,2.3225712316073737,2.739828693246399,1.313661095591706,0.7051965977443797
0.555393286388716,3.436305921774357,0.4091561289973468,1.3731863981405787,0.7099079266939513,0.996592469614315
4.053403219895457,3.8828891833084054,1.5647287151807752,2.1091026620262685,5.745048512444105,1.368328600031566
0.9549760107346923,8.001319402207898,6.2761741323959095,1.5057951661893794,5.784630049104012,4.106643535357619
1.0267182267460977,7.117001796267892,1.804882327118187,0.37931948035706947,3.951679120432442,1.9328451709242909
3.949743949842699,0.6264578218435037,2.9761041898688743,0.5964800377911347,2.930687760256697,1.9261463552250715
8.058335143631316,1.148791010400106,2.694013473694426,1.5543295061773843,2.9530788177164538,3.300371340370331
8.563100210403002,3.599970087692036,3.02645924892518,2.7886485431920196,2.5435449362175646,2.2734297728803377
0.6683222879079842,2.408474752506368,0.12952107460942264,0.7365740639507332,1.1995811046682037,1.261712105639246
5.157185370732728,0.32632348110404596,0.36826377757985007,1.1767755312194275,3.987981574420525,0.4720386590132983
3.2552298828535084,8.005877072081114,2.7963950988009203,1.3887861725025639,3.2943075382896976,4.205140240526733
2.750542593884026,2.989713045679197,0.06482386005746806,0.3392421228564583,1.2247317781731666,1.25536332654978
1.4132053949136163,2.2710021724040654,0.31199077000640535,0.32701260001629134,1.0001129251964955,1.0580400359955304
1.3876294831543203,3.269186566997653,1.4194921409430659,0.9438183245838611,0.4135167016797027,1.3868617101883876
3.334788445028157,1.7084775143652366,0.6356989573931996,2.4793354173959568,1.1232533784368903,2.1479848324515434
0.5048157852345383,1.2532564208363284,1.2342564045456408,0.5178210887496912,0.4854693180411342,0.9999541035969017
3.0281771237544275,2.854221060295415,0.6066120451614335,0.9242959158964024,1.8856919596162751,1.7401068353063118
2.8820780830196693,4.487009997762381,1.5709030977328478,0.47700678820558456,2.982007906198115,4.5077239261263795
3.496008668156696,3.373440134685444,1.235397930899581,1.0669931813649765,0.4979947537834069,1.4746729514259511
1.2777587509635,1.6595222018242832,0.2410254793370845,0.48038703435205754,0.7165259056840263,0.8309907621652649
1.2864945941311743,1.1999182915852828,0.6153743959452964,1.0113456859151357,0.7100901286386715,1.3523943142240988
1.4133889597671947,4.001071629248269,1.0215943914235124,2.302009750269202,1.6001559192186856,1.5068705815542378
1.6759023665898671,2.892941897279922,0.6159412345936357,0.49212456721440584,0.44678191299283776,1.117501578682587
2.0894307767989897,1.6273577848276977,1.7462943710817405,1.100360371362081,1.9317872561930594,1.3519537591478612
2.785766009266471,3.223747625605947,0.7770663514564661,0.3678019839571331,1.7074376367329294,2.042800803691692
1.5959344942847944,1.711130521285517,1.198603983720981,0.3873710181866744,1.1417364981459643,1.282114559459026
1.0036351645002002,0.2533365888704408,0.4629669236212054,0.18634289419453792,0.5831119298822529,0.9158520319241218
0.2810014780109246,0.9464784184431175,0.6766202948255565,0.592858320374524,0.4634009040530959,0.8584955668188425
4.046445446164184,1.6324805453230289,0.8211344571222886,0.7589370967355713,2.0243113337659144,1.5244068497283711
1.3335012193614346,0.6934292327458198,0.34523732291221376,0.4063029168065078,0.9116956998987448,0.8554239144234518
0.9669492004205126,0.49519448988765946,1.264397737384737,0.2899887045123603,1.1860877750989454,0.4006060345516871
2.4524394692318756,1.2651135972149292,1.2025634555295575,0.866535216062766,0.3505893092630459,0.6944678770845543
1.9086711945355255,1.0066914529377835,0.8243782726352349,0.13376306131119398,0.286480243520994,0.9767463843570455
2.2460203484609744,0.9758091166008379,0.33867693374580177,0.07288368421083143,0.11192802532788303,0.3887453298211502
0.3453785660448953,2.073532355455387,0.8680001645343917,0.3137444462697969,0.8158284611982667,1.1031287576012316
2.4884832511966324,1.6422376365783034,0.8252646856861403,0.18249629442497553,1.2321880655608919,1.2273052533352746
1.8626750884590626,3.3257182913337093,0.4768625465454664,0.15623319125788973,0.79387513160772,0.26455785351451155
0.25196863003321823,1.5002743945535018,0.4305069622760467,0.4386533374672886,0.6574285007971703,0.4695968319300311
1.4510585538436098,1.0151569171729253,0.9991763428957041,0.8507721899045921,0.8750949794123067,0.7382676814066425
1.8289341872493141,1.1772610148620328,0.8654216445800723,0.5669527239689384,0.4591545487359273,0.6764230007659078
1.8065348674537958,0.26967268171991443,0.6476254454592785,0.2875853484100111,0.4638322353401095,0.7613966693056529
0.0,0.0,0.0,0.0,0.0,0.0
0.0,0.0,0.0,0.0,0.0,0.0
0.0,0.0,0.0,0.0,0.0,0.0
0.0,0.0,0.0,0.0,0.0,0.0
0.0,0.0,0.0,0.0,0.0,0.0
0.0,0.0,0.0,0.0,0.0,0.0
0.0,0.0,0.0,0.0,0.0,0.0
0.0,0.0,0.0,0.0,0.0,0.0
0.0,0.0,0.0,0.0,0.0,0.0
0.0,0.0,0.0,0.0,0.0,0.0
0.0,0.0,0.0,0.0,0.0,0.0
0.0,0.0,0.0,0.0,0.0,0.0
0.0,0.0,0.0,0.0,0.0,0.0
0.0,0.0,0.0,0.0,0.0,0.0
0.0,0.0,0.0,0.0,0.0,0.0
0.0,0.0,0.0,0.0,0.0,0.0
0.0,0.0,0.0,0.0,0.0,0.0
0.0,0.0,0.0,0.0,0.0,0.0
0.0,0.0,0.0,0.0,0.0,0.0
0.0,0.0,0.0,0.0,0.0,0.0
0.0,0.0,0.0,0.0,0.0,0.0
0.0,0.0,0.0,0.0,0.0,0.0
0.0,0.0,0.0,0.0,0.0,0.0
0.0,0.0,0.0,0.0,0.0,0.0
0.0,0.0,0.0,0.0,0.0,0.0
0.0,0.0,0.0,0.0,0.0,0.0
0.0,0.0,0.0,0.0,0.0,0.0
0.0,0.0,0.0,0.0,0.0,0.0
0.0,0.0,0.0,0.0,0.0,0.0
0.0,0.0,0.0,0.0,0.0,0.0
0.0,0.0,0.0,0.0,0.0,0.0
0.0,0.0,0.0,0.0,0.0,0.0
