Gx,Gy,Gz,Ax,Ay,Az
2.2690780000000013,1.927466,4.593248999999997,29.885999999999996,454.296,97.96600000000001
4.168512345741091,12.665330866821265,7.38357221983485,6.322297494495562,4.5982936568945085,3.601277091291485
2.7287089880080897,15.613246901164958,3.7098900228057548,1.3881820683248274,5.008697776428332,1.1678174644719879
9.06701138919712,12.48862570770561,10.31448809274801,2.270421833966915,6.6431324634849345,4.342005678944558
7.287133339316262,48.00868221744021,12.43915135179994,3.8350711536627586,5.620583982590091,0.49204154551111173
19.471838860197142,239.21939069833456,105.43126298477524,21.23569909214748,6.879658250361358,7.21028601537944
8.080531883604944,70.91043190772159,30.429313992387183,11.49062695464831,9.521975129143746,5.462099174473599
4.38791033769198,12.062249271142734,11.176778974340237,3.215370637905554,8.179919223521006,7.0641272535234
6.14111906051424,19.227991336090373,10.329166635349152,1.0468349005005744,11.016507644174414,4.373065880577344
21.40464086748229,22.593154719497296,21.39673831752169,3.226121710568371,21.726861358757176,16.662431257121796
47.15294823284093,14.03336896516569,27.55201925303292,8.74533973932529,77.20476406147927,56.16072474843048
19.271713336090805,39.15624923013001,18.374513672555832,9.216696538207172,37.01696233485591,35.10611514560454
0.9969358784781314,13.590712413432701,15.079922160876006,4.490781082171364,12.582984077256175,11.922207088158961
10.782736137859178,16.943620891674307,16.712238326426217,4.1559470065214255,9.171365687056397,8.811164248533057
5.896883103078234,3.9045451042794173,33.559745363758935,4.086223960300938,9.309379162676588,13.005640382655276
15.079869278412,56.20707456473147,89.96518517352563,17.60374106579454,7.207087242292805,8.621388981479035
33.50554667871681,80.86398223495705,78.15743443537781,24.109872216137195,15.164581768156493,9.361904162779368
6.1749526129291565,13.638403530214925,41.58133658137963,2.651538161120786,4.450338562632012,8.48952703140719
6.787876085580021,18.666223234068326,23.194884185896548,5.8973195119938255,8.71241870126548,7.592938842891244
11.84114912766098,25.490704523957024,18.912985785186258,7.913257199785503,3.6662443394646895,11.75675147975085
12.703916992515326,31.74922807380916,16.153662836124276,9.785265939567141,3.636073170565159,14.338817779257845
12.776647174472426,20.124226329644813,19.701659323829986,5.55669927084406,6.664414991526366,25.77932233133158
14.628523360022891,10.192247244857347,14.063529452566039,5.296595819033207,4.832598699897375,11.915246468580184
6.665586725938775,10.349721466879991,10.777933274603278,4.7238870754209925,3.2850461484367597,8.08361970698199
6.693543426160661,1.2499737750748798,8.027887155495868,2.58303757519058,0.23589917757523982,6.692888418252931
16.00574400775789,21.381852292252326,15.585566299270878,13.360107974490424,2.257464066888377,1.608439499224983
11.358690705239532,51.80619549148752,42.64805145189869,39.66349092813916,9.383539219298882,6.59943578198945
10.409342415842936,15.874147713526067,28.922222527444486,13.386506388098756,4.947948091715806,0.8844855541131076
4.761041628839923,4.880851446287019,10.480805717352906,5.116130786122848,4.105470043496812,3.4702215634127827
5.509897174690085,3.964157105051194,9.55297734545384,7.422381371842496,5.944377630272585,3.693663654943468
12.881033522928648,7.340315108051296,2.9657287395150442,4.645090022361222,20.591797069044944,8.185719567944483
46.697686448125374,8.211706257741486,4.044576014774132,9.318153516604195,48.23588147229577,19.844515568075497
22.696485218663796,7.314099754038587,12.086622263476343,8.565432766183546,27.61918666142802,13.219411556104419
9.195594080489952,11.08342701184507,12.305749963337172,9.660477949281365,7.938439596906102,1.078052135202306
10.999460634203485,1.4463939994422308,8.316307528393578,2.117792514402875,3.9797145670367713,6.168136501950024
1.720158758567983,7.612335370463215,11.712833725611032,8.955463451955243,3.892571503194154,4.0707837436572465
13.637597142216924,14.770203379845189,18.244224090406988,15.993450788739969,10.699216143619669,1.2040115330932755
5.299619660944658,2.66566770144051,10.232913991532339,5.874132668353313,5.0103186873425924,4.247458696752524
0.3797204732080668,4.941765919626533,7.865247297125286,1.2326900010101645,4.996207803313569,1.7891529521084724
7.831170999542716,2.233136636361807,7.487165554209613,3.728503527099553,8.194072922590088,4.005554030206871
22.42603395081434,0.8987463292733044,9.44075175842348,6.477956731221427,17.13208876257996,14.310944646782485
23.76919266373864,3.5262440311978467,9.383997975791806,3.7997955805372547,17.63749074958659,17.421925222376316
24.16365705316362,2.839189274401525,1.9645126987477657,8.249688452283312,18.908348367086774,15.590321160246152
13.446742933611922,4.554447244182736,6.949932660626944,3.276550328917317,9.711779158161638,7.935489055235182
4.988440575183015,2.394575147528652,5.3632182576548075,1.1188403914221092,1.4229388621599213,1.9859819333486894
10.106868730680251,9.592225077534781,8.797087513881351,10.149029976705494,7.290862951937483,1.1358554810549821
6.252843063657538,7.021729407463407,6.929327892986735,7.948705122406072,2.610509310062074,4.535912065689669
3.179202889808686,6.845458461671679,2.044867222821302,8.011106111943963,0.8064101158464793,3.9601771613686423
4.427807560294285,7.259739867659079,3.812689315361986,4.940433603205085,4.7860016982037665,2.0847903699476786
4.645146408232903,8.878565453510966,5.9693061960406855,4.888948086888513,4.697594384442507,5.475304922838813
7.52116940929475,5.346226247212977,4.2727040862185595,5.6955730413066314,11.309034629080134,12.999368929454766
11.255200339556437,1.869308972730033,4.399230757971244,1.5699839749438023,9.126310568484728,9.458208838452746
14.034372365087668,4.946018402211198,4.782361227752286,4.984097342497402,9.392713747593424,15.459307167671232
14.821948367425088,4.810741556001446,3.587275404880556,3.796354831783726,6.698920733568391,12.481552652220572
4.794101211683708,1.6216024764826051,4.106630950123134,2.7486950779876658,0.24706178879228954,1.30004450151845
6.5276025573189465,3.399099158809748,6.989972896007117,4.145466928205524,3.4507276936137075,1.8640836098230338
5.905156661498574,2.423019938210458,6.144074023899486,5.622825241842271,2.1649682840090247,5.504877427099163
4.794626570256995,4.194237694209254,12.293242871836117,9.726549500260756,4.899031674181124,4.455199971574548
6.10879523068715,1.5277491239729337,6.978024724297584,7.837730957503151,3.3222594790454827,4.665807074056935
5.47550371983322,1.1130289985680035,4.955714733994014,2.1221471490029096,3.8649749304010403,5.367087553049436
10.64215107232214,3.1432169398414675,1.8925206123980975,3.321793002871748,4.234187309905761,9.946165359224427
15.61020737140305,4.3112848203525465,5.123239123582862,0.8731105185978302,3.5975238792919417,8.879676278310573
13.097917072714178,3.64488890886081,4.591683450835634,1.0149252682513867,6.049907204766461,13.945211641730351
16.253290568981384,4.942505869724457,7.425515187072858,2.6436037612066206,3.069643660819207,13.649604980728506
7.1168046808834085,2.5527153238566647,0.10991514474190446,3.4750118466040316,1.251825084179872,4.153456536031566
7.667456225914963,0.8723013747135745,1.9095903569053037,4.169764538435598,0.8464514000551272,1.249567882307378
3.546396057128956,4.0251875638223344,7.260599826754381,6.033916167376508,1.270974128206755,4.567702900559668
7.081299106766423,4.081010652701461,6.037839074999469,5.5264351459099625,2.776204482455115,3.4206876606154353
7.446010545404356,5.857548951781445,3.146526949923881,7.715967267420833,0.6395944276388955,4.028963397802877
3.838409726741161,2.5519484541608737,2.35699237961568,3.0217187048424243,3.6162783999754966,0.5724216356653522
8.094514298402398,0.6470427441835497,4.61013733277064,3.085182831249981,1.806619544527458,6.319716560216012
18.105508949701072,6.554683860472666,1.8101376436977201,0.48991792598848616,2.0179422268971403,10.23848013851715
11.026415360583805,2.8893432372128487,2.1294332500315423,1.4360383937436958,0.2131381928028341,6.9818129176706485
12.344191189116888,1.5623767522382863,0.5026199701197925,2.5736834312507244,2.6671105293979007,10.243656555278111
11.031742109070928,3.5808680125667256,4.687950429796269,1.1694445024938973,2.874643535947107,5.593032464648798
8.24242196423206,4.4506692012123725,1.3775928331473635,1.4636442217816092,2.5633649402166494,3.10240556701102
1.3817118946038662,5.5306079132753245,4.294240362213203,1.9600954559020685,0.9853021570484761,2.794888382828869
5.989328445834626,2.7355329571026217,2.841865914403256,1.6444676468744777,1.3819397854097426,2.7250314315158675
7.524249570837855,3.7348286823058294,3.8404471138622984,3.5970075633948912,2.53093776604579,2.4978296665012634
4.899679714435548,4.52197474145621,4.733561788888095,1.6828174884057163,1.0789332793444404,3.7803393202812656
5.853277556560153,1.8347930367181797,2.785451666369098,1.8929730509085558,1.7882140787813012,4.589388125894175
9.84250016762755,3.7394473616039514,3.5890545747300213,1.7097952733687531,1.2894341126412683,5.9161762388098
4.494421182281287,2.9030954982495003,2.7749518138814695,1.0670624603390622,0.8801337907788996,1.7766117441049438
4.358513449725218,1.5891743872666244,1.6427412435549642,0.7544488078495252,0.22540406724071757,4.064848361671945
10.396948469125654,3.5821621135926582,1.3302427419488054,0.28925593200342786,2.4102859593337698,5.434010382107808
6.616304425589533,1.3844054284667273,2.5469335553384034,1.7753325357632905,2.638472445078072,4.642328558085497
2.28682884479094,0.820095825017041,3.5334567291894206,1.514009022260392,1.250897180807751,1.2164442717886372
7.491946593573474,0.7957470103156873,3.5589357050321553,0.9148189980239436,3.1208300533058146,3.340582276785205
4.714549806978408,1.8838348346208103,1.9578180448488902,1.5073276450369726,1.5663437870885213,2.3834932388378247
3.758231424427849,2.2407084955729473,1.6884671675290936,0.8579841830369803,1.417197773311317,3.216768094249036
2.303044250582197,2.0631984238686054,2.3055472570444633,0.6825697710832015,0.9277710014391333,0.6321885873830894
3.5739300448547517,1.0381622059018147,2.1220709472067525,1.456350207442423,0.9859414794514716,2.717942640746843
7.973997725064301,0.7210431135550875,1.0652454256221306,0.24413978461594252,0.6778429048290132,1.0164214182954083
1.8615444075436738,1.6425970104120518,1.1419142145821295,0.7091288311518769,1.470619804094578,1.0062149492391437
9.666364367569964,1.4863733252458098,1.5949834418400146,0.6513360469159506,2.548647470458536,2.5852774080504766
6.519265095575631,0.5102241585341859,2.2703778779850396,1.0834737991521453,1.2297133706857808,2.811062995173338
4.2569684750770636,0.9275173210640646,2.4671395683630175,0.19020449732096242,1.1491192354785111,0.9547726180709519
4.791336729702096,1.7501452848195536,3.86219722908016,0.0788981518948434,1.9782292015204743,1.913236810319903
3.414485070622234,0.8421910573197582,0.35032968768937767,0.7993426166489607,2.1085509406734264,1.0594552402465953
