Gx,Gy,Gz,Ax,Ay,Az
14.029034000000001,8.031253000000001,3.830845,0.8699999999999999,528.2760000000001,48.99
5.500871541267808,0.511066211639831,1.7198887923072532,1.8050484579522574,1.6264894177319167,0.7020172952207165
1.1383900634204522,3.5085350924530405,2.7685676519350157,1.3672394245887862,1.4212240792242146,1.2853783176602773
4.631053912157658,8.302707910989687,1.1423302138868123,0.576949407358111,1.4723699949668212,0.9816707253434406
5.934799008798603,6.940596020191338,1.1231309177236948,1.1944634087865758,1.7771361378444308,0.6565130311662052
1.0762350045022435,97.06449314979653,14.94165267132486,13.38473917240207,5.299475928341837,2.606974588090645
3.709067212107682,13.00660991113615,2.590132758721123,0.7989994646205539,2.6886618112896667,1.5538860335969304
9.234277507084903,4.265774417375667,3.4393557363243548,0.5115660007043269,3.8105521355824816,2.4948770080813034
3.4208219571002663,4.827743529220747,2.0437978009308773,1.1171301054355292,5.432119458108437,2.3083723291307745
10.428849604038902,10.108759065200655,4.40383061121526,1.4497994152479157,10.425813210324137,5.414372836918381
54.38966165122609,22.445384006158903,3.664918537409345,2.39321856888976,58.076265434657074,35.78137585212159
14.72532215538802,0.655502636132014,1.2504818804444506,1.568642027889378,7.730795101355258,4.130669876827339
0.7968931273228143,7.945561498238442,4.759320378122991,0.8571610156828767,3.1364802501829057,0.9835110985478097
2.0624768185851283,11.944235272538048,6.427749820400274,1.567822021855888,2.8154422748940124,5.016911118675426
2.5788610794709594,4.6530091792021535,12.067345634023155,2.657156338249861,0.6150963586942971,1.9501867008591411
13.141843973521562,56.11383158055822,44.05342604062157,5.817119582126214,12.266050072194904,1.89483597968676
0.6526304638916818,12.231479500191265,8.236967896171162,1.1137601945880944,5.785978019790762,1.037677227797051
4.156500968253778,11.362198185141642,5.011244118501342,2.1703698022022375,7.999379466023536,4.055239970498459
2.3164704300657495,5.907825522318585,1.6123527325123315,0.5488269335996665,5.037622001850753,6.053312876457924
6.346475750971854,8.767323725645078,2.4914622679771865,4.754070952210044,12.849586495415057,10.649542536032518
14.187426340493376,27.181418795157313,1.8776502094432193,9.800482394856186,25.68178846155456,27.18421838262246
5.47337488454269,7.169842017463054,1.1152137116050496,2.178721550951925,4.296837555768648,7.647947093639247
2.190433209232745,7.320925106429279,4.4021329135062315,5.794817958383619,0.6625398549831795,0.49451983274224837
5.1916295160652535,7.455835306170273,4.863152855221205,3.569869880340674,2.343991423228516,2.355999198957203
4.699576996318675,12.612506014558404,13.550207698701765,10.814080977468675,0.6414344809138417,5.722895168662546
2.9685003025649883,17.545922095504366,18.881330543877976,19.35992953758654,5.435404868944813,4.2011588702769815
2.8571658241120286,7.23739105810137,6.545564144499359,5.988631056792721,2.409569953037758,2.832495066195096
2.676149938235927,5.4039284380207615,2.549846600080223,2.2476326725174953,3.90455829602032,3.4974121171195818
0.1264969256099359,3.1766932924944875,3.065180309820493,3.2328358771832817,4.488950263414703,6.172958621836207
2.031394188492979,9.720630307030456,3.1145765222001733,7.636265437209122,7.524018809200442,11.293963651576803
4.550009049268172,29.068810491516402,7.803343205308413,14.478462925500965,10.099009770350865,15.14168691508576
4.584996960768662,7.578782675203337,0.9522806954693682,3.990825398141599,4.099695978325809,5.84415935723554
2.459193742428186,7.0698138014304,4.1355824942133514,4.747562615546181,1.510462607332506,1.1720384024950443
2.0193896361928347,1.7461599736081745,5.730218223659621,7.188970258867238,1.7540840217844842,0.265991034999176
1.5522609662734936,10.67261472200143,10.903731346510654,16.287772000909726,1.8995315559892072,5.129610772158657
1.2166228138642181,10.203001153885825,5.784746850379265,9.202751913624406,1.6003535642830597,4.658362891526654
2.6415858323054837,1.854848497301602,3.489614763931889,6.7948843946628,2.3163911461025077,2.266923477538687
3.344828917499841,2.850126002231257,1.2192036668919564,1.487725383431608,2.949802397081441,2.041550440908546
2.872378374804625,6.278023016673727,1.87823723730839,2.572775761173191,5.069393797670457,3.8507780369192917
7.776557342018013,14.114123313119515,4.418326226479004,9.283516756455041,12.184871455588059,4.139732928074154
9.478430247408276,9.922702797369762,6.370774055349811,1.0112723762848246,8.710333569725918,3.592262562550393
5.932710144697036,3.89604059181584,1.0585789386497013,1.3012534765512496,2.4121645213212877,0.8640385746199785
1.5746643429068745,3.6411761610737554,3.572849607358131,0.3010232303904305,1.4594419013183286,0.7551066795382686
4.0884384072926006,9.118531510336622,5.937650409086224,8.736348739829467,4.68389424284156,1.03715493610067
4.494649662254644,7.255136593002099,8.994932060140854,8.94921071513639,10.047182915202965,0.33717580948240256
1.795168968995239,3.974326541871918,6.747491099715402,2.492927346280788,0.24710490960004997,1.354784311281126
2.1130020084042798,2.8759501610124194,4.140804018914067,2.522718109712339,2.426469200343905,0.2712034167712744
1.3420535339892494,3.584299044537732,2.510829328482007,3.1051948182368663,4.143124756973044,1.5970348294527739
6.933202416832077,1.8673492698048677,1.802739269017201,1.1942051759571173,9.12610881690887,1.6464868468244096
9.205128109907443,4.365133380707877,3.9162526478822377,8.356468657452902,15.42140459971939,3.6057728156181357
6.508357504688239,2.33871300438892,3.765608191961707,2.7826731339461057,6.051048270414286,3.3206208876665313
3.631354851511083,2.114370736314522,1.3757801179992009,1.7373649440807444,4.195450795152163,1.1015589710247116
2.086980643036272,1.499968325917756,2.059011031855755,1.2078904920201006,1.676730065193135,0.6108434738715404
1.5586265108222508,4.439940450973401,6.724653252630448,4.7742767702264395,4.039816975178004,1.2446835246017098
3.957815560885809,1.977037989581644,9.006928183726531,5.239069709364227,10.188452761592387,1.9204830969018147
2.1276722744319168,3.0693822014775485,6.70489258367568,1.2433052633538817,1.6809406435652974,2.824065445687512
1.2471707441895918,1.704244989018087,3.842452471194796,1.7818514671327974,1.3467747775935797,1.2962182779198959
2.5639868170658304,1.2090750413486837,1.193807467847223,1.2697918495876588,0.6398901099435387,2.400215818396705
6.03109416049563,3.6689287550893783,1.959372922438638,1.083057746221551,6.248299400524084,1.9587861105419553
7.378290804970865,0.44753481646160964,2.8374508219513004,3.1197202590356032,9.220419237970926,4.687596016415537
5.365452533061458,1.1096688954638436,3.1597419364359656,2.447658687599998,3.7985922726601453,2.6046699237197872
3.219388340200039,2.731396047733132,1.8133742795100538,2.345773249406127,1.492741416920309,1.5604804290059955
1.7787862448835148,3.202944995314435,1.3160223949824656,0.860379852530498,2.4171237400433863,2.198715969540368
3.660758631840484,4.997062776990887,6.59181699172346,1.5382925613768597,1.6058113482207197,2.2682222601588458
1.610284762297975,5.352271688595337,8.579521589150895,3.8303993100516887,7.4846256027469105,0.7705554879854531
2.3804302601334717,1.4574604599553227,6.065179495383484,2.1538739442310857,1.050054932804695,3.3211385447835693
1.6588973499205057,2.106665806913329,1.118612469004621,1.6438081644458507,0.7998438746932076,1.3190581733196185
1.2666638516685411,0.5579224466376017,1.067155800493294,0.8422727083146162,2.0772317440080554,1.4079065650237494
4.7300296682229375,2.1789703874739432,2.5169572469514323,1.322401598644386,4.649430169625973,1.9561971078170275
5.740893983639246,4.218341101730076,0.3518365935895042,3.5689840646747037,5.8814383230617056,3.877087884221169
5.236200031194778,0.5322712566113299,1.5330567687966088,2.25262428303626,3.6932324041810007,1.9981980839340951
3.4899486736221257,1.0229814637074108,1.213370641653861,1.6496530949736967,3.242581408627268,2.1472192914501664
2.7143404534432034,3.6085097465614697,0.9909423065785856,0.8280655108252324,0.21732056600192826,0.41303017734243386
4.904849186096723,6.00247768898921,3.775561837913734,1.3660516292023346,3.526955333376196,2.198671437076732
3.3671559236054,4.410918087551718,3.199654258967747,1.4467764292587866,5.596140224324386,0.2846490962319288
1.4569593669585506,1.4926248104328752,2.940737723370718,0.368094858222705,0.7938697662408526,1.779480012930503
2.0157746519470208,2.148971078633288,0.6383614158980163,0.9756097622371137,0.3933439074490797,1.0103072025890278
1.6545219276020544,1.1900692741877166,0.4003678003247559,0.1833517311091961,0.9672416408178451,0.6430516400986426
4.811817959825216,1.9645963121534193,1.2025784769585983,1.2022437466506168,3.7927997887509988,2.9689296723002667
4.007026094781704,3.5510757147409553,0.3347265643990299,1.2374845520114819,3.7846734243123,3.0404352509787356
4.56780349848482,1.8642706479824018,0.7088895584362047,1.1755359922128301,2.899847807089284,0.8188304308863896
2.053067099187362,0.47016018089163236,0.3367319401586372,0.6454898739563354,2.670650991766354,1.6679727932022694
0.77140102924396,2.447775146677615,0.4664764821532625,0.985097479659614,0.7914158121570984,1.0970225546050116
3.2414610533683965,4.171695071747998,2.112403759102359,0.36169294059853896,3.628484093507071,1.460260096718109
0.8596627042549999,2.426216675151608,1.561339038420344,0.5353739056717233,3.7692040070947486,0.6066555516305799
0.6767626297821132,1.1768312470417057,1.1018687633793,0.8539187532035861,1.657295680558207,0.7306974679249475
1.0001859186144861,1.4825727806091413,0.9864602024777357,0.49386498410387514,0.6424881373059427,0.26470603515338964
1.6622893389171816,2.120898154531782,0.4485722205525662,0.866333166470504,1.8450406042216356,0.9933037410081123
5.266651949887402,1.4888803442661083,0.8609026450811974,0.5078467804714554,1.8464550060412954,3.2119927469264087
3.2051560870092546,2.4072642087432765,0.45555716577003674,0.5700419792041655,2.4420293895794876,2.996976835095456
2.788843376807132,2.273763913189307,0.5286080068477714,0.1710471863681417,1.3910302055755894,0.8499495552555213
2.132164198073641,0.7339655849731705,0.35529364106708144,0.18678509289297138,2.512588396737541,1.6380996150536937
1.5641482076348876,2.4754906768809777,1.1245249496224383,0.09367415690128117,0.9607960043916699,1.4400273563554706
3.2211476888074877,3.3569933260479066,2.6310955628719186,0.7324796176759683,2.712693928849651,1.141620939621925
1.5862712011348377,1.3925247367395883,0.7463566668852245,0.6860324683134948,2.3114395042951728,0.875059793572057
2.0683926048598527,1.3664593739261626,0.9180785070561344,0.8022817863580656,1.348098820048647,1.776931347119204
0.568113328517945,0.21536885299923608,1.222240382008652,0.4980602016340533,1.1151159007967497,0.4904916180843029
2.529854428340056,2.8407924669402833,0.8356984227920388,0.8276948270473901,2.979888646174876,1.9133357430858235
4.160517846982906,0.5830833360245656,0.7655407440494425,1.0279038145635946,0.9123346093821528,1.6918688408805538
