Gx,Gy,Gz,Ax,Ay,Az
3.882651999999999,11.931874000000002,4.424881999999999,35.966,507.1280000000001,4.064
5.363951364514022,11.689628720848406,6.836876871365865,4.464916077692984,1.3730982183275786,6.508327963309787
3.0763842340494425,8.448304923629177,13.849743952298155,8.706691784872675,2.4546123917864,2.797438357420372
4.360144133110442,13.894749346990118,8.795673456264408,8.098039680265158,2.7063679612923193,5.001227169297452
17.607706089603212,44.14563417936772,4.365320515493336,12.628755560703704,4.503527032113506,8.688480607863799
29.883103817250092,29.135115368999145,7.8534234030558245,6.2369333842860115,4.149591768367079,2.0794941599351304
17.193466186585386,17.2275476845745,11.396253570647565,6.267454237603655,7.901554728388808,6.3670390697829315
15.404925639845974,15.61534829700503,3.910458531773238,3.659120842813825,12.94950632747593,7.040322308816032
14.335816291365264,10.251670683058574,5.68158928593586,3.110123536187711,20.274210459698484,10.132057083695472
11.391399041836475,17.69964505515149,10.069239013522719,8.033748154220794,75.49782953714009,43.432564352020094
0.9422242055490203,13.893119292474713,4.488782542858096,3.684674088032203,9.286829284994202,2.408085019681418
10.545347155290532,9.340635802546513,0.80729847568494,1.1671876620834039,2.0582171498739124,2.6510168228608704
0.9917071649019836,19.308633664167704,10.087288547528347,5.407400879077245,2.8660253619519023,3.544235204319679
5.906308139963124,24.46330379735421,39.25945111161385,8.91387520012533,1.855467893817496,7.056563909790277
3.425195799332198,28.00967064831885,17.370354927470956,8.81295478634819,1.6445696736222377,3.053960758847315
6.61758577895513,13.246561577533914,5.629123144724397,4.735445946074876,5.793138210016752,2.970784322616596
3.741737846354305,12.967760386987182,4.3004562121185055,2.9551978968873156,1.5185086321725643,8.207255397117375
13.996016883524428,1.621116681020138,8.431044102487373,2.761237282788297,2.1043261823781387,14.519900111588866
10.80663808643024,9.930304856935516,10.937694792777625,7.782968346118533,9.184697278920838,29.012776630600207
7.287957142294036,14.207088823611981,3.4051853488476826,4.565202357489067,1.3751247879481183,3.426978432272088
2.186431031927616,8.124398341069929,4.429772453182146,1.9161393465979342,3.4998248801781084,4.277962858662466
6.494878791251976,11.619032575700551,1.1040010943210903,3.11159217899068,2.4021974889041395,2.3826230690409282
17.77722047308808,14.12452024130039,15.858639445861737,4.734601848248438,4.589974488967121,9.443806962309019
0.7865895221542003,2.1577292416789455,5.299867173023955,2.8688266260196835,3.030208884826876,1.9930063644139466
6.153871556335821,13.536474858520332,2.8771047527544087,5.3630343535683,1.0878497126019202,3.461369806189901
7.205555587909727,5.998073534313109,3.970052107918437,5.271839797560412,4.287941058767956,1.483482605536993
18.44713227769138,2.5406600934085657,5.625216829326747,3.8910477550739855,9.24947114525505,4.876251314921819
17.564369619951687,11.35734078750869,5.953427477448025,6.959347272813841,12.028605470522503,7.431538151365297
3.2201355749571783,7.227066990808967,3.518232070144158,2.6784414736760733,1.4404306211408548,2.299220078867906
6.505115101675875,7.3501675872266,5.676903312330518,7.532402605604773,5.909363535615455,2.5208590384445118
11.996791879711584,3.2576508652232405,4.390263260035635,2.9246120457463243,6.892508128302551,2.0633878700471966
19.868236587256035,32.54484731348847,1.7463478681258044,21.351363601165637,16.231685270404085,4.194731474072861
9.534581356848442,9.094841808742817,3.272897677351619,8.109613565212522,5.67296336406989,0.747863024697839
7.49075463774735,7.080478596956257,3.865588755709485,5.154504142790889,2.4159472678756413,4.826158481708996
8.678378691007769,5.050744425939547,4.496958849068745,6.778726842881639,1.6618215188375038,2.404110365252029
3.8824210685478557,10.43323702435072,6.5434273604597095,9.562546807507742,10.41867755099442,12.280516671665346
18.241052780585903,10.048434262441397,2.573460846178876,7.284137688905006,8.766360998766569,10.110133868795002
8.405670042150131,4.642000597050237,2.451874858596483,3.171036779218513,5.989463095924999,0.8584486351383008
1.0760042749157994,6.648826327964156,2.6922665639426313,3.3131646661131806,0.6852728827636908,3.906907196316135
1.3001437080862623,5.080985218685396,4.9962409070132905,3.2384741874420535,2.295635722595693,0.6317573336652613
8.099553783944454,8.387334083347756,6.269301036683979,4.0162034506567,14.014667300202962,5.1731464349516285
1.8455401714196356,4.204412325424959,5.991763806083834,4.210912691789937,3.280714529759136,0.7893022461533221
6.216927579148261,4.366036259795476,6.869813167345844,4.333646621137331,3.5879224102982032,1.7023880115066885
5.550045897915119,0.7060302441356556,4.298481765711194,2.5332964781922,2.2020331680286027,2.2800419691245777
2.8446253187144053,7.3185666905439,1.9330193452629647,5.695177018889252,22.267952235688504,12.144955653192797
9.05268657862643,7.995276597975979,4.32851816724232,4.879269749173125,8.62090108367408,6.134027263955592
9.06820853526311,4.808033182631643,0.7543369888890439,4.172723771560492,9.526148936925294,1.799724901315742
3.6906360750472778,3.5452978187089887,0.8344358761837058,0.7704591973350148,7.14394237909307,2.785936773791575
8.868660379361263,6.1493164968886385,3.825364267021862,3.2816775916075644,7.528504162214146,2.790088729594017
9.091831572973218,3.9553844267497222,3.780083051872841,4.565506186146018,11.119294166117605,4.226456566855907
5.276930624395323,3.700369147858657,0.8541702996251007,1.0649358755814067,3.5518514494736695,1.3797923013987277
7.862244463466395,2.3912411230200585,5.027193721000007,2.0493585991956937,8.3399720926909,2.348437290790797
12.226190685515286,3.0347761841518635,2.4190783859057823,1.6032516396713887,5.933821626186221,0.9355883814786614
9.781235119499746,3.796054158401889,4.593883527232196,2.369805825812684,15.765035115302966,8.209314503773092
3.733958555004695,4.534237402258267,2.5285445565263145,2.984280650155601,4.27863185878001,1.6983932324778914
2.2753465518808285,3.182173949762135,2.295119445730658,2.6819224868394937,5.629025932776039,0.10805147035134872
5.7664475460002595,2.36620713577376,2.507148580350403,3.0405147278829383,5.699385135336592,0.43333542076452486
5.2964820435312925,5.359130388894051,5.316321306034757,6.846430742927236,4.71971612365066,1.6215536471636693
5.608655026452262,4.190034506150763,5.192854194664693,6.66851643293597,5.300383173569663,3.9490028309623946
6.177600836299698,2.055323961343613,2.559795372118295,2.599235257469869,0.749524216405577,0.9061665154598607
5.700452657085508,1.0788852021605329,2.1132287803015015,2.06671772714741,3.418535180465786,1.723472082118394
1.796481947750915,4.215105370891381,1.6659302206806745,2.425797626766559,5.481065043047138,3.2727353956205065
12.029956514316108,4.035005220790851,1.0149375322040262,2.9402184293540947,8.192898800269564,5.002437717994893
1.6680872064190222,1.6518740668072904,0.8445884395878305,0.8412282686441724,3.8351005804358467,1.2073237806230792
4.149396496048345,3.80672102968587,1.1408580528342376,1.6495682790024067,2.458339234076253,1.582537751538351
1.8993373355771856,1.0153084702867765,2.769776103448454,2.7881306782673354,0.549350428868593,1.3363559268124514
3.964817933514269,3.8389054411947363,4.039478515002011,6.3378360937550315,2.0521421814536343,1.4646720551794323
10.035705941748448,3.795399523653182,2.4454722844487575,4.517771453475655,3.7746152131731727,2.317031806652904
10.480887629986972,1.5080359284038296,2.5247004730163156,2.2169763882992726,3.9509287592500058,0.16512828772299606
6.955009647981595,1.098339981587747,1.8212153038974843,0.8700453071395536,4.059935545807249,1.5891345503073475
8.2868863421943,5.304602650027871,2.3896969700907715,2.6164734313451423,2.378253408756312,4.222999291874183
9.839265574093831,2.5699069181800467,4.198424472990866,2.046876575227315,6.9009150225971085,0.8948936715210296
4.7160883316023545,1.9053150878092255,1.999518223462218,0.7168806835672962,1.2456487253697561,1.2836628841669844
1.6466568648258888,1.209423658429881,1.4066853652091533,1.8836086177454052,1.4962154984347196,0.9693217068904605
4.388875856346793,0.1268899568458342,1.7194900560495678,0.4335184301275553,1.7505321127012654,0.5294478743423348
2.14240189131193,5.310868765198011,3.8211740237024228,4.1808395673180225,2.4911524073428577,1.2514959325839885
5.54946969114702,2.0986845498779334,0.9980554147647521,3.0379695988956152,2.512341044720095,1.951311510721402
3.7328982182931276,1.7816861801260369,0.7492612459257706,0.7493252459811217,2.3832746666826234,0.4139187307527175
5.725708536709515,0.5400247308012681,3.077686695392752,0.13951351527382722,4.2113640104566175,0.6262045960902106
4.339463469392751,4.218730954948447,2.947747354089345,1.4881123674542585,3.90388556936695,3.775632771451022
0.624656535460412,3.314707174233774,3.1555002900566658,1.1729066701778068,2.778049186215375,1.7024703279251032
4.341057013973132,2.7294258929258524,2.2913560936943953,0.7096682951545454,1.8464921723973924,1.2888702424560237
2.5073331081623564,2.056612644943026,2.8136169506166695,0.9557837793246176,2.854019318217974,0.5734583009697849
8.163018931511793,2.1810711200563646,1.4406826369560646,0.937917867493242,4.645668931375456,1.2749844578539724
1.6873995220491917,5.435982594753007,1.7525102956486376,3.1517913350730105,0.27053633780250463,0.9236714742836732
3.1703702764163113,0.4630816528190396,1.3869050520152268,1.2460189907989334,1.289733863273577,1.33224434177379
2.1091764295212263,2.5370306559615994,0.2927252434552024,0.8366343709417373,1.562226915750219,1.6651817547057002
1.777779389076194,1.0648611155134533,1.7149297815045246,1.3806152353191945,1.2119897890510727,1.2394207014143541
2.9346210381492286,3.4174728949262367,2.0860475599390393,0.4774829484919884,2.052366601643266,1.9935709006656692
5.642023688599656,3.2108062136430915,2.425490886638551,0.5199273983256922,2.194004854085085,1.2687279465690082
1.227269105472158,1.8972254010354648,3.12813435268762,0.9213922792262803,0.7253971666178688,1.576420768956794
2.246764654282022,2.7930841710655403,1.724601942886588,1.9588862586599696,1.6780474203767917,1.5344352101978551
4.636773842532671,3.3058131168907283,1.615684882827953,2.158865792679376,2.718160078220471,1.4069541041488258
1.7868628440132566,2.436003672822293,1.6019376574500706,2.2947807246472465,1.4489246489298133,1.1798518539028977
2.8705560489828703,1.0666476491566415,1.843005397833602,0.3879547769819393,1.1474669965358015,0.8656194014187018
0.4067029217859397,1.4451931694271407,1.3456942897033295,0.34231663454956746,1.3857742051637905,0.6841093732001392
0.7696493701870565,1.6146240734598643,1.916157138089585,0.9688708837067368,0.46116974094019714,0.6834814842608709
2.0813996115073694,4.226011878457262,2.1966342208127916,1.2527654406972237,1.2374737908417146,1.1017155630067508
6.235905893645205,1.984608291628644,1.9198961924915794,0.7903775520587002,1.9044399077355358,1.255843359486011
1.9650341935083666,0.3503425038602225,2.143583692571528,1.4032149138936587,1.4820503573505628,0.7295993178821064
2.569944840887454,1.9165427331977063,1.0397161077873975,1.785658363005207,0.6978816201147275,2.1079557728361804
2.9383616771989924,3.0686507135005088,2.1053556943094196,2.9725104867193335,1.3691580253954134,0.478007896150727
2.9654809235156443,1.070918256163858,1.1082622767946635,1.2635186569374073,1.2882477058091137,0.8745284945141736
2.956276740045532,1.5011524329538841,0.9848155668467633,0.8358067428034602,0.9018033364009201,0.5038730322951334
1.0741449759659534,1.1162533738210796,1.4088175288319427,0.8301645172284955,0.952043740676091,0.7152632761270424
3.0935436462687202,0.39120873535176326,1.7125552309648586,0.19829242121194043,1.3222196844545475,1.0671839048804515
1.1250477321169448,2.927691362202971,2.0525985690075035,0.7543369044145326,0.9466724823520433,0.40277558880827324
3.5468739027847,1.3406967975988986,1.151234700237045,1.3475506758687965,1.2835438771864873,1.1063940583305443
0.5905431004560254,1.0279077750064949,1.44452118816349,1.009886855836794,0.2994657588536034,0.6137344956705596
0.9862144651902638,0.4845286625626795,1.092752854657926,0.6204610588596827,0.38409781697218337,0.8641555084968816
1.5899527931788928,1.5847344672809598,1.2806119788220864,2.533537862069166,1.649936863914358,0.6575669894380957
2.135428944689245,1.725512230262678,0.920410222356769,0.7717754869706761,0.6144422074228992,1.0171613092619487
2.322425315679809,0.7071187734067057,0.3027690337283169,0.8188442189740841,1.4043677427261707,0.1894400536489684
0.9617607775682095,1.5431412512555363,1.0512228218405542,0.8301336083855827,0.747323303633057,0.7537412960886644
2.765701086012608,0.8258159057836839,0.7309780809972846,0.24072223140857674,0.7295880795948264,0.5898604780179939
1.393412929431636,1.4705307935263956,1.0760965641321618,1.2548865589749008,0.6998317872956381,0.18481226818968907
1.0876167525007905,1.2836001295194441,0.5485040056820679,1.5423149724668495,0.8062479198471111,0.7625860522898646
0.9026617284439704,1.5436280217097993,1.5045919879285263,0.21450267676597254,0.20582838969714265,0.5230087079130242
0.5890298471812531,1.0110792246131461,0.8709372418180145,0.4374392613394826,0.5059215243071786,0.5182117490612329
1.477927258208988,0.35321521325794764,0.8094533739819744,0.7613411562106287,0.6822200735064626,0.9056596724110342
