Gx,Gy,Gz,Ax,Ay,Az
4.049399000000001,9.617614,7.596001000000001,1.963999999999999,472.89599999999996,29.482
6.29148015254805,16.587093540685807,5.008013834001994,2.848855935977773,0.5722959377233219,3.315338855732147
5.622335551191083,28.44008898946461,5.8444779920537755,2.7658240281117017,0.6522573971894627,1.191423281321428
5.83507440282415,19.16346018404965,17.614658764394044,3.4734001949059086,1.5479093081204751,1.5306066342521596
3.3587691156812944,57.712844920921164,23.684632590218563,6.272440634374876,2.024661997022888,1.8493534741549622
20.321832918308395,153.51801581693536,106.66066986020921,14.810767627118977,7.8299635713722235,4.186476689021678
0.5753402282702191,28.868521597659836,18.643129238598004,3.64664083513718,6.3284979206144065,4.456672672121467
7.079305925403141,20.12923882779919,18.663904600424875,1.1302114433097201,8.781898067178169,5.626583566367989
14.224310232682406,6.582358563660661,14.102551292374164,3.8359092262582006,17.910339649290528,9.889393905299004
22.613339852041474,13.49683060059657,16.702340639226346,3.1278668571862402,48.083143237389116,24.861156317559402
39.48001669033078,40.13024513560722,13.254342272870126,1.6226495595225985,62.764585238403114,32.03188097902462
16.36218509921237,10.407473872521065,11.974614736457116,4.223888486809751,14.111655543378435,10.912492431606116
8.265136214893879,15.526276065197903,10.809005454819246,4.15208666987662,12.57311442251099,5.233104928772429
1.1579617276188712,25.361439715310155,36.275229171600756,15.025060046652378,9.526128459735745,3.3726502040233575
9.395292148833178,72.19289265055254,99.89735669687546,37.51071542671917,10.252501994681497,7.595017717395674
5.642927911313272,62.81838185779559,54.49782767685442,26.83435238110496,10.766767527682685,1.515926857613214
4.392852646359455,13.814653576152002,22.123042211362428,4.128378666399821,7.889870156815137,2.875377074231119
2.962451548413911,20.632990080357338,7.89241977460186,6.595742358239335,6.095948509000474,1.8360458560044242
3.0321864896322235,23.848714160402114,7.251463637819121,7.896738525004137,4.85692923302074,4.980337215536251
10.249975639741265,12.250765978582052,21.55163116636473,6.122590442381841,40.377168173074374,30.042631067483327
9.000018135865275,31.070776400190617,2.645459799431596,10.18806267342431,9.67041255215856,6.635099135571799
0.6158529087498948,11.679601151255667,6.742773752616354,2.683980822288369,3.6608253587060937,3.148906492045594
3.469025918722872,15.711847497267797,6.942419682996025,7.171181327365382,0.8961793152116695,4.422889928178888
2.1857412866965324,9.109627872712354,9.106064347725537,4.406639681832801,3.175800330939103,1.9957193685403494
35.96377963292709,59.98486838096771,31.400030746330284,37.060510873359284,9.839526053543787,9.763443358106297
7.221978307352852,5.957311561973413,8.399856045219076,3.8930063104765873,5.811598742965063,3.371260692819651
10.784712575739022,11.22198405489903,8.304616859043719,7.056774145103082,4.531876235077858,4.70319542350527
7.210689398310954,6.354835651510213,6.407884531709181,5.263964586982961,12.035599412460616,6.605435490488712
7.702418423409235,10.787087157719359,7.65649006041056,5.148688107481415,13.040361411410462,6.6893977683756995
20.0351135738507,10.042610927342608,14.837123793740421,5.181325064786777,35.77958489760983,17.719957775012883
10.548530260674307,8.099227564312281,2.227908813660426,5.933824072878933,2.1173525808903375,3.512187973886426
7.113614231691266,10.61656250993604,4.016883911418674,2.434321966870563,5.556144242964413,1.9267360618912037
1.4554760861438916,6.209985500001444,6.065212888957398,4.194096623366519,0.8357562618318448,5.631388640969275
9.602907924781888,21.178926804699337,18.274141537986452,9.316312514822897,8.51340047497213,7.255709029095786
6.979289523576893,3.678086569962231,13.993743995768494,12.300631661621034,6.719255730076625,4.930629951383092
7.356743937080614,3.3614968975716,5.49205126329969,3.136904821273161,3.4458962001912723,0.3799152589644497
5.37792471898246,2.478232120505937,4.584728438895314,3.2357898266764122,0.6720004614305527,2.018465629355679
15.11194417921155,4.273431983186519,4.7620152379940714,1.152448162057016,11.136315704725948,5.649572260532415
25.90439963081737,14.361748771038336,10.16838399393144,5.343878145953115,22.055325024953543,13.680758736326162
7.346215886508775,1.6735734094737138,8.411864848151337,3.8814499260177793,11.527025863877263,7.200154013518825
3.166084772494357,2.1211035219734153,3.1677423113361867,1.7182477427583074,2.247319145999781,3.0509070844993937
4.853079623032476,2.3696321898034203,4.1770483229287745,1.2273020534183723,5.291442963498954,1.6827195789346043
4.680679923137372,1.1593179467246715,0.7533772544140737,2.011818501333844,4.224422276237743,4.365931963619494
3.1851472188214185,14.960178042747314,8.128855817781922,6.5869537335686195,6.099627101354066,5.17618276568027
3.1642257016117132,6.265459176350115,3.123992731329743,1.7879874051457905,4.844760742347975,0.8282958189667341
9.138147245545408,3.3317181670179066,5.192907166335723,3.2119750196357737,2.470118273540018,3.5322488243103387
3.4997716964696806,4.1063561976888545,3.6634171907924284,0.6766462311888982,2.151597870788024,2.8559127113118103
4.609739423550173,3.947113165808427,2.6645766220366864,0.981845455860883,3.1633893222374545,2.0334351469319794
15.11418524748784,7.690611645236296,8.606035255947702,2.5347207351165206,12.421667136547212,7.399348786768699
1.7875874986923914,3.996816968134374,4.988204390540174,1.2518914944462454,4.256168707455165,1.1690475880916618
1.343941712620402,4.066792433464712,2.689805704293192,2.0903641797288754,1.9861854910088756,1.605252133482265
6.0851876473357365,4.135841929039541,3.7863356800762187,0.983785605299242,1.3089811825117013,3.2470688220519897
2.991984591040814,2.903308195473448,5.373275124265575,2.1922636750352344,3.9043910091735854,1.9509509567529184
5.0427643551465495,6.421407877140972,8.279443017072845,5.149930839106975,6.463019318393553,1.320263118191005
3.231479757896103,0.9048620814710604,2.612138421706624,0.42821682140593004,1.209745497535486,0.3499811605751271
2.5118510886455785,1.7945943597188483,1.4314732764232165,0.5009077418901269,1.7301779500828027,1.1244733740281778
4.917483855317542,1.2006967041992778,2.7253264443112433,1.754232897858834,3.015568999928793,2.230141163487104
6.17376393122356,5.4799464725278275,5.48269855857144,0.2743145327736806,4.583492700877485,2.8048541343382225
4.831884381659598,0.6292420519158844,4.79693236476336,0.7892633256939098,5.393818462445603,1.2267786868136694
2.806840147383647,3.0919710674773766,2.3342288538014837,0.8380794985078577,0.41658418966275534,2.010852624438428
1.6457439657229553,4.0781798440980905,3.39989388956896,0.8869353745122656,2.284080494517151,1.1472633268516201
3.1290292375874014,3.42490741777695,2.7987384738450087,2.781344925689197,1.9661534808010652,1.975074895704096
9.758274624484779,5.418904955768938,8.032155984522964,5.5218231512857106,1.732624812338161,0.9534245344625393
2.1346124491542335,1.238865300323408,3.2428698750473224,4.427392386990258,0.914969682508723,2.6165495589117724
3.3079416408180493,1.8117361153045035,1.7386092892055334,0.9603375229517785,2.34239872982253,1.682047928303935
3.0994196391164857,1.9368849778993396,2.4735816110309186,0.33738369093491494,0.8744231105334624,2.6646460008759867
4.537153116742748,0.7166975962962935,1.5328371191566619,1.5108169605021826,2.59677231484152,3.191499562400877
18.07361522154096,2.406238538917388,3.8049032472832076,0.6612756389416673,3.1765484146426286,10.279511323807196
4.375799179617672,2.5670748763211155,3.0127390362762436,0.9256769923818247,0.8051385482400525,3.309281966214791
4.457071856860219,0.39707252305420854,1.5133053536430747,0.09761155316738872,1.1925525210939927,1.7954118006292974
5.967547847306364,0.6323749741960991,2.2121389318335347,2.205186520491439,1.3940863366743554,2.8066077552075646
5.519318247339439,2.4220304693466117,2.756285055009454,1.3050309501844146,2.628806615736351,1.17199621601089
21.53169130439812,2.525985746765951,6.317068600140523,5.029554041209227,5.730577676968384,4.279663981699754
3.346968813824814,1.319449386356109,0.2367202141922247,1.9205492911590278,0.7935286105320374,3.280045718822426
9.408319203116326,2.101192667918658,1.8664872399623396,0.3846075209978136,0.6103940100894567,1.7747973462808206
13.260757802121372,2.4157485642202663,0.9825208165403923,0.6548601306699173,1.9638799860535188,6.126178282288218
9.435957649550174,2.3657686968575273,2.1550507938863253,0.5838149191441498,1.7605633369704796,3.25438133803156
30.03216850558471,4.10254830107948,3.4350721074847717,1.5089947903482253,5.584770326261689,10.901350271052015
3.939483314184627,1.843445302907639,2.095468923894589,0.609459580311893,0.34241212164405715,1.581730595378464
4.518886446335907,1.5250512200026967,3.331173172964636,0.6987907290816757,0.4540386682941284,4.110513964237022
8.092846822035813,0.5491368119923674,4.394264719883288,2.169250737644881,3.122257154986909,3.7581748862115067
11.903626984811245,0.7943588055929568,3.5442435221486823,1.538578071782623,3.514217812622892,3.1981270893367415
21.75996251230649,5.70471651031662,4.8744754466665565,3.9944350181328594,6.501643780486166,4.612346236976487
3.4747023827719223,1.1137257219479981,0.16185440721143884,0.7088712651303174,0.7762142737303032,0.7329205659161072
7.60306184725418,2.57132086081341,1.6449943768735389,1.1516826738651238,2.076085689460174,1.620959195268957
19.03795153349373,2.043254327712614,0.6113974915997017,0.97436198271249,3.8715260006927408,4.645985493558731
29.466562770523474,2.870678423788363,2.297191019641393,0.7979412263029685,5.616304561004411,7.314419161633075
24.212580014554923,4.891088769746075,3.8681377226486995,0.9374337209882091,6.7909380528316365,6.572947485030397
2.0458555560395424,1.509758724632892,2.9582929506307902,0.4410159034122566,2.0450615847019376,2.8692967568674894
9.636623188568594,1.6442315727996146,2.771320893238825,1.4610356655162402,4.235517202365777,3.8374601779265647
4.207457566777671,2.1929231079045097,2.971041220193684,1.850534422602834,3.901777354110303,2.4924670795210044
21.908241556183192,2.52058247661385,4.62811286070314,2.3567248158683953,4.921151648163544,6.744508982193937
15.153612584958534,1.9145645446997617,1.6548064199487165,1.3246080255992823,6.0906722677316205,3.911049949404653
9.017002491475488,1.7477924233725755,1.0675951255819385,0.431302549203002,0.8656396740936897,2.8626286055386134
12.647007879762597,3.3667179532208533,2.532456370282866,1.2539082094486762,2.8925885977070305,4.368875913961438
9.172594114024381,0.907042002734803,0.46776347337739776,0.5445826843636168,2.684958506165493,1.0940159391764714
34.00674071394803,4.183873143295991,4.967696878494,1.5581473237599355,8.493500227609063,5.4874270959223175
5.1801088158138935,2.684353516484667,2.237107724067497,0.8742717149637959,2.085177856350339,2.2754798443397957
5.330789161298116,1.3833513896318599,2.316978533260366,0.4486870241098565,2.022966955251437,2.624982860306625
9.015963760099902,2.0714996022457424,3.4315413299375237,1.9662119027904121,5.745236128301898,5.715740692682419
5.342634218987381,1.9210191970730446,0.8807263783228716,0.6418772498826469,3.6956778835897515,2.3572606703326544
21.596338346344297,2.64419822121051,3.1659910109694915,1.1257979153443856,8.367604455148706,5.1488892950012115
6.83738601075527,0.4463368109580464,1.336384919855433,0.6884606542134342,1.8758887818965009,1.147614716105609
10.554928829002888,1.7120152732341627,1.5875763051206866,1.0466358288027409,1.2526499609392974,1.1270866886094395
16.90501564249915,3.728163953300506,1.6678014296345098,0.9672077893263396,4.5526434263673705,3.1547527993985653
11.860736348150695,1.4394243940281009,1.77046367591353,1.1439606952128405,2.8975637478480776,2.354302665969836
17.22981581550151,2.9281639862813735,3.0152568534034567,0.8712415242853915,5.661598090669971,1.9838742454094254
3.611403527074612,1.5115558940121658,2.114785421700969,0.7326239877452219,1.6318387751566494,2.4868298226324828
4.0466596571460185,1.0890185450944065,1.783875078439462,0.4021304570009377,2.3410795079659628,0.29347159166054004
7.791664760897786,0.2848505789119808,2.143934581689585,0.8955439854856,5.17772152459276,4.429605249151911
11.044589905129016,2.248018140191414,2.5017211536113453,0.6706823243001393,3.360325677082222,4.482992955292971
13.9548521437848,1.362646976833319,3.0706863935234114,0.6055733344539153,6.07864613817153,1.5010387560664304
6.953714340705986,0.8746916799696898,0.7492327609791452,0.45709634302437696,1.2441107723287967,0.8991967435917241
9.237245723074814,1.2112454876502088,1.675779531534043,0.297451301440708,2.2054965704440335,0.8900691624652706
9.74781638262157,2.1224312101377927,0.7491837615378967,0.6693323863774137,2.6209481376433645,0.37261141580607227
15.587243479060964,1.9670216913154597,0.9616949191886736,0.8041364447780902,4.471405323219351,0.6662492538422161
2.124499271903308,1.1293242045895742,1.918947596672164,0.2479344177116522,1.890937006010653,2.3195017648604246
2.6678852477821726,0.6710879475700489,1.6844383621297425,0.5704703725949704,1.5261542271165467,1.4672998549610663
6.220814910153202,0.7247563016675167,1.317247641466314,0.7598678391544851,3.1153934668054726,1.7975792482782051
0.0,0.0,0.0,0.0,0.0,0.0
