Gx,Gy,Gz,Ax,Ay,Az
6.2563720000000025,4.478146000000001,3.2305420000000016,13.352,457.562,21.933999999999997
6.233195798280685,11.045853527512222,0.573520146231987,0.8919914024734723,0.6299148606233166,3.8523102036337056
3.7555665837815013,9.619701516081102,1.2997065828446335,1.865357708657487,0.2032406108402231,1.0891888939471586
3.3262386949666447,4.337185403022608,2.8573812493661532,1.0637542903953656,0.9052101232478856,2.069618356527976
11.325268247356538,19.907388253651042,21.00093979311979,9.051411564446118,2.204424051873818,2.0951584100675604
9.163075611311227,18.330826901580487,3.3466134652720902,3.495814360320709,0.7926945054000972,1.710691535401021
4.7088173072929775,14.609192744932042,0.9343285515892339,0.7418521349690129,1.907174188602632,1.0028184464960337
7.72733935854213,16.864507918284666,5.47137362199807,3.708488783722203,3.675013389584988,3.3097914028512925
51.85088141569558,14.369224283994381,2.882666627068505,3.2463935418182217,42.716655911325184,34.74855429692109
9.308512674295963,6.1192880252523185,2.333643407935591,2.8212138318759346,6.041551462630118,7.073838052121666
8.613705764366818,11.221767449595346,7.306160050033155,0.6365357016157117,3.6662710398742453,0.9185837015562345
4.3563473022783405,8.335196062739383,9.725715238821786,2.2485828635070675,3.508268942793047,0.5804684832707799
11.811001213811394,3.3626700568862997,40.10188152896807,6.95012538776015,3.743442430886003,4.034149365538063
4.131271132139607,15.360359374719234,10.758167915521348,5.158003877333591,3.3098122316004575,0.10498673518468075
6.248073727227984,10.340675970106895,1.3264885020398633,3.5527216724099797,1.6536426269189395,3.594117003877622
1.9867396213935973,7.007815479595182,4.413167008778367,3.4049867871276978,3.93646294764213,2.9678740390605833
11.676154090334999,11.673681754727646,5.9105143450309505,1.9641240601592407,19.99347247220666,14.863885260766246
7.72984082269923,16.760144928946886,3.395050974476978,5.273257469298264,11.929642325804505,4.3617763521301205
1.7415692743705324,5.370378427336049,3.9926969774309407,2.2585283130243936,4.920700551450884,2.7552523487712612
3.532803294910247,14.46764317664857,6.246359801755378,9.397253917437851,5.17295173389968,2.9221099722262367
0.31705570685447243,11.310869707271397,6.34092680665358,12.449134255784562,4.933292990048564,0.3516086891192225
3.6996587630512363,14.53248676349933,2.0460420763535283,7.397989872283931,1.788764550230801,1.9085944096380245
3.2249848619222594,7.425996216516737,2.9330814568633867,7.288568399363277,1.9818297594210077,4.895322058474799
2.8119484648526427,6.528498681412615,4.00258528892854,2.8593853782901744,6.726859546450288,6.04689982152406
8.956360547408405,16.378446410559267,2.9414577167855795,6.61551434199574,13.219317001470888,15.86253590565262
7.31079089753855,7.012030388779787,5.163689794951841,3.9254498352040486,12.487634917194542,7.871840734028639
6.053105791758104,12.465884162590026,4.390005492102402,8.79390706534198,2.340652227145145,0.3414259179308708
4.287159661584152,7.11553190207169,6.112293017568121,4.1944284135394145,1.8898723670905304,2.770748672586049
7.3430729880099905,19.672365517998433,9.234490904436749,14.673980319244066,4.027791253470076,3.9016367326428076
5.015735751684103,15.775568878597642,4.386135922393611,13.166545681318441,3.1203112531472206,2.885341175724082
2.8734981173688974,7.641633573606058,2.3207079475905847,7.441684264734897,3.253085194102022,6.464697733608114
2.31169201699022,5.175178958013469,2.6956595741015072,5.275542220831487,7.155123724368631,5.300105106603525
4.638300709149895,4.270688670220207,0.3402190397390988,2.520142124706986,18.289489583222007,12.058237970109232
1.3648761185747893,2.520835499634559,4.265590717387631,3.3538799203164706,15.29601109981948,10.251773770131154
3.8319850428236912,8.459367198208437,2.3477514206243266,11.938712787407125,4.720385151051782,2.1109652867296327
2.96137169250973,10.728521843380546,7.371002197898285,15.035792422275035,5.0134375755558915,3.943367847258475
6.475979912467657,16.447168590052563,11.208013864633296,18.375455267503153,7.91957721848077,4.707096435643421
4.98629895747257,14.395752662939397,9.610849399960845,16.311216203347158,3.616515281946421,3.604145262912074
2.4313348775341472,4.248711413579554,3.8556449243643125,4.912821416606573,3.534964454008941,3.07216294741102
5.281615266135202,3.770777498785898,3.6147743578532006,5.951573389310366,11.728477882116774,6.108269361811325
5.918990768934781,4.844987957554201,1.765479709954197,3.917724909081196,6.953722235518244,6.356215731616939
3.46042980638432,2.0123958855920523,2.424706600459119,4.520299215098605,13.316330868662128,10.742797933700226
2.24722008878569,3.4162944982622268,2.908415305429129,8.223774839188147,4.722022211124639,1.5553516630309652
4.030537512945309,4.35240489157678,6.896909783939781,10.503522536844727,4.049811719479909,3.5253050006754516
3.145644889446687,5.098570327692301,4.118495996962539,7.283085181284528,4.859981147960404,1.5588895715108495
2.7482227004780557,3.0998182554188545,7.358091673551632,10.172291977449824,4.690315245195715,1.9682322201123144
1.119374135543699,1.4629244645202844,2.400716649564692,4.4085787109812875,3.3265391813182084,1.966045876742086
1.6662949217759921,0.3252201965308413,3.6608493539468907,3.1817404130161377,7.823517069447502,2.575634349532459
0.6099747367889713,2.7183206686175656,1.382537039688381,3.48882659024764,5.151828504014163,1.2217547793800594
1.9767442225563359,4.930997579799968,2.5664375441045317,3.133709358442122,10.776249736843626,5.50856924860042
1.3667723031849657,0.5879477086203251,3.4832177652271565,2.006193623555844,2.98158573232675,0.3085824918923491
0.474983932831165,1.620866949490773,5.952232951507747,1.1172219604148037,3.8873043548216697,1.2678234845722653
0.39679669782715726,0.9133518026556646,3.3010580236319362,0.08278982943414002,4.058590559979556,0.7135364277571349
0.9223259797956799,2.0924305775902092,6.963512008607041,4.049980233833074,3.7497881898991112,0.5095668543861126
0.5597908930880992,0.3710525876136456,1.6766053792437932,0.9312813993615011,3.714830202097918,1.4390766719219636
1.8919626405266032,2.6261705150518533,3.7726448080778474,0.7547413715669264,6.104022554491988,1.7923552200095085
0.7659517224183328,2.2704969069085323,2.327585751794529,1.4471713959049388,2.9972022508109046,0.9093795677899414
0.7186257039424373,2.08248723702383,2.5070727194611653,2.817737303590472,8.701213702062057,0.4180091420254481
0.4050310732295628,1.9343533657703893,2.3013437668378764,1.584700087931671,3.5243485324067443,1.1373888240955055
1.3985087217159127,1.9444224853008927,2.831783292815628,0.15147011118959375,4.189178235764865,1.118559550714148
0.854562500366356,0.8651873901701234,1.2531179181665224,0.32771973559760725,2.145169845139244,0.8166525300329306
1.2243918939725102,1.6525972554919335,3.2293156905322244,2.451718216563147,2.011495897949039,1.6130442986044153
1.7915074739684402,1.1441457299334021,1.3845868636957428,1.8269899849072428,1.6447125392725506,1.0000343230194435
0.8292458902939849,1.2394818043170004,1.5038864267591263,0.7307878483230262,2.573111130414675,0.512355434703625
0.822457014533485,0.7535164215504637,1.317873214685682,0.7756131154703837,1.89760238265812,0.28178933171034504
1.2786958919550464,0.9067558735210933,1.0497673678961101,2.3879269965835364,3.595855289114143,1.5929802780648232
0.6959692910693777,0.971614345344266,1.6266059586144068,0.4732464837628265,1.3798584946422905,0.7767483193813158
0.8762232047652035,1.069244366968788,2.016169643895089,0.5528341739797439,1.406921341809171,0.14550318004405355
0.44535283455427954,0.28497740348152995,0.41142843624287934,0.8226666887311586,0.9999520537452551,0.26326874670974515
0.7555085161279728,1.9534089615446948,0.7935814572342506,0.2272960633061319,2.320527146617485,2.0240234152002907
0.9244595356444396,1.020274951451952,1.2101838000068965,0.9165419185265471,1.5345141346155762,0.8485907693728802
0.4835676566839766,1.737704059462493,0.18003967701697762,0.7195151623041991,0.8487716946376866,0.8390025886145338
0.18465488821334777,0.5820536057130755,0.7195748631383468,0.5616416132583606,1.8162325006496363,0.5958596206750133
0.6375579647343508,1.3260521485803902,0.6932786204099475,1.9765046019619557,3.118587955848339,0.4792980924333471
0.3959434838705814,0.49078121989421125,1.3286965403066495,0.8146350882253095,0.40312696792800096,0.612048129747687
0.5942639734606762,0.8221921957811409,0.15148676260233032,0.7087606020597402,1.1582133751728443,0.4183161172633246
0.6562619653933823,1.0750317169686658,0.592222252806063,0.2502138344111666,1.179875182543167,0.4260399245700713
0.6351653215362557,2.034417442186447,0.6497732111308899,0.8977840829966602,1.2723692584578623,0.8844137314425089
0.8445345369338143,1.042033406757465,1.262850898599652,0.5951937871624887,1.3347028246359223,0.3824973864265813
0.8256723667528221,0.23921303073129466,0.7665789276058268,0.4611581339575334,0.9519763875688939,0.3320376244156123
0.5203042123166411,1.0759895485247981,0.12924487127093523,0.5152047904619642,1.6781523760463277,0.07173402533763049
0.61696367767194,1.215210144087581,0.6021622433760696,0.8138374756288419,2.711759950421622,0.2726580548591618
0.26501591837957944,0.5923506328734457,0.7390040830988248,0.5046194058889216,0.6804605132231203,0.48965975928239314
0.7536000181398955,1.2211035428196424,0.6530010403002912,0.4823744891001954,1.3073077531755704,0.9742016672817768
0.16522599186381284,0.9503396630095752,0.76742846853045,0.7427722031437282,0.7714859478982545,0.29986940571477494
1.244241867997848,1.159786059698788,1.0623470436541895,0.6045643248641394,0.3068823525211269,0.4855149786327511
0.667416967054254,0.6994614488251745,0.8518648842309127,0.6410355368653863,0.8613316988800747,1.1505494395964344
0.5656420497490787,0.31518659119912956,0.7952808720955323,0.5220891446378065,0.17977500771909663,0.32515611802239724
0.24915367612037684,1.2498301313931635,0.17404058105995612,0.4981883755166425,1.2263350135453364,0.4158250095593816
0.4673114602244804,0.606537326479679,0.07822329259733836,0.5851155977276589,0.8195033137441495,0.6983888574585744
0.379955978754103,0.31989515410714275,0.6833678231625524,0.3673101126222125,0.42695745621824993,0.8495348240977283
0.6816727747868812,0.1279445501834847,0.41270211090284414,0.2899050683799227,0.6582383080619632,0.646085670582066
0.29936813361680487,1.4736561395427115,0.35911534094792313,0.800053462574043,0.10797830659890756,0.6394064602436801
0.42969170565916465,0.6734925224669208,0.5610800364423147,0.31049908664067405,0.9642755028448959,0.7142280185536914
0.6093671022335408,0.5203402151527997,0.12675001823868362,0.32378152128419235,0.8876743987543413,0.8137220764716223
0.29970750201542184,0.47718425035908296,0.8494169346116138,0.6233610117821355,0.6841982445116617,0.1891639667181856
0.9509176295440257,0.23077782047344034,0.3063986797876218,0.5563910379987499,0.5071334027512674,0.48007935458421874
0.16949652972531457,1.0743743360107056,0.5647992092901687,0.9176651100174107,0.8797730219812518,0.6158651626691385
0.7578011225086116,1.1104540556229747,0.08607784793430898,0.27290638579631527,0.4893451098714576,0.5314237473885763
0.6672100444660249,0.6483280722638722,0.4825589001391632,0.16665734169045024,0.3620182639008541,0.14617319960686478
0.5171204088702607,0.493868617248091,0.5465066091003206,0.6320993461130239,0.7203725072688824,0.7041251334675386
0.8989225060222938,0.6812383095561644,0.11128842901152311,0.3838520228471253,1.0985596542023446,0.9520417714480802
0.590021510901081,0.5556300268855281,0.3942350938954168,0.24201200957885868,0.4237567670760744,0.9091193319369523
0.19723859939327384,0.7986181359227827,0.18341771103148355,0.556787622509232,0.4333923529645875,0.2140375271500919
0.4714078736110198,0.3624579721224557,0.20750310300407293,0.26382505988939614,0.6921128774548906,0.722341230484668
0.5065536788436804,0.5461226736896382,0.41075455900009783,0.9429438061441477,0.37545257017472067,0.8412084570976752
0.46751249676226925,0.8764216627564864,0.035102172688078734,0.43750250121899065,0.2583223249714447,0.21194006551760802
0.3935374599816655,0.358353792336309,0.5444402314818074,0.3323884513078553,0.1156775870045616,0.19180178155492184
0.1457936620208028,0.4232009452855311,0.4931207158512815,0.15559816411052385,0.10347627463901705,0.3227077198238973
0.9196172676430521,0.650906270308281,0.6558414590487017,0.4392237026250662,0.8888822616383566,0.9165452529598399
0.5686300518693516,0.5524359782144594,0.24972942761046496,0.32186474416645483,0.666417968173951,0.5848096420950917
0.6037610431411159,0.6239863012096701,0.2064257953127864,0.3499697253742756,0.29101544003256385,0.41634254688383504
0.4354513317449396,0.4193645803988963,0.5538437471006279,0.4619782016391925,0.6446539029070699,0.28303001793156013
0.0,0.0,0.0,0.0,0.0,0.0
0.0,0.0,0.0,0.0,0.0,0.0
0.0,0.0,0.0,0.0,0.0,0.0
0.0,0.0,0.0,0.0,0.0,0.0
0.0,0.0,0.0,0.0,0.0,0.0
0.0,0.0,0.0,0.0,0.0,0.0
0.0,0.0,0.0,0.0,0.0,0.0
