Gx,Gy,Gz,Ax,Ay,Az
28.088634000000003,2.2544090000000025,9.523828,17.396,631.29,57.34
16.78468184672992,13.211112173868512,3.01965210212318,5.022422025165313,1.8067694879904592,9.35012113360195
18.429580086925352,16.529184974203243,3.514183166634819,3.316595989916691,2.257856688619679,8.429384545053546
10.425264153688307,18.02515209671392,7.780402829268044,2.3239737165117367,1.2087720577558851,3.4138204251061817
4.605041147688816,10.82773982842269,11.403256489143997,1.8100768407744443,1.7361319845237166,1.108785839154059
10.371830259183199,19.8543984255275,13.187977688108024,0.8059933750792101,1.8004736895593667,4.053676924239662
17.64636966760252,78.34558612428117,70.50276430663888,7.012737217958645,1.7252881227685362,4.659879864850226
9.949997458009028,103.80631164828681,41.1532177841436,11.643937619122523,3.9446118455518797,4.554143976292771
14.835746222875587,26.75588879665039,29.520538875015593,4.5098388325019805,2.3843963200356653,2.4221463164518453
8.368236821876964,12.893171027419863,18.544527257537187,4.620823326305479,6.195997453989373,4.00111813895255
5.019418210411917,53.21272256767979,18.28460163330658,8.98200189598033,6.542909542307915,2.8224630909049564
5.845039006414716,21.54208678541262,11.003001270052037,3.1296230944455656,4.499385476105896,4.540013149453145
10.602233948164264,18.516312509660697,6.405466843747406,3.3701138959004178,48.07210561834969,23.47552511532909
47.1789311519846,27.509850345131127,7.954070805122063,7.100257773304736,76.4008852118581,46.13240855666963
22.448232699397938,24.905951799969838,9.957155840009914,2.7745187021196407,23.701358817239235,16.345145068813487
20.017800801469985,15.519489278462785,14.614397238667594,2.4416939016014565,13.174115718443936,9.599068911624723
2.414415955746329,35.84062166491642,11.616737036135351,9.691787320212418,4.807955131621145,4.350807893183358
7.35685880273864,18.212216174395802,21.859181171162355,5.7474190430543315,7.144901113062575,1.8010243071552576
3.634031163735822,43.662903633142356,40.49534702965922,10.755111727287517,7.222505362058391,4.642123413014842
11.435135155045181,99.01393111830838,78.8733977108614,32.333072995789635,4.666825227465596,3.5765870255859307
11.984125482153358,30.87116109462259,14.558699609523472,9.092571891183407,10.674481753404718,5.23240916588602
7.0853876302681265,73.99169146322812,28.958381427884728,26.252748704432932,1.2152907100997528,0.8260552075691127
14.440907145622774,28.823239945368197,29.240699435221277,10.561968688779343,13.464008792588386,3.594548630757845
6.697568329572175,29.08878540134557,16.494869516694212,9.036604694508906,1.0274067562913245,8.527637981403261
2.907364927191409,16.163464346407316,10.26122880189097,7.8703113681604355,1.5364054829277614,10.011514673598551
23.000250098466555,17.03636291485113,13.602836199697625,13.179082725070563,9.924404243393347,24.636937033100736
6.164402435868163,21.457251599737702,4.705558789919687,9.886675566758965,5.99140891910231,14.51279814294891
2.525337490733631,33.572007437206345,4.900293193222227,13.622100816444734,5.318850179258748,12.466477943321873
10.73216718174781,11.082068133285542,12.41382373255012,7.898155739259928,2.8307400603582606,10.815257197556333
12.047158926747436,30.25977491807653,4.539750176376364,21.91399763197033,3.2342228818502208,9.675974991169797
4.583477033129285,4.103280403380733,7.220785688404476,7.216239835896707,5.682037756016029,1.7955298636715096
17.259445597558482,39.01307337423624,20.51220175096064,36.21434667519003,8.826559326281409,1.7102143709646194
18.438341590961475,22.53221180199298,9.783162878061168,40.17365576592094,4.215456386785507,4.607876641403567
2.4258156320546025,20.647719721687764,7.085259283674179,20.222845433051386,2.245380949275976,3.6704660614307048
4.481994114277529,21.34402019192494,8.147836924418455,14.876201237395211,7.348527544694209,2.3223612625352974
9.88462352857626,14.696201403686613,9.310371246961012,13.342981583594916,3.1446478723450237,2.6051215711606845
3.6749189737219337,11.957871942237428,12.677076369673873,14.671237683140808,2.355083215028687,7.657357220019516
16.76846878741206,27.675477072553626,9.092110676251172,10.566641409665875,4.867914487772325,12.06333437579719
18.242745612945885,10.817399591753473,11.408379518944649,8.004354996693047,11.569971246768498,14.793675092642857
9.025231853445483,17.724733358840446,2.0576095290387393,7.694018780493817,7.962993722391072,3.476166151033087
10.73096514805583,12.857908627860139,7.912251938274675,8.483310170401307,7.502207621717708,10.00423789805345
0.6574369608876702,8.490472247251516,4.468624670937035,3.7052182777817544,6.015922577626861,7.306670544215651
8.01906214481374,8.210433982265727,9.104365188881388,9.692464889559963,11.399302519859264,3.51819255185637
5.3665925221277355,12.146099885982618,13.524286137939818,14.361052887082256,12.520811332119917,1.7501666627894812
2.2566074663505904,12.778595154406057,5.606635899057301,16.80923553995118,3.7079207822819296,5.720206572483536
8.389332540482057,9.817061884226758,3.500790094898762,6.811184538628464,5.487826006883617,4.897964660812081
4.360409301066727,10.001148078987582,3.9736455714041155,3.900722444079847,5.152520843087316,2.11650424930556
3.7354615265924216,1.4012712893327015,9.736696923857759,10.763331108010036,3.6272848202751917,1.0437203985233603
2.5778747314069115,2.3297647116928606,10.048237951529538,6.497252510790452,6.0025614636133895,2.6010836862551043
7.480527631655951,3.123680935507173,10.599456781480514,5.609102871553009,7.705999677632318,2.1603717729811454
14.669605541720165,4.3544738901564735,8.373494748817764,5.889262443783168,13.235757330574405,7.651461458984361
8.086371147603971,8.520168956263973,12.530365717447703,0.47830464202899026,16.93677260545733,1.9721495504856825
3.570670706734515,1.1744833000231405,1.4252816857064954,0.6260996959615505,15.035674374821971,3.8385259324728866
5.622295309207416,5.669828405228602,5.2272890744254,3.119508469590712,11.499725046503691,4.011026649291499
2.2097941320032586,4.212454600603905,0.86212382360171,5.181556649728784,9.5948699520449,2.2540648505117558
4.378408179660189,5.839944928672117,5.042222546539566,0.6932981189172029,5.495295996550443,2.678980310440882
5.899164393492129,6.384261677826675,6.466923566189359,7.83311315995776,5.005828933417822,2.349964470725791
6.482728244753099,8.682869837983233,16.92284308967997,3.885809124862673,8.779417625480878,2.9100484189021154
7.314022227553947,7.901678790743886,4.840421975892307,5.252848543665775,3.1591226486951896,2.674520325393428
0.5515612440465965,3.6963633809586294,9.648608131044213,4.3181323354467045,4.916105543608588,2.639547017945913
3.512035054437304,6.613017151895893,10.917570611697464,1.733520284984608,5.983220734635195,2.4651375284845956
4.250769079705411,9.337998146063025,7.242456093261953,3.6210143719579766,2.1817056307006104,1.8619893516960282
5.105510029557151,2.833976092316013,5.957438827809994,0.9485924989503641,6.766456104299943,2.552541586707605
5.670300789820423,2.591041421258981,5.305126433461651,3.787502030949784,7.954740943825069,2.5663834952813054
4.349257968618413,1.8331243361227394,1.22615494450959,2.0006504764449358,4.544637279814939,1.1557137550809105
5.6029258089506255,3.541357470854733,6.597832508181416,0.6937972478256658,8.27361942394666,2.4471891899032427
2.405174364597662,6.879035572395699,2.736168911841035,2.3009480300935152,8.622486658647242,4.459715592156443
3.52153140301253,7.574190717328041,4.573115967805758,2.194867366530263,7.590135267106505,3.9781821086467284
3.531056303519735,2.470906931311709,5.762088934706424,2.049515959486799,2.98614745824482,0.8699382500484767
0.3288125151267275,9.567597381019475,5.8311498171056435,1.5534995174904458,6.1430850473018435,1.0471684297623503
4.048237931785014,2.0988465734062562,10.849718291890424,0.8089800110138197,5.000226231983933,4.1162708712668845
2.129115272965776,3.8357926418539914,4.9056487369641495,1.6006595568880513,1.897003993040514,1.227599753144204
4.119618911643626,5.389576094384775,6.13840220833438,0.6869496807608341,2.642522932477561,1.7277752367966428
3.235100095320692,5.608171130024081,6.459026576122171,1.4098638272038866,5.098921194052927,3.524396789146061
0.36518582240680775,7.015579391183424,4.799443342822524,3.247560169315424,3.596062903468957,0.6747295108876509
4.8370402750819546,5.4816943504474684,4.384383145158954,1.1680457128350914,2.3137324952575606,2.038691037552316
8.6682490246276,2.593620789396552,5.015401843301406,0.7892211861989041,3.192323655400862,4.183091761469365
2.3499167411582813,1.1293651414004215,2.8836713489338837,1.7459226124303033,5.582194766308147,3.217719037813967
0.3131701939436965,2.2218274275486594,1.4170724918398268,1.3736381928259447,1.3486928227502253,1.2316437380651555
2.7472976346800615,2.109335232591899,0.5486826187157834,1.0171374581648909,3.5886748346831046,1.0213597099397276
4.339918934941531,4.0892946859501516,2.8883428087095835,0.8451429535082522,4.1915071300479045,1.571426864794446
6.2945157580815145,1.5853700156114647,3.4823700899113814,1.2988735962976465,5.249797347853377,1.4108119764299787
3.886040096604157,6.40987696460575,6.537015162919475,0.6424287021739248,3.737245646690641,3.6021572398467656
6.968903456405255,0.9899577045943032,0.40660728217307346,1.2750999128285176,0.5926749983337953,1.9340236803974433
1.5655587674542824,2.1183848633491134,0.21557830996789154,1.3599433181328493,1.6471145360348183,2.1215747802348255
3.3911686688129046,1.4105798541458792,3.6083884153332586,1.4388059037729692,0.6819219217389683,1.5384784323145322
2.7556844175761106,1.6950078319040156,4.079600144307593,1.4036328549846888,1.8127428937241947,2.3417912802394976
2.4858683749043964,1.571670482378034,0.5687368329805744,1.9449119421162853,1.5326960328626476,3.1476553620396457
7.376693685221819,3.278063507282789,1.4651194717066476,1.2019332697399798,1.425909315371345,2.814922961067742
5.208183161777217,5.620378862709794,2.63802087520218,1.891476453946722,0.9909746473530988,1.5245892799128895
2.66999377950303,5.0810348611101706,1.7842684934247741,0.7758927578409421,0.5990657097763659,4.524382737646266
2.6782707161242527,3.0646362747165417,0.7902131640753292,0.768354560567619,0.6900208956418308,1.6729984459335427
2.709928564797019,1.8147868943306062,0.7970897458918265,0.520912903801191,2.2777926080688427,1.763023118658726
3.0248501180740006,1.7819353049638473,1.0673210181880328,0.9243603762706154,2.2390279193405638,2.3196296013690647
3.1678676255554947,0.6382577248807675,1.3058733796855644,0.5008133417645728,3.858084371735684,2.631561311203834
7.472180336200652,4.512816657069434,1.2623489779292996,0.8510862089800797,2.5789339366164916,3.3823512497434827
6.095516951282894,2.7235343669017458,0.7183292181075556,1.2738838562096577,1.3051106026650205,2.019332322875227
2.4793995547291696,1.7467810634840168,1.100167183724424,0.9602039446355116,1.83251534796272,0.8575020094627069
5.3543275627699805,0.4087693904740793,1.0108235014800122,0.6406012877114078,0.6452753213056271,2.0918889122445408
