Gx,Gy,Gz,Ax,Ay,Az
9.271455999999999,7.568535999999998,2.481814000000001,15.658,413.67799999999994,34.862
7.215661376312158,4.215018360924854,2.59544838573786,1.9046820975334835,0.6318302745435064,2.541000382661014
9.955919942078648,10.052278629004535,5.5424415202269515,1.6201566044541733,1.0564368398655444,4.4307796508705035
9.347061070696906,39.27046946028149,10.909505679419246,3.3275785022354807,1.9952821857763479,3.269419184088253
5.884357530388994,121.39603319153987,27.078585754386893,6.3671808919320565,3.9324118443693012,3.690563644754157
6.894109394825999,23.600632726613714,7.193450613505971,1.5351123884387607,5.241294858602635,6.261978730626118
11.446188094751419,10.678154931015172,7.766715723566321,2.3130390253134947,11.412628908098906,12.713345856262771
28.774058248997036,13.992147273358718,8.68680915233433,3.7341044230841485,34.567370787794424,25.40389278813173
26.711175523124897,6.275224954727223,3.5529732267513507,1.4858824259458834,31.98767828461584,26.81323752065558
8.90767097275547,9.605540465337018,6.535623350955755,2.3182813225278442,9.697148499415302,5.674298547947363
4.396214923312594,17.059968883669832,13.872762811485584,0.2154083912890825,4.941337460880451,4.188023368827243
5.204792274093841,43.96860762801234,52.27373113048269,3.2828677707310394,10.843418217576257,2.505639707455486
5.740872332655419,29.4626479010157,17.760055191277413,1.599002519494071,4.632155917346332,5.171247286160563
3.228261014811227,12.101845338846642,6.939881231567295,2.6418855274688617,2.808660768991403,5.522713488233769
3.714623729640443,11.62803230142086,0.8583059418287098,2.7222529336102723,8.395084827011393,5.396412211282403
6.605165769809354,13.071612553225362,1.2698861816874643,5.25306794831528,27.61582914243156,21.893305125551347
0.9668328841936827,16.03375737774348,2.4920538916295314,5.171559508676328,4.398287700055894,7.6081413083858
4.483367978641075,12.525885093338104,4.699538758905771,1.7734452347904501,0.7488923070499522,1.2046439074686994
5.499552653278871,16.943699561662257,6.322968480732186,6.198019080428497,4.4992614249194185,0.5224237626331197
2.2958936142285893,15.680329262571785,14.728724986280685,16.824367679725828,4.643069096895218,5.003172505518357
6.232515519019663,9.475494417458371,2.5356107888896062,2.146991939788797,2.7457704085152668,3.271886400397127
5.585208936502892,5.244542623314712,3.421216315669078,3.3398934885942864,6.243879306333512,9.774278536015727
11.96433685610329,8.58558506308411,4.241460911942419,4.50658198863537,6.431833643225041,13.58577223196203
9.594086675398533,1.6263841384752364,3.6250648945984962,1.8921979040059869,5.62530436877062,13.497656207344058
4.225813492598599,8.6310293069142,3.3977523769036115,2.920854133101927,1.8920586861269924,4.549076029302829
3.03577859297161,10.353780109440118,11.687347036515735,9.947699961964917,4.375612333023507,2.17770116526761
5.234132665197408,13.91415132960141,13.45003015907263,10.757556337508172,9.516745471372202,4.615093336545789
6.182103884202492,7.909197214556998,5.342272131099945,2.7663298319827603,4.548737478554491,4.251177224144604
1.7347705301682568,6.151147172061807,1.8989297473755344,2.2674931343451585,2.3199457934147207,4.66253230216856
4.018635497102217,3.3819026133997294,1.0067532384504605,2.279091823190555,2.159326306246092,3.8152810787708713
7.625637504169518,5.041722076659522,4.43925527965035,0.6433597807576236,3.895045712282111,7.151712349796391
4.8424185832936315,7.916727288743455,3.265551268826104,8.831656649703675,6.168067165794176,6.483938391861693
3.627029879208268,12.946847660717705,8.111469034588392,12.791944389301122,3.9282751119419146,1.9707086403711909
2.920648524070854,6.85644090163421,3.4166079407310814,3.6470364889644835,3.0299583070201113,0.8477272732085883
0.845817941661142,27.486032346092568,9.071076194918403,19.14999867064207,6.359153375887254,1.324512500071664
0.7317673478483033,3.0247076807323023,3.1516398691812246,7.046694554827066,4.422507702245968,1.0829482959837062
0.9952508676793965,6.326012503218397,0.9338251495401239,4.145022643063043,11.57061668917913,5.228104121802785
3.2380368561983217,1.4098497659454565,3.459155937372647,3.064879546805449,9.178955199361582,3.1280037157559732
1.2510311828519933,6.214836906833084,1.9172864166204922,7.4697848486203595,4.2672111187819475,3.627567028212364
3.0167316930581807,4.343720337635406,3.650220888391495,4.924665579496997,2.550517180380011,2.918348916088329
0.8056120393230756,4.2790783000145725,2.8780827868635153,6.827077937434857,2.9425025321578517,1.6555383728752615
4.65974062198835,13.202285143984732,1.4304097703263594,11.955945220933454,5.118563699137099,1.9822595345195106
2.5902628360236726,11.725082946038224,4.998052949125777,10.413427853941059,4.898229589119698,2.8954951034625314
0.9257707991420308,1.3081856325318375,0.7659306227917368,1.1009522102559575,6.058667301996963,2.0455054614347383
0.9307165669155807,2.486675729306536,1.1349978025270135,1.6501881266792442,3.94309027186838,1.056384223330321
2.8494195209001063,2.03364988575039,2.723617847435197,1.2356779899852675,8.57719287326956,3.690816197968239
2.3838649357148647,1.281816064409677,1.4613351984336875,2.515250972481636,7.542688567565299,4.0439784069785665
0.9504540786736404,0.8700686325759424,1.2703624578247634,4.381280251246701,4.683492956151831,1.975794378800612
0.25033560951169875,0.8047986639072607,1.307275104789851,1.9686853075540913,3.4127455993390416,0.7189344663053703
1.3017259951095985,5.4697015210760975,0.4884695415634804,5.6461502129546375,0.6097357755003896,2.7776295425329045
2.003657166360301,1.2989218932785498,1.689815258855855,3.7869793516705106,1.8306311770746881,2.358560848518258
1.9417984419792937,0.15868694648520598,1.3079440851851687,2.672013354784179,5.666547427217786,1.5833212415879752
1.4592244202635583,1.1846944171374634,1.6840241438961598,1.8360545204860628,2.4700119314281666,1.3162523844989535
1.8981619016616766,2.3049720316532993,1.4090140089466965,1.2661815615521386,5.477946800983484,3.43034441671103
1.242031361250361,0.7273444059485578,1.8192562569784458,0.9983946347296192,0.6476476246012526,0.5929825401012389
1.449289294269824,2.429736740818927,1.111026621385277,0.6777855008777907,1.6587878707613775,1.0040610645547159
1.7038627144259633,3.4369571836709687,1.164843004087864,1.038514658876965,2.189229492561425,1.3964122964867403
2.5016701957442793,4.897088348894732,2.381396645685763,1.597114827405754,2.887026264411133,1.3111568930081587
2.4578275273511387,1.7747919192394435,1.0930153617938074,0.5800757446876227,2.673231081358103,0.2696269177511181
1.73309862703388,1.1923613610017767,1.699307494104418,0.5309540479297129,2.099761606758039,1.1837753039884649
2.756640152933582,0.9819118183109116,1.6575854503454752,1.4293231358768381,2.062048469929786,2.1372366584061897
3.5977158641624243,0.9275881053124992,2.4873582719304763,1.5832668184858587,4.193097211925547,2.075338424714958
0.2671971242333123,2.7864166520601774,0.7642818226834859,1.56911278125382,2.0255483101603495,0.8972036276269204
1.1674987723138948,1.3282419207073952,1.6589991875211751,0.8742526558397122,2.609691620479603,0.9598238216656851
2.110074054699096,4.734049433283568,1.5156538487974205,1.4140793459968657,3.141033680885391,3.0315526486810134
0.953895280516966,3.0994665408404947,0.24692840465796836,0.9717941557338022,0.8569389967996498,0.16330705917006122
1.3750776708720986,1.723429217652174,0.525929873865624,0.7937603878257458,2.4593018117823324,0.44790725179742347
2.128297302554865,3.931437251847581,0.9912505182731357,2.1384878265119873,1.4816674313634206,0.7171049027461004
3.970632656254832,3.386830929779676,1.1222974692004042,2.330010280354861,2.704286596315434,0.7801391028582424
1.2061975431123009,1.7236177335916891,0.6465828809715306,0.5875941372583444,1.6797452330653149,0.3354448732326313
1.633127498254849,1.599733195849615,0.8329505272150616,1.0599000704150403,3.462196043599577,0.9873518514143504
1.474904939152244,0.7105022612774968,0.3388672708495892,0.6458242296238362,2.7703301509377316,2.3592663556715006
3.060226026810518,3.4979472018786737,1.2042190202531904,2.106176042114684,3.938720784806302,1.9665459608974492
1.3657464247849995,1.0856779914825387,0.5642849389360413,0.5241347882055226,0.5915384542879513,1.2903084914002723
0.6647239422035426,1.5458641727669413,0.33812822907726875,0.6764091816737294,1.8152454285812145,0.08576374931010831
1.166663595842249,3.2464028241975695,1.0230592717903342,1.086805621210308,0.8974179010941212,0.7098049865228084
1.077802714830339,1.902862981324055,1.0268505781932473,1.0908737418575558,1.0777938652204067,0.29294561473294817
1.2916215088492609,0.18270882533722202,0.22909399224627494,1.098859204749762,1.227684338683674,1.0448494613868586
0.9387331843940567,2.9387945273532656,0.30309901297512026,0.8076000573467415,0.8715926831670379,1.2408067309217823
1.7373446868051075,1.0514823104787514,1.767739594870503,1.3971141661946747,1.6786716486286637,0.5222963283587236
1.4759516047186114,0.9079728070841642,1.0515421651454295,1.0953957304899429,1.1119284212142284,0.6993517888566176
0.28992133716483165,0.11391154294435162,0.2417565016250125,0.239914225375803,0.871145041590773,1.466369872766146
0.9205144052331138,1.379898974786971,0.25527832737872347,1.0632641927472901,0.2669973928733792,0.4129160255709977
0.8819863810289431,1.283064644073273,0.523153171074632,1.000227731503335,1.1404027744638914,1.299697519279404
0.6982982593626477,1.7641851561968231,1.3098742798409875,0.6928676783561605,0.4880822678310526,0.3948460271876092
0.8293429386000224,0.7211737510272119,0.2748905181035153,0.48424127394591326,1.3716030688248548,1.1677856228146273
0.382232684796118,1.68218873080267,0.3078720485706226,1.2186225410781835,0.5000435200115863,0.2148229872215014
0.9768229574046008,2.105464782640155,0.8492654341544222,1.1370906502152294,0.6626997925097475,1.6149698062894027
0.07672206855585899,1.0019741362059862,0.27067169949197634,0.19611255033377864,0.3825218278012654,0.5893611867268799
0.8010418893505655,1.9579120694116463,0.30643972998877866,0.2996020675017332,1.6027650408382228,1.3100606266579489
0.36469758641946975,1.5386648962952085,0.8435182505298059,0.5423884657469726,1.0352679648522378,0.9833957103417632
0.32233866323142646,1.296747051934458,0.7738938922552567,0.5857136355000453,0.5375699689424934,0.4790598620808477
0.8428855134370893,2.2127807993299333,0.27218239496741053,0.6228616923632662,0.718064980062644,0.7201563266399452
0.2779483393014428,0.3498008355253401,0.4838487735951299,0.629687639772751,0.4793268485958511,0.26018314764253087
0.9982079343581832,0.8093573312942013,0.3493605542911748,1.0761905413710473,0.22932131628756683,1.8962944979612408
0.6550304915126554,1.8037434781446053,0.7877768031641261,0.6711985754455527,1.1890567665246627,1.1589044965339466
1.2331768369522256,1.1420420654030718,0.5585109553018799,0.8474630275653737,0.2590358890412111,1.2449455296692287
0.532568998219385,0.9218071090755954,0.48996652514196143,0.30516152047960016,0.46480058982031813,0.9986169628428737
0.610079076888443,1.7546004852532289,0.28762874372508834,0.551342635164216,0.8104445620917516,1.2188969320292657
