Gx,Gy,Gz,Ax,Ay,Az
11.973449999999998,8.550430999999998,2.405474,13.154000000000002,453.318,99.826
12.529700560570648,18.790894230003317,7.619982252105118,3.1225466572453717,2.8874044428720236,7.439466262425953
14.741589241584242,17.28886931959456,8.740086164285588,1.8743452062758512,2.0454524270972203,4.996122747407166
10.191341319940088,30.818921412413765,9.901912048281655,4.731307360733816,3.3428902349258283,3.3576764292398056
7.788632229426836,27.691332516918557,12.475659678090402,7.284836502177804,4.685596365092212,1.8542581742049402
14.669089467403955,57.91906875605778,39.68176565354496,8.10750230736719,0.6844075289146034,3.9443022394751783
17.116699118055532,99.56036659731458,47.76473622725184,13.586649321041177,6.454054835032664,2.160638177443674
7.912157983777925,18.975459400018796,20.93142881834619,2.268313248076309,7.296258604064249,1.9645263137103026
10.59254120006229,61.53809429844579,25.13583277406289,6.567617405781375,1.7924159966419055,6.300662615972373
19.60788399033355,31.684477289593712,16.482861667457232,4.862729987884707,8.658259864368556,9.302027840209112
18.50199676125411,3.133947364590896,9.959102689128885,1.2934897735373483,19.979760697712482,16.17833094684989
50.90191869013345,12.405019970372772,39.300925787226376,6.7653987468954515,97.31472898923153,64.77196126435729
29.309124968240265,24.942909020768916,15.032534805250952,4.690154614073067,41.4008193194431,19.85200997014181
6.079404947754621,30.66572005398228,25.600740205213295,5.280174998097712,15.618160467748798,8.554305282182181
7.730976394300519,14.581363747607597,18.02307186127389,11.6385954126124,1.9317687212029777,2.6436141801306974
8.662981482700701,10.004471117294605,24.290451692845348,0.2896467910381823,5.5023799508842295,1.6245347568324782
21.579770816646768,47.362212836283874,43.09295050450318,16.48701860507782,5.336826922210623,6.907572606967554
23.70312619676031,125.5389139373183,88.51751166650412,43.83564812835479,7.502642286742173,6.4222975348624605
6.0163795069772,40.38231474533895,5.942466096682157,10.723645116183162,6.235571385436738,5.54819764477866
28.561166930903656,15.373292364223028,18.561712501354485,11.133554478957578,9.328718624537354,7.526547368196299
7.036784728071457,18.882130419659173,3.7686479314138297,3.697295389612245,3.055619291030593,9.748279086138172
31.413902650521404,6.598775353253679,7.252519988067048,3.4071880203828795,2.3055983706898657,18.807601698700978
29.72035042375386,33.77899599397506,13.886547771339618,14.269537740759013,2.6597703555006507,28.448665237727287
21.39433634429289,15.887108671594373,12.236946970622308,7.559590726001018,7.6590770008648335,28.551640594227457
9.191145071735308,7.9314832887559765,17.226312534655115,4.989213127446896,5.865463379913065,9.628386492728872
8.84237898062439,22.827052358169432,9.76999650159184,13.601789592758259,8.4632528756359,3.969080117323326
5.254917250877898,12.15726328933675,5.46563234689881,8.841289397637423,2.029300146437592,2.3262183768396536
18.285771804443524,20.207957560974407,13.454022521013863,20.004487189550886,10.047615732700333,3.449299023600846
13.677422470774916,18.501387535335425,19.17702417035541,23.789406208329165,17.30176267830912,5.054567386422631
23.170381852302533,11.17830256193505,14.44298243873006,7.835968221882001,14.98601484638027,9.384228859390566
21.062193246566704,6.554429029795199,10.135769388937408,15.282088871334484,15.881406149292491,7.679346030000242
35.098863316947835,6.580767128868981,2.981588118755686,6.46999743701246,14.063101022691628,9.366555796413994
46.24465939847522,7.589244173677113,5.203384654588872,0.7112470272188935,36.79235442272642,16.212211049472828
38.46790512046267,9.832114021470233,8.871341134471903,6.714857012200128,27.846730704521068,11.458917665400474
41.30985208093272,9.309555568361391,11.598548767321518,5.618192341422134,46.31432679869646,13.397547605361336
29.192865511815164,15.232524983811931,8.625082467955382,10.606832776738917,20.873945700664738,8.458765102952528
4.478242508356373,14.08364647596768,12.060482344139071,13.941840580929194,19.38478902103199,5.6804528446522715
20.193752617984295,7.899059340623233,3.912962863354966,5.510689911981517,8.804183235979197,3.6957113843885563
11.809522598960712,24.39352587640238,7.552608098477518,16.791388166455658,13.241392385156043,2.783817066647935
12.971621436309544,11.152411799364488,10.523805497633118,8.878734022453234,7.620270208032622,2.177427084438213
35.7887247107094,14.10868273919022,4.601690596146895,14.162415725525662,28.497821037407167,12.140010408279009
4.336537994893284,9.194251130639238,3.1609333823805787,12.236403071755154,5.892078405426363,5.5195223577989045
23.202147499926717,9.233897204099037,2.005767557264897,4.414589780119873,16.705618300572542,7.927470263438413
27.49734892067488,11.003572240087239,6.986009941883549,7.261763339684714,22.12150555286288,12.962876178317273
31.81039338425318,6.262422098596641,5.231489936243214,4.952145352855219,27.110948636193733,12.400624053243098
33.906369875340374,8.641071179211732,19.861100433206303,3.403076707701675,36.71486213343531,12.428942634281116
23.843630851720548,1.4997355700671504,4.523413173740279,7.9182569100447555,15.650539706873179,5.968063066958111
29.325065729892625,1.7731260197323122,10.934589147371437,4.745846183288379,34.47747741084861,8.0775752148278
16.13282100735551,4.061490645849325,10.600424457392267,3.2540323549318115,8.802832381984617,1.948544637107027
12.481544373964956,7.5207545454147695,20.04839872018767,8.694197518102667,13.427154953245724,0.8874115480941946
9.452741684591171,3.801736349054672,9.080515675340688,3.2544950494896767,10.867370420227155,4.560146094526078
24.85044840147107,1.357016812776994,11.80218565532045,7.175043275877972,26.749776706730145,12.853583371471673
5.478106605479363,3.1648154326292963,9.169616820507866,3.128307561226519,3.0036738316607243,3.939888862479389
9.566497118785493,0.7510107909428951,2.5932024754086656,1.4139443814491903,11.408047835067682,3.94363618350905
10.36469966084174,1.7344296290143142,0.8511140836295875,1.5957328086641376,14.983001299557507,8.262503149320521
8.091477053789278,11.334800009038664,1.4472484111844643,4.198315293960024,28.628892678171905,15.34917023550815
12.225572829456492,2.1618850708244004,7.762093338556627,2.2736272855371227,15.531421268138303,7.212285632340667
15.069872636387226,6.654447693305244,8.592034520926521,6.051721486305053,10.121401917210536,5.934597442222936
16.9750143017723,9.57427985227663,8.50456816742762,3.8178640413129017,29.450576085269596,10.07179597961905
10.868059072118404,4.921472732755443,5.730671742939268,1.8896731095101365,3.280077871662607,2.5037504817667475
4.756018491959631,4.866689157938354,15.637542644788278,5.53109209383589,4.53475969519835,0.6173257409806927
3.430507612052994,2.879260184249522,12.652475853725742,6.4040537848456065,8.383822420567467,5.165204986170525
12.955823986354295,10.993620216257478,7.667211307060889,5.886909912348412,17.543189252853484,9.821482213989354
7.456542284521962,3.33244234617665,6.413605526967268,2.451196297694045,4.8240109127470765,1.7414405470073757
8.390480010945165,1.2272857071505556,6.627947277531827,0.549735492871187,8.687335906769633,2.621306329017114
8.745229508733576,2.4379406444389478,3.2660598091775532,1.8480343903212375,4.563769958967305,6.351280546198615
4.734638916043958,8.585978324779456,3.2250739514984366,2.898507735434971,19.351368534799324,13.048893768898804
5.287812973783808,2.7428717594278536,4.4897413411034774,1.7298809415166203,5.901767563190231,4.029382292295654
8.805969258651546,5.101701420832151,3.4635068738310726,4.0302649246590825,6.147844356401088,3.6801903002470095
13.376340881766522,6.6953090818528835,5.609324959881261,1.7019092057162175,13.93452417299064,5.7996950023241665
8.113191193594663,1.9278021788006476,5.529659308156396,0.6312727444885511,1.597180419060666,3.8913298081622076
3.3735536158368276,6.284788825479445,8.31976165307294,2.5882895674300475,5.104499122662229,3.781587120015691
4.260594515661765,0.5044707188381325,9.263176413155275,7.41142534336807,5.975313294790204,2.756340838133285
9.663179157322427,8.871866630667641,3.4548995605580557,1.6210899284362486,7.415076096251647,5.349374358253585
4.347148552963672,2.001739842869082,3.1950561828664243,1.0288532549946021,3.2046394802238085,1.6067897621643388
7.56180757928301,3.6115213687891057,7.2461703985575,1.235001420310502,5.1829946555022,2.1004974208659632
2.671773493979391,2.714067499464385,4.857778489057881,2.008838939093281,1.4545279572694725,2.3835435797746576
11.673628368790741,5.055511295312179,3.120412510368465,2.110439764598838,10.705033021901428,9.796109635972842
7.488916490416864,4.67660193458433,3.4417141693566013,1.2116574274448502,8.056020413353453,4.513218391981354
5.052470648307563,1.209408556993836,1.743339053560179,2.737087132853473,2.0360308760736445,1.5638634364825532
7.939921394987382,1.2320667961911336,2.7694539638526923,1.3883480777026114,6.239230975998066,0.7296896932674246
3.872207109681415,5.559168208727831,4.795738592171729,1.2307826828252284,4.15629125779424,4.219855365299896
2.489020867370592,1.090419410205797,2.8825685495394433,1.674936786873677,2.8092154929577444,2.0910986528484585
1.3551309415552841,4.344414701851903,6.317179052372348,5.02793386256264,4.5507496182095695,2.0965396812864543
5.327546932418918,1.3322408758054067,0.9778498870028328,1.3042143784698104,4.370691978099821,1.6970984613016376
4.299208711537063,1.744592557668705,1.3008671753031003,1.1095525457256432,2.851417981014461,1.5102570450145063
6.770089514747232,5.623517727195373,3.08428041869763,0.9357590680252558,4.516260805954264,2.1794912216223583
1.4949246816709771,0.4779965403465959,2.2224954669463264,2.418652295441427,1.463970086959043,2.069439460130732
9.123413981930817,1.3024277845825898,0.369880002729748,1.8164001366128109,4.64918144025514,4.351846365672677
8.456816467264186,4.812804579450401,1.2419061417638453,0.7059529737035805,8.575971807936115,3.2532629705573615
4.169158207033695,3.3582997145763516,2.4820211000892494,0.6661086170302483,3.0574444411016835,1.9084906094781002
3.6906695465639494,3.152950590815735,1.4316066146076891,0.5001270835678571,3.197016331505573,1.3680689474048524
2.7401295397915635,2.952776240291004,1.725864956215181,1.9475472810761352,3.04254799631657,2.4459618831159236
0.8895667884857096,1.830063865556137,1.7302916439660263,0.9820886386460336,1.1090993306122177,1.4175918708438748
3.2000801417245137,2.7994428412517043,3.3024341185523447,3.341820549932508,2.89388035696418,1.1759956549987276
0.8996321372145926,0.2065934832629165,0.4157613594752786,0.45954900555382594,2.2995094287466973,0.45915506685215435
3.2645755361728286,2.5698636678135176,1.0912064866777913,0.9285893016449995,1.8803931919253027,1.1412962359445773
4.7440627809544695,1.8944822574980802,2.104680022760599,0.7570636782771041,3.222975449602832,1.5786649806980269
1.9315164080235951,0.5666804246744509,1.5540754829481052,2.208031913845347,1.017308231377602,1.3119861050644783
6.629336659012391,2.154327072646751,1.1034069624419272,1.1174905978546792,2.0084077569100125,1.9095320928589876
6.926984359860685,4.3170279428523335,1.152767227908487,0.7019124551117307,6.413540127269987,3.2092074475265235
2.9308103907073826,2.3152532905521808,1.632961726422966,0.33637510925463693,4.436877134467951,1.7569612845040863
1.8173668068659796,1.8002594680513138,1.1941562194613633,0.8208769517202847,1.3363494397897666,2.5528263175765287
2.6060099256083484,1.6162669692264178,0.35079151513341544,1.304159787599769,1.7801529429988663,0.9840176168683216
1.2081336502313034,2.7697251472658673,1.7805328219116885,0.8775469762473443,1.9848413138939163,0.39182701146423005
1.4223522114899556,3.100031516856279,2.721994911388372,0.8121988299281441,1.0770497449923024,1.388143296128782
1.589287416078456,1.6340639909671137,1.6341683140366308,0.345086093116869,2.0630742211618167,0.6198363281742062
2.908482630926517,1.8663595491776293,1.8848678688435854,0.6242665791912336,1.438593717908205,0.32808399369721747
3.4571372309525774,1.2356994719408212,0.6860427387255397,0.5310678854181328,1.427000191857731,0.6156437361446422
1.6234359730664962,1.0577293579381226,1.6663664646596894,0.4490521922798995,0.7844609407583211,1.522007538219572
3.0901436332422216,2.709505516146859,0.4233443395016709,0.653587865243931,1.77341062316657,1.4913656186123536
5.814178848577538,0.4791341592445147,0.9586433385193361,0.4821496646800943,3.0487876792407076,1.741285550925546
3.4811034192883894,1.4190336326493143,0.8583402358426875,0.6710532585478062,2.736889529462858,1.5442188140139896
3.305997900536794,2.221346704672411,0.4308908493650905,0.3737791389858414,1.6731388572302701,2.1848280734090606
3.315184596595377,1.8400960706745177,0.09341723438826112,0.9011643746422744,0.31865801092777085,0.8479552130432196
1.9820053567845524,1.611590593884662,0.6639559226257502,0.6063480065994069,1.7982194510498257,0.5483703299191027
0.0,0.0,0.0,0.0,0.0,0.0
0.0,0.0,0.0,0.0,0.0,0.0
0.0,0.0,0.0,0.0,0.0,0.0
0.0,0.0,0.0,0.0,0.0,0.0
