Gx,Gy,Gz,Ax,Ay,Az
3.820923,26.040090000000006,9.101487,2.6819999999999995,466.10800000000006,116.12600000000002
2.805069823289367,24.918832700758685,9.161788487892675,1.692380684299689,0.74922373333118,1.7927569889716093
6.289167571324413,16.114734548701914,7.418066677820933,1.8705971410266307,1.8179779214010943,1.618239752846075
8.810239697892653,3.802317037604757,9.05143362279581,3.333287193345866,0.592307199408008,2.856436785907226
6.228744606356412,51.85414966056422,5.996198667918367,6.134796440697982,1.8982356269016802,2.52414298105001
23.666082955485987,114.14851042571291,7.04999008135026,7.139218297716793,4.189761254310753,3.195613868585162
14.097491146015775,34.09642518649466,3.1719368227831315,1.8846108975799831,1.7506067204019689,0.2656236625158321
9.185383679140825,28.89229483040228,9.966926503269839,0.7687121792273526,1.0624705885066361,1.9816010444415018
18.709795782691753,19.111071187909335,6.949494388997444,1.7570645951319142,9.380397959936497,8.00850923732485
70.01179452944693,21.714652693587745,9.170112425914292,3.1386955813714,60.91351678066679,37.56685450665931
22.293284937856864,16.43004790697088,8.177135133261151,1.1319989847817813,21.746808317925932,14.694526114995858
5.037275682429501,11.91466669064541,9.718104581740437,1.684851274225584,3.7171970969226673,2.108231247519162
1.7139239306830143,9.721421243139442,12.53997062648975,3.3359088978417546,1.1263226920537572,5.191921856823915
3.7712801858154097,7.532991231612081,8.327718519742467,4.156137788657638,0.15897276091940893,2.2161775273703515
6.453797200817126,38.128214028157736,47.265170210157464,20.293479244353044,2.6255678759177554,1.4722221112095228
4.277388293964903,16.36504043610824,2.9926505843809834,1.8944626669983218,4.532734147086246,4.247771119083809
7.349849657640295,9.489215277873258,7.9162143580382995,3.9002195678715297,5.518438854521751,5.292182622752839
21.462230304717405,4.326627541780541,5.457190854973238,1.4728136001013146,10.421226312153248,14.624369219580194
36.99647235760348,3.013967948496661,11.106115306050338,1.5353144138848782,27.57342046024634,25.0329985540821
29.723927214276955,20.367977810569773,5.905409907831604,2.7304556778555096,22.87467783876936,18.726812565321254
2.1944485437496875,15.337608145130654,4.06132629761334,3.4805677124580425,1.9965191982944992,1.8495131874726851
6.492592774836615,18.416542049631566,2.9547281142071764,4.524978596769227,1.7290751893001524,3.2672809577654043
1.993637886996163,22.193277855070594,2.8310996519276515,8.493227046451553,2.021289669540644,1.6301732644305382
9.907244469949223,54.49601366001469,20.211316409751593,19.20092370814643,5.02926452131714,2.0574618524278256
8.701937805098753,15.661372515132772,6.953947523156643,6.61205782092004,3.5184304266895,5.036775113658817
6.295223329738289,16.143966614670795,7.087901981194955,3.4783083532258203,5.160867718524958,3.7553237123064998
17.342524322438685,13.58853308456079,3.2229191347653523,1.4681758239093314,9.37656850615307,9.99377195839466
16.197191843564784,12.128550867146098,6.9664115585952855,4.339037206561958,7.623657541848037,8.39015578646725
29.54927826985291,7.300057461167626,4.163367210436205,3.5977377370716077,23.768108099299916,17.586984719806367
8.969531765955491,6.974917917516265,1.2989425186200698,2.476958250919395,5.3677328396977995,2.806490501277267
3.0084813039255875,11.135848451216932,4.1218834805845175,1.9935389995126,5.359485380679051,4.806598732674899
3.5373907704707137,16.703585230530134,2.663276407171615,5.026977267120325,1.4921954724305517,2.197466269303848
9.117677458295985,32.23548061481835,11.962371403564575,11.585266932913902,5.726623686696281,3.74777290959626
4.703690021820693,4.129488209859524,7.921958034554393,2.4914888428972617,6.957090571788637,4.096094488888338
6.929693918822313,8.791845391757946,2.0622250783835283,4.012740653237823,6.03454845999151,4.996066916067874
12.60459882696426,0.33604422603699685,1.1372897831112387,2.7330605793326317,12.268953009875109,4.1960960322192635
4.917363379822992,7.4910201902356635,2.740493604659454,2.0648457010202237,2.3211523346481777,2.102246160498289
21.345400542295664,10.026143507472648,5.037480544123909,6.617571601865821,28.024648575727518,6.529668866846351
9.853183789126916,4.827441740618733,2.7879486755293206,3.986990398345723,11.777470083367463,2.6885362072210914
6.788812170280174,7.536549960882478,1.3081829486130179,1.907652888507127,9.717673700654613,1.5542295524827698
6.950227036423169,10.109311033677933,3.6490066883931633,2.8808726717594997,2.789426892222466,1.4766682173241543
10.789819434866008,6.612855043976738,5.100042168659397,5.281641257672937,6.436672683667675,0.5899148846977053
11.306288627289744,12.222283624887767,6.238775684174912,4.250167141699778,9.405442346105346,2.8561270635120657
7.217276188349328,3.972566344185581,1.8961501065207373,3.2521191089069026,6.320930017993899,1.511359404290172
5.885991465903813,6.871445157064596,1.8219766206577577,1.40301865749498,8.318411397336378,2.414536446440522
2.0151786057723227,0.6966480467165668,0.6001850312833616,1.2766629321190728,9.426756501482025,1.4003087136477947
13.58617134998784,4.6430624941776735,3.215724321758925,4.859711011445283,26.052558099057904,7.69134979625554
4.404314810890488,8.648899768575298,4.17579364421112,2.9296609946084335,12.451660332938248,3.233071919666539
9.432056500212923,2.8228692671971753,4.807926232159446,3.8670095337083907,12.014318862825917,3.55376338083508
2.343228375789014,4.47775042947648,4.627439172978909,2.9784178849000433,1.4772567318703556,1.313362972656429
5.414854446656756,5.410514497382624,3.783822263435534,1.8770630573812939,6.533560661180683,2.583711811534546
10.343234239463225,7.0655022231289575,4.651554374360654,3.077277910441076,8.447988845297983,1.1000428534652709
7.060352345635153,3.30837209272421,4.839680706103783,3.8027870503068937,4.343199897160811,2.800694305834767
3.0494022117708304,5.126145634661834,0.8569862007685719,2.180602144717781,4.654956268258996,1.6795251789792136
5.5351476009013405,9.834592969193913,1.954181606879757,0.33081504670768047,12.664485482849926,2.4845599585920835
11.547419307957819,5.523066951284738,0.9421175714517376,4.041676226165507,15.332475723833976,5.13731192831644
4.915126397368886,1.9843855907087984,3.2344400182888067,2.3587542529350958,13.249375821413205,3.7494135736285243
8.455141527001128,5.49574415347713,4.339585948595601,4.737843089411509,8.813570741837532,2.6970861438430753
1.6693736031940132,1.923586014121617,2.4830032320980937,2.756847527633399,3.2567242532125564,0.7728811194403357
1.3530490586392407,4.020451025626838,1.905337497134168,1.0076440080695195,3.7372954682440866,0.3203125996197414
7.423310895450048,5.8625759175619265,5.5702324281219,3.9768591537940057,4.782274499290309,0.7152972176794664
8.782461581016506,1.7840303699193187,4.510712003048646,3.702014609432334,5.328782800463526,1.2495463280465748
2.2080091317615294,2.553579825175741,3.329150803881699,3.496141240607119,4.413241591844513,1.7545816241948806
4.108179677246228,1.1810031284576117,1.2286800316914959,1.1071208673876904,8.89153285283202,2.070578065708524
6.66096606873539,3.7854253115717413,3.0354078876981463,3.525560408171204,6.446164702744144,2.9789007979852076
0.5894996165367796,8.627205049839407,4.009231072848601,1.72304281365898,9.595444605071954,1.8512069950519228
6.72380108437006,2.68750384817816,1.900630829368643,3.328520998101035,8.604109007049262,2.9749319409625596
2.67053159626282,4.280584044281827,1.6791057219585253,1.582325170295658,2.7364487868906746,1.1600024239775955
3.3125525680387136,1.1007413186160944,1.5202433039511205,1.7077032011012458,1.647871675117896,0.1914063105031372
8.524978845138344,1.2944115282618818,2.893227199958685,2.5377249256234062,4.421716412934953,1.2631253509032445
8.555475079377883,4.7523429337301994,3.9654073211681538,3.555664688071718,5.4467399826065686,2.7738909331149415
7.171024960391204,2.837481615381989,3.6936383122036607,3.9554549788712103,4.649887277600308,1.5303071232862042
3.0859565554643424,3.5864671811052635,0.22347512814688827,0.45074886498158007,4.331695823161235,0.8565491827792292
4.620129801538282,2.3909931566211875,2.0451056900081532,2.8449055827948997,1.7131355674400215,1.2830408085295202
4.142872620819629,1.3240883198118025,2.480571474243758,1.141439039095282,5.753614964260361,1.1505923360985264
1.3097077898546614,3.7794235452708014,1.3516897235584373,2.018640812836117,5.822925252613143,0.9911925643122904
2.066464279822621,2.1171769563110194,0.6149490984821371,1.0250467818892797,4.750008877384199,1.3720211829501012
3.9323978884477433,4.582630175381981,1.9540517347420954,1.1794170998384539,0.6222792685510042,2.1653627565941167
3.6705055214911906,3.0815762077119397,1.6460121856036958,1.1655763591700714,4.861952541027329,1.3667220380569067
5.854289805108355,1.7664735696609903,2.0437211795343666,1.6258752433313297,3.223261246834854,1.4161802736270621
4.936832680464822,3.10143165697874,2.8551497361149667,2.2870003659336,4.625392392099602,2.655308026550355
2.9942705726890475,2.254613713715726,0.5083893947239492,0.8847111274213063,1.7289160519923883,0.9701956330047822
2.113822914030019,3.21320785633603,1.512912129041368,1.3300098278308239,1.7503761594938192,1.2624760536180826
1.8543845371458272,2.8454179253148535,1.6181460207867628,1.697962254412594,3.060053831990085,0.12824564985984915
1.528493581201349,2.330037075416593,1.4763503747235136,1.0752410776321524,4.315670036786982,2.148271153034498
0.8964154754317545,2.2057251319165774,0.5196656845254289,0.5694543528338164,4.452702318531354,1.1748473773027284
2.437282427190143,1.9418771880536663,0.5916525428638728,0.4269417862019895,1.0638888369620385,0.9220547640130189
2.377374569574472,3.3575712326776026,1.1841732107642606,0.4312029944995113,4.070850461038089,1.2574217316406593
3.394516423571438,4.220355725540814,1.440061823639031,0.6835771276637784,2.273002353156429,1.7263937448661966
4.584844111665494,1.1096325160919487,1.4012209043618373,1.1747043537585355,3.0016712159648633,1.8456152685451193
1.4459055445852527,2.020783604818896,0.549629003964343,0.9543685417089283,1.0641414151460762,0.8371618848541863
1.0263649752945028,2.1526663974774447,0.5463657346598726,0.9073139276959511,2.7053628337430795,0.9899448618233238
1.0374493570924321,1.630810765462919,1.0282554905880532,1.136017193189072,2.556194467833676,1.5679716917527349
1.6306334868173877,2.03663266705316,1.5023568732967854,0.7554639654261714,2.8183907122001783,1.4025534135477875
2.977378203278142,1.6682510633337464,0.6524043980017881,0.8804246818401152,4.210406245280979,1.4347156335023585
2.108998953798292,1.8399367206250514,1.583018993148289,0.5282616434665417,1.0307505905742882,0.8714724854751456
1.902839055869033,1.054981306618208,0.611064666285707,0.07063246002729294,3.332206717851163,1.285150614179529
1.5077906758945234,2.472063242366001,0.19595372775095016,0.5507792483643095,0.8703598563408387,0.869397130164786
3.5283593875637793,2.651651721233537,1.8730616009271366,0.7560859038811523,1.837484750468141,2.167565430024212
1.4498940822605617,1.4115256838322623,0.5547346240309152,0.8218550116383411,2.098032503882441,0.4221206426448423
1.3031812865274228,2.0045917247198144,1.0597433031893249,0.9057029779016459,1.4438402857340884,0.5263613571517081
0.13415298846679904,1.4521128368177747,0.5916304387545819,0.6899798355164538,2.2913673819877833,1.165693796289711
2.8422290877185854,1.6087945495480995,1.1375632672653861,0.6113941271480455,2.602187407907852,2.5224004382546426
1.757961009022634,1.493736687840016,0.49071229810707545,0.23389462613593748,3.032492040200753,0.8257629601674124
1.8470445131834283,2.519470425899476,0.3580179117835331,0.367406283101611,1.9183331672273432,1.1233615931326828
0.15093380890625777,2.6256184184734344,1.1552019720668378,0.23941677726696695,1.9250098552636312,0.8029439661509655
0.7069863642616167,1.572866930548534,0.3038814806724971,0.06293571628255151,1.420426652489523,0.7160137599033006
2.6828770439912675,1.5520824361029302,1.573305304618457,0.5006561156537699,0.7524450050376463,0.8657205171048957
1.9287232642567842,2.1656815181767444,1.191431246858446,0.8948841807119184,2.4189073094790525,1.4350638849129695
0.24436279834296162,1.6079532041932099,0.48927753003943714,0.7193663531914005,1.212989447719454,0.5558663647647775
1.0109456139320527,1.4894917590582242,0.8668204887684516,0.7939569941719463,1.9885469742539523,1.2757325198349476
1.279868073401362,2.478782791683453,0.9872312719372813,0.9654439927841134,1.0958644250554088,0.8509088755309508
0.9807172748426706,2.1571333370681525,0.4145657964318637,0.41492070018634564,2.6903939182635397,1.3820928317892345
0.5867107220300045,1.6617114493189167,0.8547947721830547,0.2971258073483738,0.9712372553661809,0.15340505387199738
0.3693850171686369,1.3382338099533955,0.6908505605902998,0.3326278737947771,1.4346506583705794,0.6198979072894978
0.41298446241935755,1.8205369238807818,0.7529679185006286,0.28135462066972877,1.6433620113801057,0.5644631395440359
1.6890161376864443,1.6773724270991284,1.050946996494682,0.465976611537619,1.4155151074580088,1.6546521141656445
1.4116112907820044,1.3553772442161705,0.958192930403266,0.3547162198605381,2.115747249573353,0.5882159824985266
0.3399698346971403,1.5323301069585404,1.071140534686207,0.39997198128558653,0.7099998140166913,0.9211877437396115
0.651366315651345,1.2638044932728807,0.7732505895977985,0.30610956459198363,2.264200640099664,1.3511879084906373
