Gx,Gy,Gz,Ax,Ay,Az
11.198433999999995,0.0875370000000002,4.628052000000002,14.129999999999999,423.668,8.548
5.869230329097315,14.160529726269957,2.9188652674049016,3.240010732435643,0.8644605852654761,3.3273289737216802
15.88244844248579,23.14873118149955,6.796245058339967,3.8177131038207173,1.3428307017992445,7.234470352157208
7.1785537233167,21.670306731413607,8.736714662992503,3.062147137895458,2.0021051839977297,2.8178881164646246
5.245010527871786,86.20616041577101,21.746753112557005,10.421969794954407,1.3101663583909167,1.6202667627246972
10.717922765089824,108.45993737028729,23.11312063055188,12.0730105816808,3.0809655998987777,5.992708591038939
34.88437460005939,35.05273021223629,8.295566539455887,2.8900782309883635,1.3188898044343254,1.9451938407328966
10.176412437919698,38.03749336247278,16.724809118202177,3.6541533982607293,4.175824115747842,1.3010299744623277
9.647301827627953,30.33407837876276,12.200478069654128,6.167576457058355,5.344130464995666,1.893929250675864
60.773992071007214,59.12580580072889,3.871603107331544,14.388735685004884,67.01014827960178,37.857890601079596
6.354292106493327,16.311811815393774,15.435305765243347,3.7128745068731446,3.8958267867461167,2.4285978613759744
10.081675561112874,22.397930001854448,15.101286963168286,4.351310001290641,6.441356934297849,3.007476682847199
16.143587296078376,5.261251345139417,10.42160912978822,2.0858334310216082,3.6664364771946607,1.266853644808315
24.35395597441306,4.812818875768526,60.68662163273596,6.288471854329963,12.028768574004149,1.0540631359939059
11.415046814461379,47.1932686162593,48.408863470181046,6.977364838966278,17.64157689664965,3.4188819580570673
4.281222178033371,15.538594697883154,24.38032528732513,3.119022236123729,8.774968544995764,4.170921264736038
17.603502798083024,13.368297760184921,8.504357202101412,6.694896440268772,4.367888474031546,3.0833976216360197
13.704473473252063,10.417923436203589,14.818763506794067,2.88075085126203,6.0159028741373115,2.457049253518248
29.9945157847553,30.15251977651631,3.1812046529467226,7.027875472776255,12.008358573046085,21.56531957874901
4.909211921801728,19.93002578469772,3.8664841594856427,4.952574361971343,1.5881834354012578,2.4025129425393743
3.1237261064303206,23.180390749370794,6.375418629824414,5.042211386995029,4.934563701288247,3.0505512975306726
1.8334409473512898,12.301185272379549,13.22929233027791,3.549369863211853,3.223768188148972,4.018298139960129
11.32746090166861,22.59620913906503,20.36465430281228,10.632527954721413,11.360312361211866,2.2049077079117683
8.833274518520188,5.384308831057019,11.88062421605317,5.249490459784751,4.845054185637808,2.06301834028286
5.653488530945689,2.0505978151485658,7.160666905248812,2.6645198990173036,1.8718436572754984,5.234606381361065
3.7146983081104237,11.2130203350287,4.639065278433566,3.087905979314536,4.078323323352634,5.861469982060496
7.723089571492937,11.902253755542386,4.6521758639746285,6.650349794388544,2.723471304329748,3.366616205713904
13.795915495425154,9.207929994269875,4.510779243985197,4.57964268184483,21.28669289883721,11.667571020656002
5.538310011971194,6.077027040641692,2.331562341823249,4.386265643294227,3.6411117129838435,2.463499693517162
1.501101175103717,6.771572024059688,5.204270887521915,4.832301627820988,6.792287669159065,2.2279114808860236
3.9314315357850256,2.8994212379636015,8.41823182872129,2.150726110466061,1.0722510041214834,4.689323972772117
12.711435969812506,20.503225346860997,13.00171523582085,16.355783964629776,9.250213877167285,4.783173228123448
6.451839687944088,12.812163426631752,7.7217781720914145,5.456202734159227,2.1057775825401457,1.9609348446271708
9.331619099835288,5.99698364052043,1.8827302315634307,0.721263372297039,4.1404837255343,2.3294235328929975
6.015519089471141,4.625644460162026,1.8625729450325055,1.8729309614977245,0.9479576883394036,2.8101980875789594
9.629600861038513,7.871004688031953,1.7988535192135844,6.574273159501474,3.527657333380686,1.0726100177065354
18.832968417352212,14.4370986541343,0.9339392891347994,3.1582801220259733,14.034276586509014,4.88872345609615
4.451595628057389,5.414495204794747,4.271122873747523,2.086083389475154,1.9871995366375246,0.5125958498708302
7.940412412681639,2.263478735855096,2.421035877717267,6.28424582092855,1.2975730319020786,1.3586749422857296
6.640231537392642,3.5548300271918736,4.811876836575516,0.31939180268694256,4.396553357383699,2.6290878148545334
8.71374367494076,15.186328823047013,16.123106603859533,8.562884854329042,3.459077744169247,5.10551747670553
3.7861404336282884,1.1852720147004303,10.196528105627566,1.141781264591449,5.3016624657217175,2.5855584782131915
6.749741806626117,7.982882183755626,3.276779076475869,1.7111956058469726,5.1495001203883675,0.3586134517662187
2.7852922097959176,3.6960221919202745,2.0172599460042964,4.704422990148803,2.778793355417777,0.8712329792492294
11.269983784895256,6.0478566506454925,1.8958430069825516,3.571770377082757,8.84497671668017,1.2593830335821203
16.287497421051167,3.9981869661752243,3.4258768112020945,1.9760895623740449,17.006851183411502,2.493973575051215
1.4693819550076426,3.405492739401427,4.406472839452785,1.5349586168458134,3.5624119856947156,0.21185823036577395
10.95810844132632,2.838563938608694,2.7639759098397514,2.1340177907034565,2.407383002249966,1.7799519545252693
8.285473382555105,1.047069364743175,4.927338440582144,2.25368409052481,3.6707290743194485,1.7571730447340514
8.239370038852439,10.213165310422077,13.044999891539957,7.525294699073074,4.180196309248567,4.601840561383075
3.2568474719833356,7.987346235400806,6.236562907681185,1.2090545507883015,1.454217961148366,0.4809406331282691
1.254971537114546,0.9820499807191163,3.9485044029082905,0.562956453345382,2.6454423686389,1.9013607707645324
2.0372715975750038,0.4026626291956043,4.772311947112472,2.072159380266118,1.0342122786494188,0.12712879884656056
13.277119839059395,7.989942541678582,3.895155055408334,0.5938525829822493,5.601365881158786,1.7350299166452996
19.642096867230954,2.3069188533839595,2.7859652701131568,0.986475299709233,13.634054522082225,4.1058979339701205
1.3688804501619147,7.195913003065216,2.273577474683569,0.5226370060390219,1.9382628187225426,1.6511059533732848
6.397125702745379,3.0128389608141783,1.5049895176217245,1.773901121020403,1.6780083988323513,0.6487332899002527
8.342467747361558,3.9901219217444313,4.388940965635846,0.5553171799132004,2.6376772296276956,1.246515670106158
11.889524701929126,7.361203304653994,9.081737635648118,5.676909996884647,6.111145911686775,3.6255876037525065
4.56246011282061,2.1187457939491776,4.633807559581023,2.341118296448162,4.674970931495875,0.7097125306148582
5.026010401584297,3.28806311219219,3.49977671607101,0.7324782928975341,3.981485259776245,1.2599762540420274
5.6036315806037695,2.869471379183,2.090190441699982,0.6295978987665148,2.128371893217209,0.6649065807623927
11.480199891401105,3.715527603298398,3.229646858481919,1.8138409586699087,3.02814986667267,2.4591386739138836
15.357082914606725,3.1322340130108643,3.679856202259227,2.72947445868443,7.862428663813699,5.560616786932971
1.0769792529194635,3.218249101385932,3.218605185662601,0.9701877740243243,2.2502719890473935,1.1470811174112765
4.242198648099017,1.738071434878869,1.9691550495826333,1.024625913204351,2.527834497619697,0.30404552212856206
8.253859628373412,2.5782910339990552,0.6710346104505844,0.48591858864708154,1.4253041053769515,2.4693458244297166
9.918978641782237,3.796775006733461,4.067417877407408,2.818833909240155,5.416989153749258,3.4878444884150097
7.133106785692178,1.4423228791129303,5.732827686744424,1.272173927217641,3.528730326756881,2.0800852882246446
5.517857932782124,1.1386271577683769,4.744252042786298,1.9648858490661938,1.0515040436660978,2.680298124105731
5.605585451373923,2.4522608799491428,1.1263312060218393,1.3829513492217835,2.077993586866502,0.925571929762122
7.63335439992727,4.419682037557341,1.1452036901656404,1.3701094846763162,2.214457947218688,1.2744897018022543
7.761628284551467,2.605328636750748,1.936512225973024,1.9563695212188799,4.8014587933343265,3.0866278248369734
0.9001231696550587,3.5278784045301816,2.787426621416476,1.3626248032537684,1.4535029673611484,1.1523638667830436
2.5733497594297985,1.4438291996973966,1.8812794802180388,0.585151866812976,1.5212696582007128,1.0247693425865543
9.102138401259491,1.216808226703728,1.2814438187144115,0.8955889790957591,1.9352260675814437,2.5913487795500214
4.994525334579259,1.6303755481089695,4.68740659731809,0.6197395815110619,2.3465880431819754,1.807189531902106
6.4092040174338,2.8183079681375274,2.2924863985556625,0.9319289802042133,1.254768664212417,2.3056433799229192
3.4269632381198916,3.48310286534689,3.5466162761866666,1.8646139316607355,0.23332666746163064,1.9215282247799892
3.5375416240409043,0.7688893682133715,2.0878432662964337,1.3282930163711264,0.35610730107425775,0.6392450805812577
2.852233628079913,1.7075821128024864,2.2186017657857833,0.5611186193817979,1.1521890390805807,1.4842807153956667
1.5095291929310992,0.9799385003084149,1.8327016990516984,1.321494541756883,2.2459411573794905,0.22006447172884577
1.7514492851232832,3.5113516802737075,0.1348222527108706,1.2921143013061593,1.0364445880104511,0.5353952618671826
3.600323141446698,3.114113599171782,1.3458063400062064,1.011386240978964,0.7888028267340916,1.2084717985049682
6.097345427028892,2.582980686563141,1.9134936630914532,0.8227409550340424,1.3319636315480254,1.0155298918469586
1.392662529931169,1.2294159978533754,2.5149534893080676,1.12366831036113,0.4789352084481321,0.7313254936007544
4.544859163844816,1.6168584009533218,2.209011592104298,0.4299131238281882,0.7441708491908842,1.5834024258286423
1.6487213526423716,2.4846646586404177,1.7899426072475313,1.0289243304042184,0.19029663681596995,0.6954543145676138
1.524731476281788,1.804989650306766,0.608783657887255,0.8831927791795816,0.6495993947390168,0.23980282946538
2.746139214244337,1.5403965675306623,2.176924468343551,1.2383644613619902,0.7953811007522394,2.1455184333101136
0.8210611385957596,0.7196384580018839,1.6246447452095405,1.1406506886676087,1.3791039900543336,0.9274337620937986
1.326637666307317,0.5607776599869372,0.5474551171098382,0.5978145548036505,0.49467196035381145,0.5243916239982074
1.9732900885844784,0.10989667435058605,0.5651289103137572,0.6402522533132005,0.3982799607425915,0.6638551791011751
3.1770482066047006,1.6132980315328482,0.48542972406290014,0.9507735052244569,0.8487526508223536,1.1025086602375274
2.946655696203744,1.9981038775525537,1.9088296186172753,0.9805889685334501,0.8737857893647766,0.6031444369228426
3.3612728036354196,1.8613895662909978,1.7372928591389967,0.4541269999597751,1.5076280925983276,0.9850361300897106
1.57613188232367,1.094604718665412,2.0300954559959994,0.2665854792203252,0.598633386292581,0.41169751156686457
0.6154872503369094,1.9455686588488754,1.3636451008374364,0.6303334745927797,0.6374604371688145,0.5325596702497818
1.9132419882782532,2.414943096825348,0.9688706671226415,1.7362461982705637,1.08514562037587,1.3370239511081001
