Gx,Gy,Gz,Ax,Ay,Az
11.604232,19.940472999999997,8.936261000000004,29.324000000000005,489.72800000000007,19.008000000000003
8.734581155791824,8.082668595026812,6.398280055773455,1.7456370617190144,1.5114455211413227,2.434523269837726
2.554101121725444,14.846033184388308,8.328377844664173,1.0936024844821537,2.158902728814878,4.126683517637285
7.372885585836906,50.329388930147665,5.260712826120839,3.218951751778547,1.5201263916921433,4.852549265940999
11.438853548427126,54.9378423502438,19.098587270944353,2.7160955642553235,3.266023012040333,6.138062594853419
5.285756753834824,46.9450417012734,57.3797626828284,4.720614699864429,5.294213796474625,6.741448021603317
13.303703246357754,26.18457229431894,12.304674175127133,2.5339125079943905,6.960925240456847,5.812551054671426
11.152988355843892,35.89319648222657,12.556396478575456,2.4321910354236542,7.559989852693339,5.627211796757597
9.507205692262053,35.195880562718536,6.904166442399232,2.900931758739957,15.153703060354545,10.26333270382781
5.589679227343709,8.84057694159381,10.509918692104865,1.356714994495005,34.098161302826874,23.193410183819708
24.956232024042244,27.240682932685548,15.215038207678125,2.4596287780553654,56.25124291234629,45.66776441175806
4.566542648179211,31.387711446204342,12.082654796035513,3.6885620956025638,6.742702896646318,9.231851277162765
6.399222401484886,17.541411435134982,13.95726742154822,1.7362932076761584,5.21547606527465,5.283823177594115
3.162091056015613,17.07207255682192,31.532336973455664,7.437012426715962,7.018583937379864,5.178412076955208
9.635196590981373,98.06061728823911,56.79288045612382,32.24367565509066,3.564501214295333,3.381667901704004
2.5704306968744204,81.49503281967704,49.314467187578714,29.586591260527456,12.111226882350719,4.229792806724117
5.19188142861346,13.493373444013995,2.446524349532895,1.9245151037703712,10.520667709629816,7.372439379028526
10.325944887429403,12.827240090953163,8.357194745306847,4.481608565543256,5.724215629085418,1.21698570378506
7.378356919035698,2.055967484299406,4.227441003396742,1.8841832806982033,4.172453809300955,7.536434802217801
14.515601832128901,13.39484396148664,5.988822527585763,6.467305773193319,12.063269219616553,28.001845245359874
4.112829458311311,16.857581051420006,3.646899775304694,5.76623717648003,12.521684595014424,13.312990403688518
2.1240599048456836,6.994237343489575,8.677756404001261,5.721131326014568,5.643290764933451,4.039408554226415
4.52770730571811,11.34368684310238,8.276115307412306,3.605110989292902,6.278318488728212,4.8130560051431965
6.1112043757555465,5.1588738278322595,9.092708303948461,7.989884669539981,7.089513659577654,1.6044965338502546
10.899344512852279,22.43715574198908,17.700808701554458,16.34629199690715,7.523700214946571,2.404747494943854
3.9398178598529325,7.1685255372633225,7.797794048222733,9.945045021023484,8.301878616472107,3.203177072467259
6.158084913478024,12.777398525855387,7.280848959551409,2.3351210718360105,2.9863756388941045,1.599099733756325
1.8431338440511247,11.984443540183946,3.1123614937375677,3.6462900317124207,11.110513309969315,5.300127488533556
2.823825578604004,4.922009135978671,13.475122216796146,4.580650985539679,2.611116818640071,2.8008066726818126
5.0771152586764865,6.258280009629617,8.170799621152565,2.9479332786443857,23.571348668859756,17.06547326561334
1.8623450255916985,10.224659371452695,4.075408829206602,7.0865414692979645,11.21914030988161,0.11368044592772109
8.922712312047384,3.661002145777204,6.349603675513984,3.4941328665774045,10.279870384448657,0.3492525405340628
7.064607349260938,8.935279021343622,8.688032392698464,6.1142043175790874,2.436896652897126,2.078778821490515
6.345184320212076,8.82123221778586,7.979080681634006,7.865204894358275,4.801101343971187,1.2846665916955484
1.4619940479701656,4.732936031720734,30.855434546549397,18.27500417618197,2.3957070727479244,4.959413783122066
2.158706367034005,0.6579420645648303,5.791453871681393,0.9034321600570747,3.658956171404162,2.0521944602408997
1.619913160798252,8.36951823746816,6.9782272333425155,2.7479435049956016,1.5972966261285053,0.8416833747701332
6.504032361179089,5.367269034094635,3.168078519972526,2.750930274861216,0.4920436947344074,4.0696281384547826
1.8684136608078221,6.537043570255815,5.478041646193717,4.553094346474084,1.8831421668276358,4.824513302369921
9.722740574876836,4.409551437208529,3.2348602703665374,6.285431257352953,9.012915294182495,8.013639407222952
1.7251429732525563,5.4107411238401575,2.384857037480213,2.8541683846404493,3.0249763094970876,1.5429777395653235
3.7780850134597945,3.903009134473677,1.1675766220301358,4.166191106309748,4.817024161593545,2.9205830246105866
2.6247021272461164,1.9929500370875204,7.647487557089487,4.492394421356083,3.927658829959888,2.120843949901158
4.30248061537315,7.507664203551579,13.835629238068593,2.9210364318338735,2.454899737084308,1.3597114196714482
3.831602262696745,7.641084904661647,21.022046270221487,4.640459833593969,3.886055887759176,0.5740559097704009
2.266716382273419,0.9605680607413299,5.091269491335584,0.6318998099559201,3.5449426554551318,0.5001356543361246
1.9414167084178937,1.8427813910265856,4.963900600856385,0.29024951231597224,1.5758958652713975,0.9053440988592504
6.283077101447222,1.0997764086445698,5.806311449363744,0.5245197025367793,1.4415528657712389,1.8070502687754146
6.646752881203802,1.0703829643593856,3.4105698849027455,1.0531094943163102,3.2083314446417934,3.0910433697034816
7.762574812327331,4.089464365247888,2.634320634345965,0.20223116880783062,1.8896178188323205,2.9197944647864915
5.426489914016194,1.4797803930592173,2.3315816050176728,0.576137933691667,1.5810022979681377,0.8221795218184202
3.785751836650172,3.9022211265739015,7.369918796926341,0.4780146779343018,0.4867554268016473,1.1972216760958752
3.292082014717065,4.080190729188478,4.66578761611012,3.751417519282537,0.541943850709484,1.1929876699600879
6.317460486372333,3.505019966490649,19.911459145380174,3.57996541862252,6.136705551915402,1.8441200999641794
3.2715659631600458,1.1065841722687262,9.708686727192081,1.9285368155795577,2.3607450025760617,0.696478472782957
1.7321093375301517,1.935355708503268,8.387476343664074,3.2483292386881732,3.2758362758791826,1.0015374527656231
5.922325246474492,4.370112440634592,4.965739568151827,1.3647835897278968,3.910512780956922,1.7529999359255493
2.8168087080145323,2.3601900930382635,2.225766681909734,0.29483829589388993,2.047118173570584,2.37033706311357
2.446640435351747,2.2378105045270336,2.628521237491061,1.825175229211151,3.133861241842305,2.3444913018792026
2.572061161497152,0.5643144851109309,2.8342011716037767,2.229738495021312,1.7618232304545223,1.1243166153905242
5.5453819963514155,2.4461072268503887,2.2309362652066036,1.9623429276436,2.0125195780976832,1.5706806155498434
4.271118365888619,4.662286198834259,6.220095002419692,1.9732693949251874,0.6825924247879364,1.175816191028205
0.9043206753495171,5.056632504543514,4.204004799389704,0.9554950801610763,1.1871928355196315,1.9389309232753673
3.6429220886030693,4.209992600188352,4.552567261116172,2.488421586279077,1.9486315880274936,1.2549212851537808
0.05570521267679814,1.0577198652240163,2.9488962109380368,1.8506136796229347,1.2128748313269784,1.5935807512649447
2.2892336415341514,1.0328326174511375,1.2011954271346323,2.3530978491410344,1.054917345633059,1.2992321000519318
6.982570555833655,2.6687200834400664,2.3037102755929677,0.4455608233314253,0.8073067493895216,4.561195453060358
2.477917319815718,2.544123045807037,1.8927277488112866,0.9393927775754405,2.1926171568627266,3.7723198214860263
3.5962346587831897,0.10121058530907268,1.9422842793187594,1.2660429083944151,0.6714251469505823,1.7834871618717354
2.242775624146217,1.481778608793854,2.61243187650278,0.8847716710818821,1.8266944367720803,2.3936520292071943
3.658055804487394,1.9252327855522098,1.203105672321899,1.452580084962075,3.02376107548885,1.4677101954022875
1.4876243859072975,1.9243955308508607,1.674584314058748,2.2740957210227757,0.6111835100381162,0.261608542413836
1.820670914416656,4.815115691739755,4.965189072511262,1.0977800038678192,1.8149406934960395,1.7207169533567768
2.0367218863441297,1.7988331879553225,0.325850857046623,1.888510818172318,0.18641078566306163,0.34421478897505725
2.498658370428446,2.301323271194528,0.9703936435041237,2.1124081052810064,1.0655665271721804,0.7185042665284908
2.2533526792233443,2.4084691954075046,1.4330820039703953,0.2532853116461021,1.177858607422052,1.3303589822154671
4.626401584199085,1.3844637113282898,0.9089955820921332,0.1835754680962197,1.3180761452188632,2.4584982728424127
5.00435801096377,3.060387089555527,1.7634190051829812,0.3831245342336562,1.1150668207849705,3.7340306255303846
2.1425465820724603,1.081724631982058,0.12908438708618472,0.38735521068214596,0.6233197673778625,2.0484533051508094
4.072252128194123,2.786053147860918,1.4698085750172458,0.18417119278407978,1.1883315145202393,2.5142094842143696
2.894496196260627,3.659507087758997,1.8238333445391566,0.12591620083182672,2.1988548710499467,0.8747610868519754
0.33653968385583594,2.1392207971999357,3.3277228283252427,1.1117316670302664,0.7281300624345309,0.5370702565108925
2.3882735762133485,0.47763499968206646,1.581584331525886,0.8739838279702196,0.781569402830376,1.4886400118582641
2.268425225600178,1.3500894521042408,1.2565974535321682,1.2677245273087925,1.2418835256797285,0.966822706682233
3.00037061497798,1.0104060604935097,2.510001685312559,0.7892376034213774,0.7051232847723377,1.6868997898873013
3.2483063693732417,1.0279132320262876,0.9706043757330327,0.6744005332437161,0.9591557181067053,1.1629558588334485
2.400642219399102,2.1975209872695314,1.0466140332212912,0.44531129837195343,0.7555839176134972,0.5956419756259249
3.6381543358510195,1.8974632003463636,1.4319005251791017,0.7017199083233872,0.796460919258406,2.7539394812307427
3.106228084832376,1.7262608112832707,1.2702970032891812,0.7675984636610066,1.1546863620203567,2.2603480189981466
5.048014598925039,2.4360028173075787,0.3917013734761959,0.592055538563712,0.5798500726749979,2.3862719826517327
0.17201629177713706,2.096768521415728,0.43100533961845017,0.2801945340868462,0.35961808540055196,0.11464822587521668
0.28044369859975893,1.8597232242598851,1.385418365625821,0.29141734636053374,0.1487891598677799,0.9014448773795763
3.8562717526132597,0.6304268143097187,1.0406173656443325,0.4237553355820777,1.0588753606905066,1.3449268794002145
0.5382592922615413,1.3331352090335173,0.747318640399861,0.6870961410923963,0.5322548369406581,0.7336829215750763
2.880529475401684,1.4492082794413481,1.1765679931723612,0.5017545647310271,0.4006538676979097,1.3025454839542912
2.307826122979887,1.0557213185308012,0.2376270091915292,0.36466290350008157,0.9709802007313942,1.883728311088435
1.8101227187383433,0.8033712673473341,1.2884666895609802,0.677288562352578,0.34726114974143046,1.5609951930271264
2.160173969610095,0.8788372894222551,0.9838608739504736,1.0921547293855898,0.4241515592360327,1.4553098347077316
4.119052464111109,1.110752301171704,0.3651374104751351,0.9578578065718316,0.24762660033621983,3.284141771009105
4.88648014925224,1.719316560903831,0.4136889614179962,0.17031907230523918,0.5052897038511097,1.7249354310861533
1.1818236697912632,1.5495432272160639,0.7319998892654143,0.9430020523537759,0.5377328511880954,0.3600912080652951
1.759469075602672,0.216609916736233,0.7453734338353439,0.4030278028677549,0.6433708733669847,0.3182835411315156
3.975535042720264,0.5449618065656234,1.0840260113152402,0.4303352336067387,0.7649709235543041,0.7816081600453784
1.683609165881917,0.940254703984035,0.3182526053631367,0.3550144598982007,0.21263257657850093,0.8613384369651321
1.9193728736382858,0.8588215341423221,0.2189432281335801,0.22271998806591792,0.45410968666520485,0.595897384532354
2.5569811868708103,1.6305456855864202,0.07783864390267065,0.22187292472552214,0.9093484655033752,1.937984473835258
0.1103299521113445,0.8293583618687386,0.765363781340454,0.10540715068063715,0.16293571479639293,0.6149101694903152
0.7212931730893114,1.3323654862088548,0.6036148171453923,0.40302042186629333,0.3244333069307637,0.8953669092676126
3.2666548054347406,0.49282443140214455,1.1535751936596244,0.4754791549451668,0.9702779429894143,2.5490819175738952
3.348376841114504,0.7196233654720862,0.39062817895914803,0.22103098276086108,0.37789876706188724,1.5351991918297865
1.6575048769197085,1.164598750225196,0.5586562091460451,0.5309198349133629,0.4864667054428502,1.0942527930024961
2.5227597483789626,0.3270005591492014,0.12856321394968906,0.42615255891776316,0.6230218912733408,0.4178597791892324
2.454285484077047,0.8595491637448905,0.7547372703054734,0.21182356965081206,0.25318523743609367,0.796055778652286
2.8961368081900005,1.0953854412949462,0.4998512285420537,1.0024778516238604,1.0330616276588094,1.2366887894875411
1.7858242268000104,0.8506458386402156,0.29758229194746866,0.3339911798809531,0.6945467887491651,0.5736655020957315
2.511081526465311,1.59190462083663,0.03533418525162063,0.265733694190289,0.9997712991338166,1.7187201149765003
0.9263228442950082,1.3841053857517556,0.2809571831579594,0.17368120384570024,0.4156459652401304,0.5665300645760247
0.601558544327346,1.1016040669656457,0.6850049973319127,0.18255796609414987,0.5682514748107742,0.8088132749020678
3.75425442396857,0.7702747000621457,0.4045339171340043,0.021266107131776867,1.462529608936813,2.322554672548764
2.0589772944872564,0.6306605705360222,0.5358890333599144,0.12384699546495735,0.5294079533690773,0.10073748109798251
