Gx,Gy,Gz,Ax,Ay,Az
4.093685999999998,0.4293649999999929,0.9890729999999996,17.27,421.026,26.810000000000002
2.76476445162159,7.352791067396802,2.5068758193282275,2.7685273088253832,2.5571164173788805,3.804931589066746
10.88562362051222,11.266779437521903,10.496750935020899,2.0655233412537237,2.0474269514768717,3.462102534813973
17.69721964786949,41.30103856623729,11.783390899990671,4.57993168293413,1.2794154461346512,4.947799707647887
12.54396710571118,98.7711800988146,34.55819679962165,9.32779697365391,0.5051848962025178,1.6582399328915858
3.6499532617650376,165.56306507360034,41.66069365961685,15.504395326143051,7.92204126076534,5.670736150840114
8.520843536368378,34.35096435914843,16.05327579026357,3.591333461276126,7.755922411110952,1.3432918037178705
3.7216776586274634,28.69560328929734,11.660952372543194,2.554990216248316,9.274951089995064,6.5429077407336464
16.006172817141394,9.649357241375949,10.664560400234283,2.08877225148,15.398049454110575,9.112233049279414
60.4051383917426,16.141766984061167,11.036046779694429,4.961097712628362,71.91137086701904,40.32469136071334
24.968983459720224,30.263016335218094,14.185351180284668,6.296660944136002,21.444133104049737,13.10493747035537
4.826258253699123,15.956163637965252,7.361566397844316,3.0966763985887438,11.638781602837781,8.636749969264779
10.547849451595509,16.792205958775263,14.77405665831138,2.3244049141102057,2.5923088576685824,6.656579326580413
9.168485575088607,24.552673462436328,22.626967969798958,8.285408310874095,6.80966766659596,3.6798712693470788
12.564671342901324,94.08815780031469,79.47403802034344,28.43003154478915,3.9536265260050465,7.077495275274652
3.4873039661102245,23.676089103640944,5.29032655283448,3.347509452368415,5.585840761121135,4.3369825716669705
8.848228277407694,5.0613867376031365,4.477634621546846,1.891934888364421,9.029614168953959,8.811793009232785
10.80302604804509,30.421517345562087,6.019113074795781,5.5377750046077985,4.493228326302409,8.66805475509273
16.0253287322916,10.265506366452005,4.623176992254295,5.432990973110683,5.940626030674724,27.346272492294997
30.016817431834966,22.007124713339174,2.2755763305301975,9.289451676769017,6.742597000174886,24.715724686975406
9.105702915150383,16.70345614521328,6.8607605612966065,5.328155392558218,0.6785323348875878,6.022187583859374
9.843102859938572,4.256048858878568,8.34152414432568,3.2371217817025073,2.5847715391467996,5.137619976571622
9.5551718695797,14.44280671292069,13.59799697296378,6.971513448175573,1.5191035555962764,1.2618310379508086
11.367591250164244,28.869133296548824,12.853586501550526,5.763585248869878,4.1831915262684385,2.852446760128397
2.839038016741706,0.9165339278701945,3.86820456833703,5.388533846529929,0.35525438394368664,2.6770818218974326
10.863307622124045,14.092057002014197,1.3573274703199116,5.837545913186764,2.0884475064676455,5.739978211863154
5.852181496811995,8.787639654975074,5.091482958673173,9.087416901581758,6.656922642080272,4.979939814511657
3.9565031612495902,14.42164533852267,3.0514871009913933,4.015149764208271,6.795240145132397,7.464028435700524
10.399123976055591,14.624450584323533,4.61328580417541,10.186719298638925,13.648900243678513,16.31077089708536
8.1532856465065,1.8325939005125051,2.926240672509608,3.225046660184604,2.1877323069853554,1.5049116389450323
6.484877389931181,10.046775465207238,4.8506055078375585,3.8911804170612054,4.889576041343135,4.0526164726944645
11.466539629301188,4.166078986234925,3.468822934000095,6.890143185640556,3.612285530552739,2.810600674044498
1.7962618315274907,15.576665310894562,9.55641695081597,9.629659309423738,2.259039060772753,2.6144400028244044
8.777577743613959,11.695672515634815,4.9321751878506115,6.3338515679476135,5.212798949254446,3.5445310113248394
6.942894546678993,5.434967005730214,1.2063805036632833,3.423774002877251,3.517094580983847,4.691566856453483
5.952648599470099,6.537514555845611,1.6297711555959031,7.050644530415101,3.353897418152149,2.073305626134657
4.603051636606733,3.9754023931205746,5.476038050144827,1.212522651272234,6.7538384117130414,4.802375141453782
13.55084032014846,1.888688287863243,4.062413372893763,6.726216300485109,9.030200389708972,9.020992028660665
2.9235184462043007,2.482256718405755,2.7526615455669137,6.3005397358273605,1.8620487318385048,3.225376245051939
3.7857480633340006,2.7289248564715147,1.1340185971802872,6.263661039720916,2.3496843422051295,0.2225471420084708
10.460362769591246,4.350826262980608,1.352365058766179,3.7069899630921177,5.174121881384142,2.846899277795701
6.376885904832476,6.375976611726199,5.033282145215352,3.05793647583635,4.98217818915433,3.7631880596796887
2.636290008575946,0.9305092054620113,2.2228032461403457,5.370643590788319,2.7059515483109453,2.784105989630268
5.381704202930373,1.6775929896386605,3.285063560609311,2.1047516200435306,2.033543538315985,3.0924508138163853
7.854979752071331,3.05667110603695,2.494186414096522,2.2142383990656835,3.266737354227604,4.108587283081081
3.3958050310918253,1.8202285476026383,1.6803736330579189,2.1286114608699815,1.6767693111220148,2.0548804363076614
19.012314829534517,8.039459490656983,4.732652233211415,5.59389112530909,19.688311290330347,6.609433277679006
1.2821259213606913,1.841877325183299,2.782945397467267,0.6121008065531297,4.67684111963032,2.0430031277067475
3.864931055252025,4.103014489977183,3.944621268391838,4.396318440452659,1.4988924343190881,2.889381948497618
8.281096736935918,1.5590852471698522,3.9580909942774665,2.958206787308194,3.85997052747215,3.403266024209312
4.548448902877555,1.340664026386699,5.310314947006614,2.7981320807017727,1.6832849247281227,1.9645824453776823
8.483065489516681,3.448054662779057,6.642697822460723,7.539368059296774,2.6027775421257124,2.8221384047874634
3.373248741254147,1.6806954007912298,0.9924464662709831,1.6175791282165897,0.1596428867476148,1.8373126660279044
4.0726070603723485,1.401312650174337,1.47681093894117,2.1477275065598076,6.173421472368075,3.2386172750956996
7.589157442417248,5.206809004133443,0.25886240054394366,3.056278459871454,4.11248263530747,4.733553370092379
17.080330935514645,1.69219327735886,1.816216298890989,3.7694680034828356,12.927966789515592,6.840463757462568
11.30221537370539,0.399502324929942,2.863158203745914,3.3032690153107147,6.609422416350123,4.866294787746035
4.182970199273556,0.8331696392574752,3.195746478928189,2.4660891701934275,3.747470936770435,2.6032966969023192
8.421523746749354,4.528740926586729,1.8671859677260925,1.7572283440785499,2.342739005294902,2.308481123634384
3.127698704575463,1.9262155825520075,0.40782805371338493,0.6587032948505392,1.5942157198925901,0.7854945991624052
4.7554217905523135,3.6256455430516885,3.382287074236348,4.068447201603927,1.6320213700874948,2.584635438238684
1.351691707669143,1.8565654484204195,1.9169440203802919,1.5290527450283966,0.9881006508756649,0.6223465216441968
6.121642741788241,4.236470898789617,2.8577328238855473,1.906052906640494,3.0546888524075086,3.3300875395658474
6.992667981038234,1.7961385278550412,1.4383019220945235,1.4946433449076797,1.4682590637377595,4.534885997176036
4.316579300015403,1.3763629148566572,2.058349411384209,0.9107287174343381,1.868813823872451,1.5988322795472716
12.027668284536622,1.6715327110676086,2.3218149116182407,0.9832307980651165,1.32232165296212,5.565270058943884
4.169103371185063,2.4076112754925654,1.7753061615407872,0.8108678085843207,1.7029763438572116,2.740145315652056
6.592282209435273,1.1348038693212763,0.9123431100671098,1.9165453986789622,1.398099616837499,1.7562299739047904
3.1348603119550185,1.8711104108222825,1.4017575744520574,1.4399681518553766,1.0549309256566515,1.1937795347224651
5.054560651341678,1.8863423122394343,1.5857716968443987,1.336650463320323,2.156666307822622,1.9432755559609154
4.477356766398094,1.5462751238732038,0.6497181423741272,0.6313216738084693,0.6231343733391856,1.1370439667663925
3.9126655858592088,0.1593076720760825,1.5534317681650371,2.187381993462637,0.9211142810718619,2.108557282540068
4.633454473661782,2.3939334943089166,1.4590622806424525,0.7753761533869938,1.8124117115128764,2.7117004192827068
0.40819915269159257,1.8604529497200395,1.6291040513049182,0.9479568360672239,0.9971531168694115,0.25427403017598926
8.427802534199438,2.5459557438051177,1.0570377584180255,1.9141025873647746,1.333735365470585,2.9616487578166892
2.128879571181599,0.6469806153637191,0.8169038587628448,1.4343451969597767,0.6070009303990169,0.7959491298369237
6.558059478971593,2.2519604331092236,0.2169779265602561,0.6297325766742485,2.0571882889545035,1.166390550655119
3.628082291810034,1.2387671923947343,0.3545717679619882,0.07557776514294354,1.305300805676584,1.1115622375266208
4.490710570549194,0.32533818830751166,2.319073964126687,1.0870877940219086,1.3105185164003816,1.8676746121704806
4.108849267442226,2.7644561124695954,1.1475708049727502,0.046429036763957765,0.5391424123712832,0.850636210998612
1.87015060040788,0.1429423421211262,1.417302903045661,0.7398252777111974,1.4739575652049783,0.720000160578589
4.450208503230533,0.2986499580235767,0.5016514430870169,1.1373894612572493,1.329958782851446,1.3934812556854446
4.258530089992914,1.0606318096330507,1.158410433481956,0.8230089755197826,1.1052985111763918,0.9153934521752958
7.66275129197844,0.9293535195464702,1.1458044768714588,0.8674118719791735,1.797834558327946,2.012847917200491
0.39884675950315135,1.9073919826296344,0.4559257935575672,0.5633412840512121,0.6332748886051146,0.7407634680622491
2.424131403031991,0.6805501912859296,0.06518365745341584,0.565774921375044,1.4528064720839649,0.8096817357253933
5.284898583838089,1.5848882017385209,0.5734228508106315,0.9638901819445205,0.5117717100382458,0.4756030693984284
3.570821325533817,1.9515127257810014,1.0550946138377493,0.3961369986970204,1.7191876585870776,0.3792964417251186
3.514096013465378,0.39471412189237803,0.39516571857774396,0.8428637202710585,1.4510124570475302,0.3749415061585398
3.0443866278455465,2.0643524260010584,0.5284196151317812,0.2248726495105588,1.8214927684523976,0.7624735618790921
5.348636686354427,0.6613170449642589,1.2330194631832032,0.8442979761725626,1.581379947939884,1.105834094562525
1.9206458969701425,0.9620507495060172,0.4985949258218603,0.335277997349044,0.6896231029191681,0.41567063363106826
5.772091063444067,1.6598931942676356,0.7386158462774861,0.43588638678510566,1.9890606058663136,1.0518313547148106
4.3305981202961386,1.402088618957441,0.1676712764948485,0.49563749577002525,0.9286588585204607,1.3264250354324083
2.0942022252868453,2.131171972457247,0.7985423119124908,0.38107305161144833,0.6646167730947377,0.9121578402580067
4.751769336073258,0.48581474703475225,0.3673887343509479,0.48125026295515944,1.1215269307751905,0.14551651366621168
1.3631199351653782,0.6911047843988022,0.4030894971703613,0.439527633860634,1.117323657496247,0.7420092172927067
4.276995742746658,0.9877514413889471,0.8168419905234348,1.078310033669518,1.1997430918435135,0.38718024618988633
4.249536824251725,1.8532380667491457,0.9948337301285105,0.27653776726201185,1.2970409968437213,0.3195653038242368
