Gx,Gy,Gz,Ax,Ay,Az
5.902411000000002,3.845201999999999,6.251841000000002,8.884,547.154,70.192
8.949634994741492,3.5664987537607504,10.634992066335984,8.49838892563083,1.3570692062957976,7.338159803703895
23.208121845803085,10.995079917930358,6.637426491495942,5.222149116413935,1.8898783963750811,9.994660232955649
20.12873559587269,26.47699957555124,8.972173567917645,2.5960468194323174,0.3548559569574796,5.653755821016044
14.648474075298289,38.77133595606266,6.0502093353694395,4.008469307991704,1.3441412907665802,5.327797544759547
6.7773622522484915,45.28100560566384,23.73810590029268,1.2475211693839576,3.988036031324301,3.479882736479058
38.910706248518714,68.54694061922397,61.40848707207784,10.955372332852743,2.356831203416839,7.2761254519972
16.640361282504614,45.2311689179678,14.926809991548232,6.950084426578339,6.332965906759939,4.80851711600678
17.761208535599405,30.86777153104996,8.668547394893332,2.3740916332511444,10.028278268569105,2.129131094028565
10.256512596630397,43.55421545570938,14.381314424277871,6.5727916149223065,5.538492656335592,2.3954872596116905
14.572246988127505,73.95635023473086,18.309113288243203,11.925746773376154,12.91879716172052,2.6041939916108885
12.693998222227973,35.745463763016666,5.689955167324163,4.839277997560693,40.225791007908164,36.14448660991783
16.56080828248492,29.447966355882357,9.397233777958766,10.456504238882536,69.10929520755184,59.41463050700846
10.716594786745286,9.498184706001966,7.863910672393387,0.6824237961612998,21.665993246716788,22.244471794919637
24.64529221455826,19.465509979095916,2.7740901871989165,0.8991210766693789,7.7330264894169485,5.53842945493964
15.293796157797274,19.992446764927838,21.560081453208895,8.434157537890098,9.861964338304734,9.868839885228573
19.647695276260755,25.36712603646322,7.67786560251563,7.181778510110039,11.385257207256755,5.803496766184296
8.36602307419323,35.05004583037762,57.04216648178648,9.222798299693178,20.71430687364882,2.669089734373601
17.135889489954412,59.37519968232642,54.91492162558279,23.588009824504745,17.3969232907248,3.071465085652422
6.699471709867261,22.009073536910194,28.155335416350088,10.9647152284248,3.1917297690439703,4.6466040682732785
4.1433510337528,4.1317913174448,20.95921784378661,2.4288375305127965,4.020460064387301,2.4677105307904847
15.73057569637763,2.38919718521394,3.3254874810487274,2.509705334692711,5.581761497697361,2.4853456327994734
11.095663899170212,17.99354075793587,7.841662258862224,7.83230898787404,14.574388242792287,6.516901432147476
9.144991436270914,9.240674363196348,24.27267435206414,3.915432671652551,5.553774542266874,26.925767990389513
21.37333514033528,5.682212346364827,14.597740110533625,4.99224270993419,15.643296844612793,15.54997038908881
8.4896294612615,7.587132967101216,10.420312481881892,4.7211981731586405,13.005599176727264,17.011495741550878
10.430910723652818,6.77071747446848,4.663094766701752,6.514089260991488,2.7997749135076213,5.96961976055075
11.255792392458023,10.925032282639384,8.541477115161811,8.646969261847039,10.18457267082248,8.546088314992929
20.62463380971627,0.29351892801176743,23.842392290604298,3.9026075695432856,0.654764669010655,3.5492144586457863
13.203937137079452,53.37480340254494,37.79918916703638,46.435332870863434,5.201655686824407,4.054391649972875
24.772618362507252,43.06160589248197,4.94682142134513,28.330809497258343,9.65416259833905,5.387343346806945
21.418907469285145,17.00287884081913,4.751684581470903,15.826161035875918,8.818311487440353,4.607834474211059
5.561132283591581,6.7115201013779044,18.321814505890742,8.267609925799078,5.527034900845562,2.9329381665720917
10.626892204793227,22.198408808326686,4.983316914211517,11.868044108255313,2.4671334170400825,6.771208111149646
14.740547498440701,12.300667021080237,12.268777668407102,7.298708319964008,11.007969477905343,14.150030879614954
24.36525805139543,2.8404302181106975,4.3930393322293115,3.3978228044143823,11.248060530446631,13.793295177260372
7.812519529412617,12.724625934410323,13.62570669953413,10.887946908457705,10.579933687767234,10.283690097778338
8.319932716290896,19.762027369015964,3.8511571987143336,15.620094881182572,7.994440859745888,12.932928337813694
14.448955712175293,9.140269068080888,15.985226556644943,4.2774507301842375,6.361945599791874,3.362943080404425
8.908315594203007,9.038091788223511,1.951100903061939,1.8739818500942094,2.9793656577342937,1.62537823948198
7.308731790902464,7.706580749545695,15.202490058445587,13.57906859071764,5.277830660203774,4.441257558016463
6.6536126215151175,16.90779789395649,18.413506059340392,11.89767182441748,1.6258392272474231,0.986400178522207
13.603778798966845,8.008342862489897,14.202864176587736,8.475487697382249,10.630496233864339,5.230278723243782
2.760368918281115,8.637765186952356,13.566274455600947,10.743696406204759,2.3679472665690473,2.1490573199605283
7.646520029614821,3.774633441075921,5.3703505153832705,6.6885233270232,6.622614822606154,3.1132284542467907
5.762595592245325,5.32739435661283,1.0630151797354956,17.066653530268457,5.1331245835567,3.3547750297951406
5.475908996991447,7.702080222822083,3.3452423883625864,3.2266927908758043,20.994167419910305,10.679457902333946
19.087523941549033,3.747539143218788,2.3582815357679388,3.3437023310149514,6.722622692005438,6.018203496270825
10.390720718361186,9.758417838052543,0.7521025745653966,9.49361450450364,12.361180004550633,7.956087799849909
6.544740788676473,11.981352115870433,4.877348705561769,2.3558309123784724,9.439732657020075,5.905447716465849
8.968190625038355,6.298279068110906,9.127135133215235,12.833984135122817,3.249530678649853,1.6767819351734556
4.785649610248594,7.621307728179544,7.531166895051021,4.036662777760359,10.375879473364083,4.522993259183805
12.956837407185386,6.423994253885387,9.068186733391702,9.575854899513534,10.622297592694764,1.9156420172459383
3.5424508345711345,6.107057997820875,8.284967310328213,4.655136243965832,3.521418558328526,3.2811940922351623
3.6892223377194275,5.666020092304387,6.779367035553032,7.27570190249381,5.43094939775962,2.600969223657828
7.63452101261419,6.460271450322805,4.591916182932411,3.4295260380056627,9.124506394872446,0.918949278908437
4.532843594336439,8.67759582450056,5.892949615244508,5.328684663010334,3.950274749066822,4.436670087323942
7.34369927410438,3.906801422410557,3.2498192429302057,1.8222039664034528,2.1288871581308952,3.754793665407657
10.775441381472627,1.3231591222993495,4.445954223802488,3.722829360050169,7.538743534358888,4.813276787695563
9.027711208477532,6.006847672049464,2.177121016491541,4.01782163157894,5.767762241717791,1.025490409887508
12.466758887337102,5.05300806896336,4.261162953721518,0.9446098317484009,12.22381243367946,5.368508945335325
2.030143167968929,1.0991573708990456,8.141640862074636,4.134466181295982,3.5124374351915773,1.5536513916188655
1.0891809385109203,3.032754350079115,3.129456656803713,3.6594458734801987,6.290851107657547,1.2525968422592753
5.4319756399224275,5.078792941813923,3.2163476401750906,0.6953152130491025,1.7166114196719173,1.236371656070893
4.0043658330369984,0.6165732271822308,6.814588976433988,6.70673109071604,6.82846545973083,0.8338569202874662
8.415394578101708,0.6730074911578916,4.597355969071329,6.421967381791948,1.1384305731340447,2.316923145769756
3.6085238017573724,2.12838098613333,10.35616875985407,4.6136792657664145,4.494771408166115,1.3495797044263813
6.2776842184648585,2.520883361507148,1.2076759891973763,5.735106420080173,7.4683509064956475,2.485434379510636
4.140577566332498,2.631462087626797,4.314881168694967,0.7272205678854756,1.116463333944301,1.6128503764894355
12.307889355591385,1.8317874451120468,7.000685849798139,3.3238265314136255,5.249210238310564,3.4992714169847288
13.57734988420289,1.5110180752225886,2.2426595200378414,2.0489371639976155,4.072695637915246,5.318854608774865
10.713938789895002,4.898244078725569,5.1090602040312225,1.8256190986530494,8.498079459211183,4.537648256930335
8.000914836379826,2.00580354480033,5.458341733330821,1.3123678810066375,11.151830391999207,4.406046376686711
8.337827598384523,2.787063328926316,2.6628628882820173,2.0320650157380653,4.809954957449684,3.1253882540021674
6.2823538896937725,2.0735564204644654,1.075605963105309,1.6568656512187794,7.049584389237421,3.0489435704372236
5.829631976310143,3.8736238455211507,4.887384748348632,3.9670385978524276,6.489806190241019,2.356811935451107
1.8570132684808154,3.8699701939096567,1.7558980879070376,3.5535546696401243,1.9682538702909937,0.9803909839358721
4.264788031240239,3.012138402880187,7.364056222723616,2.1119066316214075,3.7302894687117414,1.225483859713494
3.2923180967025676,6.765335382254647,6.42879135602118,1.1224916711762079,4.105915208116267,1.785979046588193
6.686905031645843,3.214700118952763,2.4771499227953857,1.1349075049021764,1.6626949231160837,4.094374849757338
1.0958145951214826,2.3537472887472237,1.0574120107035623,3.80084295206263,0.5931768791906948,0.9030424100450422
8.52831561872604,4.634695745068565,5.669462307069222,1.392965185288284,2.8705213119588375,1.4049954421081028
7.185276475314606,1.3104318964415245,1.5219047455245849,2.0481863348815006,0.4117348091553942,3.280307133717169
9.898220327532734,6.2150219317089626,6.194541433038316,3.9418408753410756,5.003658925287907,6.688095643473824
4.093801360704428,2.3850463489175175,3.4512640331230373,2.42193281494087,1.8617923849909455,2.9914818560158896
5.183195134833872,1.9966985264062251,1.0436404012244525,0.9369320927077815,2.533764132096598,0.8069546176167726
7.652427792187636,2.6163567423358614,1.5477967920823237,1.5219634006319813,1.764083698613904,2.34285216374345
3.4229397004444846,2.9070240409336385,1.2092229624500548,3.0605198635685356,0.8317535397960266,2.4732032453141044
2.145969299465121,0.28296409744730466,1.8373418604678664,0.4305620880547061,1.1619521210296115,1.8244719458676788
0.5233951560672887,3.443517073893114,3.6864635680375986,2.7952809264112486,1.4494282404518222,1.2016460275488563
7.4342596675734045,2.80306489961021,1.7044995880908045,1.4604822259714547,1.650751463839816,4.081772003006099
1.456769765241767,1.8107184031381933,1.0782177263121178,3.062202530907553,1.3467075479959674,0.5953578589397515
4.359855526431805,0.8411518888188267,1.412605697600032,0.7923733509730178,1.3422727622267163,1.2299719009328682
7.33895892833532,0.26387422538813804,0.6988001946138573,1.1019666576092058,0.17824847027742735,1.8843472988617285
3.3019316282054336,3.834468130193686,0.9295946108112054,2.1030045886234223,1.1465265975916594,1.3402163332871906
11.230562704668987,3.6720664594519707,2.059713245697835,1.4610121361666688,2.5568794885705057,5.0457020269540775
2.7092808941146176,2.395800768589971,2.220650240134262,0.7698661424727755,0.7323932965804878,1.1005727312263025
5.743759977969125,1.228313592165834,1.004424237506706,0.6111924171417638,2.8697323453193557,1.5919039617005057
1.4435759862215096,1.4098764555234282,1.721051607687028,0.7719554712467962,0.4641813222118541,0.7151201374786283
