Gx,Gy,Gz,Ax,Ay,Az
0.6200399999999968,52.86507699999999,28.42760699999999,0.6199999999999959,547.4,109.17799999999998
7.701621005892353,58.90911077009514,24.48991744429701,4.028898493537191,3.24989131279211,7.155828086193002
4.234860583591216,65.80374571374729,29.547778522762904,4.27082162076572,3.8462614322422515,5.918334164941321
12.862858037269147,85.3212822815255,7.377222198078901,4.147381186483178,3.182823884288426,3.4378068871477354
14.880547750093566,52.51256084738809,1.7355567908392857,4.044128587352323,4.01128427552553,2.2211339399165855
6.5547900370137,86.84872541497471,5.209922447627899,6.119840799730272,4.408639779967546,3.4418902968413336
3.9950309736141456,89.47787491483474,29.35258085061867,8.006134456841734,4.7896226438726,2.0954423032053593
13.481408544889861,172.8639000576917,123.90485961013617,19.730023577546465,1.1677731929405295,6.3037956171371
12.9435428529181,78.62857222552782,32.74931999416004,4.800058791294046,4.94242269788356,2.1890360814166128
24.874562541604245,41.56188415111835,16.192437717145197,3.6642366332017224,8.87083873088589,4.6908020740457195
9.602671786505978,19.53910804675555,16.381837808820006,3.8866968420781456,5.2733823128426165,1.716773761294718
15.486653857501274,54.72700545226841,21.44847587501592,2.2131400381573387,8.28512858098194,12.306375586164833
44.81031072127419,10.589536508579938,15.39497762907281,9.480555365924936,39.77024501177895,28.30268234872425
84.06179893434982,27.667091247321068,15.332405824884443,5.722049849040012,114.80690535696233,64.08603498826788
48.04190519104168,41.45969179973636,6.37153542758082,10.059918887885795,75.21122422858448,48.63239560765391
16.383630188148345,32.30901548972128,35.97158823364298,5.255975932111221,6.127267981555394,3.1840012477597286
13.994917914336972,44.2443255506983,29.89895035170185,9.923831598479666,11.552436495947992,2.8754895168842203
12.277065314725737,46.53371341375134,28.897018508876638,10.886291530282374,2.5528543800200234,11.85293248059155
3.4340117365968603,46.430353780189186,29.752596636504403,11.241990806619404,1.9944822323429414,4.805904629596236
8.142509275567631,26.940687496972988,34.382177453341775,11.390085300139514,7.659662014442913,10.181144265713042
22.318184595439067,108.63712183244675,183.44255234670243,32.39000449560077,6.561063653423414,3.8617966947208786
13.432560994241458,95.72162806690393,75.22193917018458,27.311329983933064,1.762529360617736,5.64198814660211
12.078422649403171,9.691693678924079,24.378580983363268,6.580916145058822,8.891378079870812,6.129394248479882
10.989385051872366,33.99661923526449,10.847080601204146,15.798929128889053,2.8696738909945565,6.68983477512016
18.12400977174326,42.58293034164219,2.817725227141741,14.313443623895173,21.931236562189703,13.981404391932964
10.777746738321131,45.20203735378285,3.249777618395015,14.953243961628797,11.93456046695868,20.922799059227692
8.542679384736445,12.572381878976358,10.316165808314913,2.6497040068057536,4.255461053736377,7.212202991906971
30.912642137052245,28.0399704189417,10.886394261606336,6.016285786326185,26.53544788123203,28.28660469146947
17.470775264897664,17.96183243907116,6.020561886124433,4.007934135953406,14.212522336217273,15.041606257221863
5.035696395722565,11.193611748273751,10.638751084536276,13.054159251332418,12.521983449310394,8.326539535795359
5.524185227349144,35.4850036143489,10.880862248188249,23.733352491159916,11.784583263034142,6.221277759607252
10.113807172549548,32.51480970665998,15.190871528668838,22.873632455108964,7.3270355781031435,7.365294858561512
19.54210049321779,39.43798728945026,16.568804281250593,30.450733950585345,5.480213706698532,6.9240899092463035
16.822247626798646,40.904331436411894,6.238657004336944,27.66998206398289,8.701482548063648,5.021795739413738
14.47783418108921,54.87217270074999,16.97182227619274,50.75898668799214,7.7191080515901325,1.8147651570893035
5.084210326063594,16.78089569181803,5.493857493700485,20.29281980238515,7.956117763183913,2.4351030853824485
16.936561625271185,10.214338662379156,24.110686140686756,4.51673442491117,26.976357616010407,2.471174025499251
11.22651022547955,19.649904472722167,1.6083746602163858,13.46438732051108,26.512848122396008,5.737387171622757
20.700919335975584,11.766708146970867,24.83293147142512,7.5899159250862045,8.235777589028839,5.184250040724544
1.9649712703628148,26.325379021777636,2.9653586095250923,15.476045511649655,20.616669984663563,8.629318677017533
13.962492653558447,8.895606035357279,22.205079224440645,13.815220524260809,23.192685311330333,1.953146486240609
24.581427247450925,8.267431120513166,5.259074177431666,8.0657159375441,21.119484874680946,5.414358254349683
7.334922039149978,4.784419355364564,18.66017079274454,4.900064569705433,21.196643527887527,5.227792050721569
9.038876341452147,11.569817478545533,17.110383569838,15.166591645671081,4.172609532777397,1.7185253825672355
5.976637853157669,9.319849755942517,9.475444996823855,19.208258996364577,6.253009355076264,8.432600511859983
9.197830166650256,18.937069661406525,16.910794907267654,9.95574295583668,6.870631436049266,3.6654169261115914
21.27064712257823,16.561230328651085,19.741761912674882,15.265262433709665,16.706089868361175,9.93355181297087
12.544269162711336,33.389256679859386,18.40847992217102,28.140467973929614,11.176849158015093,3.11533056385417
4.226423014879951,21.28945647010795,38.58151095675193,39.281798857086955,8.211358133819122,5.070031795321144
9.1632288346003,13.415489967900164,20.43272027871709,13.114915400097967,9.996870811692105,3.0218432950898033
18.912060289666307,6.812970947220424,8.89836790390055,6.403319701559556,7.767776758525068,5.142482607850219
16.134593698256822,10.292847713257055,21.48892041892778,14.2184164067753,3.0914005301371046,6.606186375769343
2.960624910506187,12.099851231366575,13.045926361390153,3.9432815610479826,4.52124229621731,8.293927988196593
5.55354104125043,12.522091196162675,11.751514477996645,12.294053392617691,6.317329225894286,12.140621171496269
13.149541132423005,9.891672996789339,6.731268128046447,6.882818630414736,11.248066547036496,17.06522580176135
21.819059947138065,1.6918772591663922,13.675595894428561,6.60226231726343,15.76878996657845,8.595176429068689
23.539896046661774,11.302826033660502,10.47566917126385,13.710509351349648,8.745428947429378,5.3665984524391135
8.766461803047864,13.993964337161742,8.748748448629428,9.055523173439015,2.3399360176645887,10.5705721334016
5.287721470564765,8.425757503047887,8.07419907217201,12.408516497164335,3.6771378089978795,9.55768273412476
10.280424795341037,7.130669860737628,10.522630941123312,8.581905934901107,7.805932558941753,11.357898393690572
13.264938127131826,5.077177102805278,12.871142815705124,6.303555664604483,6.874652825400575,3.6966407645794552
11.960086094826682,17.691983176636093,2.641729447821914,18.985952593428955,3.684488617545177,8.533556793393263
9.034456547595072,13.379181502976975,7.150901212226327,13.111503255088289,10.521172136169348,2.630565998111952
15.253314675387214,9.819517616897059,9.824462860384074,8.318704896989278,1.7673217626709392,9.499409981328219
22.562090414642753,5.6331398298401005,9.468545235664124,10.789715611577915,2.0820424334146965,11.87744234236212
11.363005055648175,5.566520408977029,4.233268598949108,6.7290715231207345,5.597179477012126,9.212703108780692
23.36618937686003,12.820057527375301,17.397357388028574,15.10166970895243,2.348724371322847,18.522102787708217
15.707918519113585,7.216670950007131,1.358045817946664,6.191174457767668,3.8642211602232313,10.666957559651408
20.427823888366575,5.931142973969412,6.008202109510561,5.8009908814934095,4.275555343770712,16.262095096324032
24.147545006255758,4.993369978133294,21.938503880731613,4.529924749714262,4.170571059173848,18.421242124168565
10.749803366510232,0.7028048587911346,0.7181220193748223,4.995524478462543,1.3655336737224777,4.873282183168554
12.058748432047269,13.11216048826838,9.367577305774574,15.839665785382392,2.046264180974744,15.673548453589792
4.283158881543065,11.318042481515546,5.935869655938036,6.35727736756422,0.8813631143850825,2.3928056765349353
3.1817462079111576,3.5194054968370967,8.862388950993278,9.921182898411622,3.767097483020029,6.464264286276036
16.33308119160761,3.0568040972276536,4.393641748540211,11.004591001153292,3.122316168097981,8.92402411888354
28.51672246299586,13.716227264120866,7.799465330810561,9.165882553335093,10.1211482544368,11.62517238885852
30.796738578057717,8.139149780339016,3.256396807408534,13.757990306440155,7.7543434060870435,10.3430497767223
6.654445490412708,5.681138141309619,3.8541786483018567,2.5877478923580686,1.2399913171121912,4.113783107858122
23.18668751070375,3.8936840360486147,10.853525173775763,12.825105645473322,7.946562242067094,19.11583192186843
30.651668406187078,2.9966089809450835,3.457391319494408,9.02073709245713,3.136437320614026,12.989562490277933
9.351017457171404,5.3413799218228775,9.186459383469886,6.140338193518503,5.191993760941908,8.812925558085176
16.833121165174767,4.815103830400773,8.902290352963725,4.4116955528216115,11.31191006439521,11.058005197142332
31.167133832049174,3.171710969580871,3.443758570929507,1.2674289791781193,10.660664941532243,19.6939756184174
38.0623966148599,7.241532823228832,8.174173028443048,8.712020451902415,11.180005386645862,19.147391431210384
6.0507462498583475,6.229138962452565,8.123839809752393,6.801755698142624,1.247212168948592,7.169879774436412
4.176885905801932,9.454554580719654,4.005999774562253,10.15804321379153,2.2509745592541894,9.7486299901833
6.8929042255105,12.601488312225106,3.1373348460030517,8.837527379635159,3.2998434147277567,4.890332308224847
19.164904965474484,4.763010645173217,3.486515255665382,4.013798645427622,7.611694320087077,10.21541311108863
9.387729364536781,9.530519369381109,0.6887114736673174,4.676487389647551,4.0424972785986535,13.754727259761063
14.585480502518319,16.559653528620156,3.84905223871416,11.322474459400743,3.6595384185968602,4.8897719741126915
10.143882949390536,8.47794454647789,4.897259834245515,7.426940202151213,4.832348137035303,7.996380718055087
13.791424725254382,6.4606493571948915,2.966450569632676,6.336872542705901,3.3549241255400135,14.287931610825307
14.504923297717552,7.039046971587377,6.302822023692315,2.6403945256891332,6.925683983920622,12.138003976062723
16.315517160064832,7.252559730930562,2.2061121692444075,3.754380325615139,4.857328066251397,6.256350475395659
3.138607912807981,1.4796501230299837,2.7922310047427037,3.5743081884937142,1.8626978517215087,5.4396037058349185
14.235663113592826,5.183443703601726,3.5186717790308504,5.533776832361477,7.086292510039936,10.586428581920577
31.203229741806105,7.291267228405799,4.081443239664759,3.942295531247334,11.70526454928892,18.71555605966698
22.897395127961495,7.607574595029527,2.1860776612543256,2.2209316946363606,5.41892247549378,8.61745749533837
5.813750910749084,8.934973156047839,5.599955595737279,7.820684449596857,5.247364202790594,11.720665789906954
