Gx,Gy,Gz,Ax,Ay,Az
10.596823,0.9331239999999967,1.3732380000000002,8.036,516.07,61.172000000000004
10.602421726729972,11.607619858453653,0.9555962466573675,1.1010795426902509,1.2909023941855036,3.3044016357252066
7.498009589657149,12.183639513682582,7.381559048958355,3.033789174776516,1.0397740770199693,1.7293898786485729
10.409770118067575,7.301755278209857,3.3789341450447727,1.2620834571791926,1.0844922275935422,1.5985072149920938
5.652883234727402,23.377880065258385,8.68774489442941,1.9255736704029025,1.135071803249776,0.8488961090116933
10.95619196413421,51.27434887745238,18.01033598193811,17.84446426785695,3.0931489082014414,1.0686064550066472
9.5613364665502,35.54331578642943,2.4136421603848928,3.1766823424520756,2.9256202720910616,2.4218545834897
11.891000161366396,6.346370808578467,2.109188741514825,0.6829433126146898,3.565765348752467,1.7739751295064068
4.698776528357053,2.8583803409139668,2.5628638662707,1.5663176934099468,4.870891883197037,3.167671011647034
8.218904021674078,10.181549464125021,4.474863280293647,2.617891200030079,12.994400071209185,3.519832651303069
75.63843751905529,16.942973386174454,10.98774439257514,7.210349336665617,59.06739655034873,37.47626740406174
8.73911741724414,6.429934443403211,2.495465406232332,2.289363475865671,4.4398599509400105,5.252860786170515
3.469670498132847,7.68412726384699,8.10787572020549,2.1981948527469797,4.287948310301858,1.4229768525755504
3.741953492320449,12.992738997880883,7.076912489370882,2.8771920955222905,2.8179363566600806,1.0664735102325344
3.180767322673659,10.453475060871371,14.07848257104647,2.520603256749579,1.0304532889652804,1.736276982031988
7.206513925885986,36.11417586610742,48.98391544075682,6.378179193464869,5.121530349800022,2.682487906458856
6.104223660957511,11.467882645420017,6.082372976147556,1.2173047504238828,1.5841562866937184,3.430298419019967
7.762472229215158,10.892879962187996,2.1980710427369994,0.7500951411406351,3.494148335976097,3.126566374931158
3.2849252955642014,19.018283943891973,4.245916877832941,5.9725997627891525,2.976402464297004,1.7557671449397483
4.124105025407813,13.491157024042412,6.853761749124276,2.9470689436493984,4.9919982991302705,7.263082728060792
8.469144789197944,25.15255799771795,5.30628653590063,8.3382068178614,8.392295541178063,25.87339156257441
6.086341071862958,24.439250207000818,3.5624188744559278,8.741388046467163,2.864520467167237,5.069227849586391
3.158207262035018,17.850229033140494,4.3753474792228175,8.493526850477336,3.3615867142950746,2.926796180507034
2.887672676419597,5.108207995161486,4.891080026138737,5.43705298487302,4.903008020976742,4.029003632101091
7.099892084034172,7.563977337068399,9.009343171726965,5.630669100484606,3.120045129953179,4.499434577964363
8.804436687655667,29.042016963199163,7.093476754088564,26.206385136711503,8.596506217050258,1.3899198111342683
5.194019936653825,8.475608996305786,7.6894606757108,3.3047630696105723,1.2473581594032856,6.598893958344656
7.200134290233639,13.988456366317749,3.8496315407918185,7.082438995264918,1.3735765183027935,4.0019190502721225
4.5898605159926795,9.38441842293251,5.01574981495628,1.1837054630801238,3.3153226580397135,7.310843936782058
16.611741032392516,5.149983489625141,0.6798517927275366,4.371805881229288,10.187275604361865,8.769875994253233
13.149868357028312,12.935976202131203,4.568449365481729,4.565120912178254,16.04268476917318,20.479619517915562
1.0775294521745644,13.445274027777678,2.7143278249596,10.87543136845257,0.6570119605475861,4.187356172700252
5.735984784383495,9.101354024331432,6.778874783730345,7.390934927938094,3.1561977528826946,2.427624740717427
2.3982900481669964,5.701358173774936,3.8320204709812633,5.941740143419617,2.7228434549992033,1.7275488049182286
3.055569416007169,6.3117408402987,3.5969633357620263,1.684679238354468,8.068411752600264,1.8921801196472485
1.709697660207219,8.869926458295797,8.40472350337535,13.072371533681006,6.789605094548683,3.2143767387603632
5.2281426237890045,15.509942732443669,6.513780138723813,6.705501061436126,8.900157572274303,6.527424793413145
1.923158638046395,2.100429705498677,0.29587660661139326,1.817447871168099,6.0478886444752495,3.8806562830037716
1.0410550064553366,2.775111443909996,4.838813258826919,3.4911913062352906,5.510962293554947,5.22689793115707
3.9423599441740778,4.271809485152948,4.195254481754316,8.202922109132995,14.450336426403608,8.106228865897464
4.218707410383207,4.391618824204783,1.9440538371572935,5.096414065631712,23.78884916278401,12.243177771421822
1.5338174699439444,3.090499529738,2.090996643544773,11.053843160238362,3.6578607678615844,1.1623758295708655
2.876845064081984,0.9562844703851181,6.678651638703804,9.208626038264722,1.1927675222121166,0.5752878882298594
3.0642319279773016,4.414174259434414,2.72884868850459,9.760548016687517,3.5261402331900347,0.7344822593754523
4.472710296379884,6.127826242362802,1.6063939678073131,9.818303883964202,3.821053084051745,1.7858120630423178
1.637049725380764,11.180306941224016,3.150756867083424,16.161629894585186,6.090196631153324,4.11969866596378
6.788525663367136,4.441744249279262,0.4687611231920656,2.7170409235661834,6.243710012312727,3.2972980137953556
1.2328329083308005,2.6572223710412937,1.2990245344460791,2.368043305369957,3.8421981948360364,3.463518403931352
0.7358150256385171,3.6690692309262976,2.2681455504928962,1.8219168952810816,3.275233985837356,2.6599915955657605
4.169597498973776,3.113423316321968,1.1468740738045522,2.414813833738042,15.094068683732456,7.655444736927531
9.176606872957931,4.828343355950862,1.3702789311654437,1.826580253965578,16.065971933989843,8.325403243380533
3.633174012928605,2.3413242943825243,1.4420038734623815,3.9222447435594767,0.9840386722412029,2.489951775033559
4.08844547341844,3.432612239447617,2.1273393695479816,3.6738844638042094,1.6344518264364634,1.2261071760617868
3.9605168744144414,1.9672407701828634,0.29442383521838816,1.9992350225074336,3.2444777617267406,0.739462004941254
3.7240383755315327,7.553409872442287,3.8042206779025727,7.893368843909217,4.435109460160397,2.711112775915357
2.783680910784424,5.540180208748972,2.921288567088221,7.5861185974027014,3.147288559461532,1.2705139580570808
3.977101796087465,4.1555691375562995,1.0397902971651618,0.586553048867945,3.3170260591240557,1.1795396660854338
1.8961516131186769,3.4218321846570103,1.3871992595367135,1.6654347854545344,3.5801817885240674,2.426460347532689
1.1565994312662042,2.5890766692754124,0.7540701255191297,2.063649004045279,2.1209447348894885,1.8245910991417287
2.5413542228034594,0.9346328414042678,1.4686967335432048,0.5837954827617702,5.131551506010689,5.405754096212513
0.3047524096354541,4.763616852358403,0.7256656902698926,0.5333720202511896,4.719732790848049,3.89416961096197
1.48457274136599,2.024030479448048,2.587365496522507,0.36644792298715523,0.4171571056402314,1.5305112207344138
2.4260260935909064,2.652643102637295,1.0819605819347993,2.0647663515130565,1.8968187628800335,1.740150340430867
2.6281553341606783,1.3415931758642836,1.7877740855823627,0.8992184642288258,1.6315792624083503,0.30519200505618227
1.7827921693725621,4.976642361527618,0.4166249896003846,5.520576759729632,1.7886108822107663,1.3573608296935784
3.317233373218901,4.41610278699934,0.33423091180053055,3.8197628790169813,1.14356587452839,1.3708677348842793
1.1018826224158884,4.8529242279654605,0.3810753225867968,1.111201075186519,1.344363331525972,2.1569588974115175
1.2039814674006204,0.9065708746811522,0.5476508561376611,1.3026598323417704,1.4173459637750043,1.4134526529707774
3.0136945542809563,5.065336151475137,0.3910742620255627,1.5100231150427075,2.0084941557847613,2.491449181569
4.33122929221027,4.849354038842551,0.8405910203643229,0.7416174846339258,0.025985094858079778,1.7497682418259608
1.1654700891083554,2.777491292137882,0.7055613289433023,1.019757663240467,0.26429603607139235,1.0075343428375536
0.651228495477776,1.5378473450150247,0.8121440688014152,0.4113961330179371,0.9914546418441473,0.8652163945225724
1.6343014238864741,1.3677106254241878,1.0522619498234607,0.8478336690224305,0.8401505684181563,1.178418315980133
2.461096615323378,1.5735176438079144,0.2185566680729736,1.3541640952939062,1.4316152575967984,0.7614035701336045
1.1510974597014352,2.9412802807491425,0.7972680182833702,2.21373023591093,1.2936622733370982,1.9853317036128209
2.53107824337685,1.8653524187178236,0.9873127186610462,2.6248697793240154,0.9307957669520417,1.5019800833019261
2.2972752318730096,0.3057121390763845,0.501239410657695,0.5942450584891716,0.697154945604764,1.3650258933856092
0.5828440319505866,0.944575224709032,1.2337174013648586,1.0525239491808676,1.1036281648353135,0.8076793924253699
0.7960515270971846,1.529591636890674,0.06632893019099927,0.28681903033502437,1.4905281719606367,0.703513221303012
1.0592353201478943,2.5960484581767886,0.7578825062148558,0.9892093399501908,2.499780771808557,1.5589845349099039
1.634123332521215,1.6086732127949737,1.5395945533037099,0.26090675211395514,1.1577607432226213,1.4171581292264386
2.2203051328385093,0.7400506445788927,1.209768780644252,0.6691729761512037,1.2729991864513586,1.5257052586930362
1.2996354195895805,1.7711264856909419,0.9548289159649314,0.8237706798835995,0.4703420458626133,0.6205865230735534
1.0063574424307655,2.723076171398356,0.7629946899912885,1.8828089882597603,1.2656097910036619,0.8514329008537875
1.0507926996455608,1.5312677507787542,0.6743422328462515,1.0456414739221884,0.9131232138003234,0.7928053855589792
1.6644286438809073,1.570730432357738,0.952140503466675,0.832556179045135,0.6463796451528888,1.2875374766043355
0.9683605875527709,0.9559313629229749,0.7334316673011666,0.7199197070418131,1.30332739207215,1.5300122157539817
0.6827030031507103,1.799252730562609,0.4240117315464283,0.9590015641280265,0.9496462499267821,1.0790681164782878
1.124743380511538,2.259888983652792,0.33450460306808455,0.4014189972596508,1.408721897668588,0.9988392588387469
3.155349231704359,1.9042963804928807,0.49015655535248653,0.7105083217631872,2.2110540409676838,1.7544710590182002
1.3318770216065163,0.7987707102515585,0.9675428411767331,0.9384264961734903,2.0361975783848023,1.6327395843424959
1.1476718929243692,1.078185391931182,0.3667793028656887,0.5582848443005851,0.7810083594347987,0.546195244650511
1.9863849683814405,0.7289302111226739,0.5467979786591681,0.6508847866614633,1.0356751961584663,0.41222913799386535
0.8704895397290812,0.5274792066478213,0.6860866617517289,0.5942342112616633,0.9767560441233372,0.17783714864657077
0.7986239342586857,2.651488842855274,0.6616515794305748,1.4644942792153328,0.8591893453761368,0.3299671488285165
0.8470297695437681,2.6004540405893564,0.8742370443907238,0.5599077988136709,0.8767336890516526,0.4359034192331847
0.9195267264363738,2.7555115879917484,1.3734536960770611,1.0640456302368404,0.6334733076054878,0.22050180524422555
1.392975793408261,0.5140591316425636,0.7507560516739125,0.8639781951380365,0.7053314521652173,0.62251410574247
0.8536628290889,1.103163992011755,0.944390786680713,0.42846689485832634,1.2017969843436584,0.5299311403325214
2.431850057341038,0.6681951585697807,0.8353451740387248,0.4632714564098495,1.512918217196825,1.3629725411747433
2.5875147069527045,2.005572868946396,0.978579526539401,0.583144614893344,1.2016520071905181,1.1204303425221243
1.0544199580377733,0.13202776064076296,0.5486222366612057,0.10842862297263911,0.45359967647568683,0.09254229934655497
1.2566458412387538,1.9258212794643428,0.13159288137323896,0.5264609941180033,1.6020642381300123,0.8600835410211385
0.8653272056386992,0.6948937776548774,0.5221921134615292,0.4819855335878757,0.05754014424157904,0.5178984194717758
0.6677455430327116,1.8397676807147947,0.1866773129094376,0.689906263653361,0.9299069189467002,0.40736949437611586
0.3854412500170257,1.9422322990330463,0.4313694961592867,0.7019618606047594,0.8435495077489199,0.5511308401615849
1.0846738594901948,1.2886613670612708,0.3607906355118865,0.5637525505790248,0.8161519458309637,0.6607156595914064
0.5170690192824092,1.269911382946469,0.47815957543768867,0.39468516842826157,0.45462960782606104,0.482073569795695
0.7551560158793634,1.1714530709196513,0.4085758607054145,0.7262566171429669,0.22366532230200922,0.4455166071825914
1.8987202176030706,1.1650820424744706,0.08541019513906876,0.6542753676198233,0.9467195813565318,0.17976347645276536
1.0589932190291687,1.383856553925617,0.7125354514220156,0.49941521918980286,0.3180394470004785,0.9949567805030989
1.0825361460060827,0.25805952242590496,0.1759642092294033,0.11766136271534126,0.6795280899565855,0.5698295999218305
1.2968739510877276,0.5248161070613458,1.2275947692178364,0.2067436824833426,0.40148085748430934,0.3724421657975868
0.8569009616944987,0.15223488476671307,0.5013553840385718,0.4089520389279279,0.8607489209700977,0.7348524975127139
0.3856358533645623,0.6262161755875789,0.4600021861292968,0.47344431009200605,0.39180746387378457,0.4727153124140653
1.469117657738755,1.0620616618420953,0.7949013964288701,0.40487590150587827,0.48964240115894536,0.1562633596189833
0.6215112583356293,2.1073300654112206,0.3667332105243367,0.24714521726290192,0.45543009258909023,0.5269564772107738
1.5091924977459559,1.7754203202172096,0.38625822750413624,0.22664902288724256,0.7900906451224532,0.4427330950503879
0.23926391357058321,0.14086939903665688,0.07167201882106064,0.40370333382277834,0.4187401985492031,0.8167787196706704
1.7727032565320313,0.3969825139628517,0.451058850502482,0.3497143707898713,0.9215655193077804,0.06539607796902286
