Gx,Gy,Gz,Ax,Ay,Az
9.546511,0.721358000000005,2.8160299999999987,3.1980000000000004,389.322,61.096000000000004
5.008693769121794,7.576708754597477,3.4022039890304807,0.506180887095735,0.9405081360182665,1.6935661940209656
7.916252942055897,14.366001561417574,4.194880010106886,1.678120128712106,1.0835424888492198,1.3768360430258566
6.768971685729536,7.784839456583282,3.9782218231954505,2.2287845357851297,1.5558116613243582,1.9936037143672087
2.087788627615649,108.82828535658848,12.174899488114812,13.953705161032586,0.22256351883206002,3.739988199556972
12.560864717303113,14.241434709491937,4.208594579439546,2.5834624269380413,3.326396224362052,1.0984277531208089
7.105348626745691,10.219382358777288,4.661970062927026,1.4748028495328889,6.003474295531226,2.876206493905279
11.645827171447962,10.497195198018785,1.770951793023976,1.9036171566855127,7.633146352929443,6.012108268454321
53.33208951250381,29.548410750166056,5.1810670086218265,3.9798899643854253,62.92538968958845,32.28568315796361
9.400415623294652,15.896949697942652,1.9550580864798277,3.0938183111219884,16.411062506899963,10.623879404893843
7.961667026502054,13.390324966080714,6.609852241417258,1.4387830847219283,8.028829726661375,4.099328833009862
5.23045568736223,12.95311252505785,8.197227883999693,0.765843066285247,1.7110826621715016,3.5988947748532962
15.515569168555263,26.89085021138701,35.96221567008335,9.618266188171713,5.720421165216543,3.516633701079508
2.920960747138052,19.26867001158062,23.065136201550352,12.156389914955826,3.978284743227186,6.337513238839834
2.5740597046981746,10.785943505777613,7.191019450770416,6.329881642293754,3.8944016807826047,5.459157069212768
7.94570273307558,8.436020989581937,2.347857993030245,2.6776076188194873,3.1803496727261273,10.201589641335433
18.52934008470718,17.59517426778587,3.4522173661649966,4.555322996369489,12.468895670948344,20.47300711769403
14.182355513807169,9.496325332653088,3.523491763631809,3.4878967723447682,6.002060138407207,13.25846859764607
3.8050732838164136,5.955014897058716,6.575491707945716,7.390159557762617,4.253576981497941,5.856369114388679
4.132010902043217,1.4918642070543886,3.48566880998015,4.124783971357142,1.2746850385573851,2.9271030161557583
10.830462668372556,9.372600567918347,8.472575034626946,11.256057410193362,3.4138514356269356,5.567592609819673
1.8141945489525215,8.981293736040165,7.499542677066694,13.301887019917778,1.4461895532595144,10.367236943032607
1.3070667787768575,3.965317877890427,2.6710899725930113,3.75505639325679,5.197555165001231,6.50854764084492
3.7305943745319885,7.168376228892524,0.9324668417828792,2.0081967793976188,3.2705856014112533,6.733261268280021
6.4857761786740475,11.086897656506583,4.091160073766726,6.220994545104735,6.641689246654059,14.28165316994966
6.010594421739674,23.830011149483138,3.591236224870702,11.388976564738009,12.708993748813453,18.091748959031204
5.382167467790572,10.561521336272019,3.5671689942169196,6.143480041013239,6.586812362693671,7.0657828048081175
5.107245093535062,5.901847691172271,0.803746451417247,3.777363234671289,1.4677275868625232,3.504771137001968
6.532465057650174,12.536281213741134,3.9915797541235047,4.61107933172648,4.177552539190865,6.364737927215795
3.165547790501676,29.94970398693092,7.662730082021472,6.322868232577945,6.502435062829326,7.270541494119927
4.235078924988506,3.7233765283491476,3.7172053188312137,4.539793927795314,6.641851324820446,3.493386024001501
2.4556846481509615,8.373283176900017,3.5965956111199286,6.77513380759938,1.229703526182815,1.3574401562864158
3.16712066703065,5.255513816748232,4.318799514239613,5.770871192814641,5.645842299738239,4.682536954993444
6.817254369180957,17.427993370240927,2.030567975447717,11.185999608212441,18.891777820355397,10.635570362148881
5.2522528443803305,3.5772012708012753,2.020253970326041,1.7047010743611395,9.548758887490525,2.497495441459118
3.064374029068358,4.026541046722905,1.724260872426139,4.674703350013198,4.613267547983272,1.2334538518430984
1.6147940108752608,3.204145728441345,0.7755054536164728,3.952691229524583,2.812297218190554,1.6720311415677538
1.7967875358182248,16.871698864615695,3.4171042351405316,9.22573828726719,6.845521661332391,3.1836448962773356
4.314528316448807,7.086221383506325,4.927222586043411,5.430525849194249,2.257157743209102,0.7599726157469329
5.222591865456215,5.032845656811693,4.590473466759466,5.110473693148702,7.036584294499655,0.43385285050725997
3.1879798569743736,1.186636153304883,3.629056041932397,3.8566167133670057,6.925567367830734,2.2532465978111187
13.485209115588972,7.337260498978028,7.272771192990437,8.964978097449242,22.40270982095613,9.262831090981045
6.18877808071129,3.5207373394576975,1.5529553728576049,2.6688140777270406,7.623683223914203,2.6896186252445067
1.054319268647675,5.3811933467444755,2.609731563612485,6.526912539955434,3.9876922170711855,1.3385215073637289
4.191183228379278,1.4610298824154169,2.6438632658051073,6.072429915118841,1.4584227339559803,1.8353657664677834
8.40795492428941,5.859744561479387,2.2073750082283414,13.340110291690339,7.494674914250341,3.0336839823895247
4.704252478768242,3.7704767301007664,3.604071339718082,3.899563463551522,4.873645689885261,0.5203256715576395
3.3098174441652506,3.1501089871147334,2.7480587827114737,2.578204007028928,8.784654578092926,1.0338177365605445
2.9758582996873724,3.1853184218932262,2.7457428368338457,2.720168115635421,5.878825364671368,1.6063691964732818
8.148414301672128,5.686193773247052,6.746212437077402,6.035137852627442,14.263978550340038,3.5737653152185755
9.286851220259091,3.9184394777814395,4.585963600979992,5.544933427457534,10.700196450560789,2.690918764868028
4.869973273915079,2.4941449273960608,2.519456771464979,5.971325718879584,4.333635234592199,1.8734571084736047
5.952482220539894,3.085338584271641,2.938421684574802,3.872836160841867,1.0338699914948912,1.4617164485953826
8.840752260942107,4.606966022578549,2.1198639510845747,7.510667812842391,5.793379033881204,3.41530541361043
4.557079786832398,5.953509743809594,0.4503639092731134,5.669896369123568,6.945160123587953,3.0558067782357043
2.808155748277029,3.168708032918452,1.1132522167033052,1.1768687354856437,6.7367978299792215,0.9770351998679019
2.4537592993322,2.027664819599199,2.3198548484573407,1.8669478803703772,1.890867892960878,1.2675874051810996
4.807738147913045,3.8860895203647106,4.04564494586212,2.8867470085246136,7.675265838818788,0.35499105886948235
9.19011367593973,5.18008836181537,3.6855737742162336,4.738705421246485,8.854117194850732,1.857633842187864
5.380525378093629,1.3513059826855,2.2030086192611593,3.6883897367117973,1.8206016829200828,0.8124630170204263
1.8816332174974904,3.0618658189554218,1.198395986485582,2.1637217501206414,2.9538230084408337,0.11869697407143359
2.0166560027908274,0.5130958442138127,1.4930900737971404,3.612328953495186,5.259762005194808,2.110808094034506
1.0685264145334261,3.6392477034547044,0.5356280261991931,4.057803078712481,5.813420500232081,3.1803054948643874
2.6283452323716254,2.1262961674245067,0.5369650937688386,1.014555242220097,3.5725740632232394,0.6728402418415774
1.2686956504166338,3.7871494281931986,1.5855569744625517,1.2386335677720883,0.9400520333110133,0.6740716713506677
1.7904674085611512,2.668716949597089,0.5960247193586733,1.6188639492103176,2.7694537674119615,0.6966067436620145
5.878787859576527,3.6664807097890515,1.4126738295712933,2.797712224656532,4.137754003531428,1.0081812726179027
2.1435064858067894,0.20030247676533205,1.1676905609358825,1.5714726751897077,1.139292492321741,0.45799186283620763
1.1521438106867525,1.7949383132920007,1.2277308419269655,0.6185426466979298,1.777218155265745,1.18095976596817
0.7892972225897646,1.467545521385314,1.207788798519422,2.4793408626632005,0.7566689427436095,0.79382299464625
1.2615591230723655,1.401640997615752,1.0517987228818662,1.8311968792071758,3.593046998227844,1.1956204225809075
3.5890094153379097,1.2023428847777469,0.6917628402586096,0.8373877397988357,2.500707190352804,0.4310521318820672
1.974474580051341,3.297386992505461,0.6513885546494015,1.308096649731746,0.8817450545853602,1.2834054995345943
1.0329058266577626,1.8780844581606746,0.5870304269376917,1.190375186253531,1.4640814606274346,1.024090282386583
4.063295065922284,3.3047431990361513,0.07144383796381498,1.7017155785734717,2.434412065534642,1.3163535247807487
0.9574095882583186,0.3238870792875082,0.8406486094846572,0.5563956106063275,1.107323219509241,0.9834807591123926
1.8943170408466203,1.755541422319299,1.3870490389101306,0.7738699806264319,1.8835329075850538,1.2762948702084926
1.131153236102775,0.05575698187341439,0.32683803315128174,0.492241161291237,0.36650367101805553,0.5256245220768969
1.078012433013014,1.2225671881033822,2.0242969551428502,2.089199018615332,2.079548709153091,0.9967494982933253
1.5166847168012474,1.186494616130196,0.858838964321343,0.9062737375378322,0.8527913111688126,0.4874505718581958
3.295018368533781,1.435978963146335,0.7719837203102811,0.1138280027478182,1.8066915237013723,1.37262983028969
1.1485970751010726,1.0064621713961523,0.7755824350232312,0.5032950428120512,1.0080486366494823,0.5283504909178595
2.6087387922911396,1.4358748049848509,0.7214400795805201,1.1848286913266401,1.1365979917896958,0.6331634522230852
1.0143655457114271,1.4655423799633083,0.5880908183179098,0.30524337711412647,1.7245897318170456,1.1645014040680448
1.4334463296104147,1.3550413762754283,1.080844606512774,0.2783569067736369,2.2574378281386878,1.025198699386602
2.1274239102874404,1.1081223905557975,0.7132472860987401,0.31936268505471666,0.6730142406722633,0.0766749229752241
1.73401790329843,1.0968800026220968,1.1786841245890056,1.3087782719496017,1.5588385925180996,0.7040384086168621
0.21280216089061826,0.7441449200904641,0.35867012436616086,0.925904581188518,1.307811786205325,0.5589985446833512
2.0849727188046896,1.4143582539758086,0.12583794913071136,0.38006459210788696,1.709351065719527,0.36044023388586044
1.9476141417431476,0.8046223551650512,0.7656357152704141,0.5296772047578194,1.9774842090615712,0.42258872176430873
2.841586611056034,1.3529597424143915,0.3094010090023556,0.2859372294580912,0.7845747617923786,0.4556716786657402
1.0289716683388859,1.155878337545459,0.34894670705804587,0.8261157403012208,1.1901508419025626,0.8385839045879258
1.736401780871004,1.3261172253080982,0.8092006974904311,0.5868121626502806,1.2546667998433603,0.16990343050971107
2.9021669702545982,0.8173016551923311,0.15652738458872387,0.3915643123889966,1.0983401940238047,0.9478932536805564
0.573655258577796,0.6362164172309225,0.5274053812416722,0.508903614517163,1.431082809243182,1.0933171461993034
1.6474375203278446,0.21965925021349586,0.5267239212256055,1.329831399482429,0.1934677686413673,0.698326801069489
0.8208216301758625,0.41844266074324865,0.4102406227238216,0.3534447648814908,1.0390774121453739,0.26299865312999665
1.5464670871068316,0.26750455529132827,0.6398323956349086,0.31208232670254843,1.5256545730761082,0.4352196007541069
1.7295988279134198,0.9538708180212238,0.36852486990702754,0.3822419633608172,1.1340112417779216,0.5679514465869494
