Gx,Gy,Gz,Ax,Ay,Az
2.5234030000000014,4.5582860000000025,4.164754000000002,1.593999999999999,499.37,74.962
3.937218162729921,8.389535039055865,1.6558598737111916,2.5350296400233425,3.505706728518037,3.653051935857685
3.0990606626831156,9.29684213420241,6.305179348915222,2.9545218889198273,4.0640737533701685,2.899682932048384
8.697192908214914,12.069080362927965,8.333450315809001,3.797214264632692,4.565767214585055,5.361320995815737
6.566711457047247,68.11360670437988,45.20771801003076,9.955242511740963,4.26066127753588,3.338127278955153
6.402819490742382,38.15453138946276,10.67287775415801,5.123560506793018,7.147450693292927,6.5595953327517345
7.371704477272538,7.300195050291271,5.420138572123921,3.1890180643840482,7.788983817951137,5.917319680607957
8.135471290773136,17.325184172504752,6.03733206184904,3.1653057962827726,10.980786011371844,8.79720004919992
4.567194372007741,6.1227066468595375,5.191132482279828,3.338846721212812,30.379011098132057,17.51845865834334
8.720366582812524,3.9401797188643624,6.908757462368476,0.9546025150418487,45.11156908651794,31.22166631928107
3.6273557545092205,14.752999673884288,9.140481261773607,4.954377789694318,12.544803893032714,7.486425542103388
0.9198996165191972,12.971784363221063,14.643848198775226,1.5300075454612807,6.02472989073255,3.38325344780549
4.41851037946649,17.82983845384663,12.799491090244581,4.652153729014408,4.666282739141787,4.148396697783973
4.7214275665437455,35.78392581059044,108.84379587212659,15.1070077977329,6.281025785739676,1.907015534677056
1.9470526828771084,4.598046905950658,16.435528185566437,0.8470802466955556,0.4539046568000193,2.9862935805664765
5.500433571675369,13.725932971203278,12.289126117375712,4.594646762762598,3.913227824940711,2.873770525575228
6.07086652372224,2.791760025909256,11.114940194438274,4.153865640625802,7.192057616999396,5.376368071681966
8.60660763771116,17.51942148874676,6.17078019658777,5.096428631858272,6.6971061929968325,11.383345681501776
4.080033692158026,9.852843688200862,4.160938347337747,3.440823590533748,3.702426041115078,6.448095786052278
5.617318585530527,10.44084889756093,4.7568212586316125,4.591306365328303,4.463462722511319,3.0135953205095523
3.128377032860807,11.251184587075207,1.1742444718848384,5.31736757228006,2.5350253642691376,2.469383955380939
4.421676517062227,17.895374054986235,8.99832102437214,5.050411407066807,4.103193441268557,1.7128546556457294
4.833288881824722,12.570533715792319,9.265133664503214,7.573139662773805,9.377965510304604,3.0891299974314337
9.662784085474744,3.867358390259608,3.6988385557458616,0.9049346832041711,9.461244729384601,4.978696198169047
11.362582069480887,1.9557314386288367,6.046827886790734,3.958832425041598,8.21066108020372,6.495925734221748
7.05043554154382,6.364148718031154,9.352393967520646,4.575912501796845,17.48844837246306,6.487951278845497
17.17103210154269,5.767428562904577,11.778374255082916,5.6887138144426155,46.595013186568416,21.5991865843396
10.020027641711275,3.3328157407763688,2.99702853639027,3.174485640677425,21.899092852111423,5.647843085682955
3.3364682228589415,8.791235538775336,3.3129233360633834,5.113489009765323,5.394683752542345,2.809029932795956
5.824657003848743,13.234498998190753,5.177233776553875,5.044908840328396,1.1882682846186188,4.084681234253363
6.24226415566162,29.396344452685966,2.613849911805612,18.25814018481953,2.5310803513582676,2.763690541683306
1.8354860071505874,14.301707146179789,2.3302459148350274,11.651284161989613,9.042619584878297,1.9656880966136832
3.550327773093566,5.288814145393825,5.72497803293579,3.4170140940763174,5.909251779939456,2.7902963817304958
5.993165321719578,8.166272754408302,5.967930991474034,3.52239613279788,12.748904413831902,8.055061483999495
8.194927017527364,7.354008492937047,3.544146642341516,6.631131061788161,22.88222484065649,12.604047152767556
13.860337875695718,1.7908451388060167,5.222436966907988,1.8718348424484048,22.08721000429207,13.368991567341856
4.586580519373613,4.666550310424507,2.4995506087351544,6.192522163345563,13.263376451461614,5.495245722835045
5.649661098032155,8.198154120991187,9.056793046321594,13.487329390424671,5.8379005622954745,1.1255816204085225
4.93994918759743,10.087235411525988,3.9425387185367957,12.797245307371083,3.1812359345548424,3.180538214075256
7.274846980808688,14.273273786737915,6.069100844855415,20.71771755890486,6.323313590894985,1.4026055285177061
2.1378066986201674,3.8677412113719134,0.3192733730462641,7.322323969946753,3.104080501346766,1.305812534133996
1.2202390880366227,4.338865624342685,3.0037285708245682,8.53536687248766,5.624732385862663,2.124365829545358
6.203313323206071,5.841449839762386,4.552910964385782,10.398695802436421,10.616080490700691,5.160725839940849
4.674437068787444,3.1054060858968424,3.035240834758129,4.123380122998383,14.803405010874636,11.646795102705257
1.6549198423667417,1.5859039966662656,0.5640065249932308,4.23670143106276,8.186920222576623,7.689908184835918
1.8836493255030684,1.1036194909013213,3.978862530528753,0.09519861323828781,0.729798888068321,4.2388578747931795
2.376924691572722,6.232235263551191,1.4720592042683522,6.29458932966087,1.7361854225035644,1.2359965843534513
1.3415941732529755,9.076504207506364,6.273531024747785,9.512807234969618,2.6464539379362004,1.0544931503469153
5.779555548869807,8.255133289862915,0.21441806030959856,6.570731845882971,3.118403859425621,1.9828103580072216
1.2639951379286751,5.494693591724707,4.929395332984769,1.0154955486147694,3.706676157875668,0.6569463932093033
4.747276299457031,2.1116984172923554,2.214201659045393,2.3547810809577454,2.4157766338104083,2.448220872410902
1.5295253064161007,2.299686559789358,3.7870795090214706,5.52876962829173,4.292835940725907,3.80212225946377
6.6517335928540575,0.7883048133536873,4.424891034423124,2.2791564348163726,4.990532072866515,5.8882687139289684
6.455003178207722,0.7644841014001904,3.603911372309501,1.4316821632971732,4.147834511637838,4.707609207139235
3.544203843323827,2.3281158845625023,2.190802854517517,1.6299633322549556,1.4206792447008934,3.211027601123783
5.546109572723917,1.569504021908544,4.774774678511893,3.3542488693621464,2.5901630319536686,1.5375313524225172
2.7095414695475846,4.922975173706522,2.9387488487603566,4.840937935632977,1.8766993264481149,1.1250008707694765
1.8464184179770078,2.4795949291722637,4.028490453084821,3.7286089405715153,2.091478642151234,1.2136291117178615
2.187814811088287,2.1227185276370286,0.9371652332178461,1.5598207637553279,2.7579762992479195,0.8951932924157237
2.3489779165030242,1.8646824935526314,0.9041384271466645,0.6063552109701559,5.402252116276084,1.9570079839669798
5.262306905473705,1.2098768614540467,1.8654751692091673,1.7293914448380128,4.175399033083918,2.5980137366044977
5.912332730472641,1.9196755146394564,0.6917628374093544,2.119030455497092,5.157529250903523,1.1842524762754167
8.063464522851977,2.38517256083073,0.9526656781917753,2.070247877542581,7.1363088975436595,1.5220555862683691
0.4089784869618624,2.570545651681737,1.7538928865411312,1.2972025215538077,2.0657427568151125,2.2045891632639445
4.830597198099854,1.2472068350112557,0.3117856959746018,2.3059260340914585,3.1018312685652076,1.7914644955435095
1.6083025385723257,0.5010450865176227,1.2165419736520644,1.566445933105089,1.5172773219631164,1.4266624441058575
6.9532845601007605,0.5082961273125371,0.593475175088612,2.869305343045821,2.1674337380838664,1.8851232799733333
1.718174896433393,0.9379807820537253,1.5028765406513003,1.849562824040808,1.4951937719881438,1.550286007751763
5.502502514963715,2.7674310727441744,1.372167012294877,0.2511873994899491,1.6543282042568515,3.340069944030283
2.7095560748854264,0.6575950026497339,1.2365400023281183,1.7579848853806257,1.9176776254180332,1.361978529659089
2.1502821713637945,1.5051810961886858,2.029925736837578,0.38469980494758277,3.1289426422005477,1.0543513219317906
2.32316423149213,3.0966194550325317,2.5152109797541855,1.1829770852831094,1.5739176367208603,1.5513926121080446
2.892798369401316,3.868310852490393,1.6923576634544202,1.0803551945352012,0.5560212437823107,1.2218229246017562
1.4045231052606701,1.0583465381284067,0.8445932120743296,0.9513712801703084,1.6856721201013378,1.1751683845690386
2.393389284313705,4.325609540321016,1.6798090838740594,0.5177621628681576,2.1703613200063927,0.6153328542030273
6.609358638053014,0.642885661018635,0.9258795474072753,2.4456596338243894,3.9735621780459343,0.35793973335991897
4.374844912140876,1.354716075447725,1.118734599916984,1.6737798385972973,4.0950784165938074,3.272931426312061
2.8622840571280808,2.3741225430929274,1.805834167202093,1.2679182873475252,1.8669938626017473,1.090375535846541
3.470266463054047,2.466897805014209,0.8665088385274307,0.7370867806121998,2.7068078754199827,2.236250081358008
5.1001547355015,0.8471688587919974,0.487973459487149,1.2725129916207334,1.3379686650323965,1.2183841705224425
1.8880297897641958,1.9280208767343239,1.6414831698095065,1.0225756513904856,1.2857570549461586,1.9509244499808616
3.804730378655607,2.2205558608801987,0.9068284003020467,1.6401648559078552,1.8001917036746904,0.6829735618190919
1.0798258939663399,2.070048011987426,1.900692099400957,0.5164024309820441,1.0898632292045092,0.657661468204969
0.7665683988902199,3.3183146062343423,1.0105040655404396,1.437918523145331,1.0162827229538198,1.0578392016270914
2.7743610664783187,1.9410780005763903,0.102148555574044,0.6552147616455738,3.5491767800808995,1.3543962652337824
2.0177419783697563,1.3572716487448253,0.8888845176419761,0.5577803739902021,2.4087536668452323,1.1253853419242905
1.6573966193087797,2.3805645330846867,1.6553765591920033,0.44249228859517864,1.291609439493067,1.4223009183684734
3.0661385951857496,1.0826749191030896,1.8882893626917947,0.6877439598927401,2.6032455361943434,2.2110172744401133
3.293443733577574,0.9527807231961748,1.2176066335021087,1.3979919418832676,1.5674106784406105,1.0424706137597448
1.3252075230556049,1.3040694916850006,0.8648454381152627,1.665337344376884,2.2345703076586085,2.239407389296328
1.8139001823485283,1.8368297942732024,0.6941355783721698,1.4789168798621817,0.5366835657568646,0.30985197955537547
1.9420159469525198,1.965956221366549,2.319796117641478,0.3895321584917542,0.6116874284432734,0.5669148135837486
1.2851448112379293,0.8324571279061527,1.5070376772088914,1.2417374127220955,2.5769164284827637,1.1182120790232728
1.4492859283589885,1.1973933029128985,0.7993434323981277,0.6535463300181892,0.7568664616065081,0.1986895159964317
1.3177776934869767,1.0068666251508425,0.9503410448558948,0.37235760219343983,2.117958951533532,1.395978652502924
4.0343660529918886,2.077347209080844,0.9688447429442308,0.5123139318485944,0.5305526365196143,1.4480032622004246
1.9186082002887956,1.0917161624605276,0.9290062331965576,0.13154936102575965,0.6873195299549959,1.1448367971215925
1.7478693117693445,1.226491102295252,0.06607277156305906,1.2361103001735074,0.38375615652702527,0.8011326225164612
1.4784569328781016,0.9276742232777043,1.1913299148393002,2.1617515648434065,2.444393056697735,1.6616376588955826
0.8350536608875553,0.8304187276586784,0.8927171352061329,0.7137020848045831,0.562974636918168,0.39015753318512925
1.2646012598022476,0.22670266080626825,1.1111679215866839,0.7639796572490881,0.7474749598471521,0.5462848917245384
2.344844870721479,1.1405920541687613,0.8632668610839793,1.2190680950443613,1.5165196285674079,1.769241441350501
1.6366593695634548,0.3458394279475427,1.0884882261591944,0.8506523452454641,1.8722369482409833,2.0504252984612705
1.9498573123468084,0.46172225203353107,0.5288656978851625,0.8617352845826612,1.5379956298421285,1.1381869779192442
3.268081220447185,1.780044316116208,0.9946348336145439,0.46189201733015345,0.8238274796329785,0.9755660822909613
1.4322794753247627,1.2973303431702143,0.8730801062901141,0.5066037235734704,1.1285316383020656,1.4671236602093478
1.5224504639367604,1.1043306135108986,0.9006367788658065,0.8558269985925429,0.9860804892193163,1.1012338765442535
1.5763675122217538,0.6729812837053473,1.3135595370087456,1.1221488254163343,1.905580753229198,0.7234937982631735
1.1076518809148885,0.843254923696518,0.5749819685633631,0.35627155739944233,1.0183128745827235,0.6269905926065789
2.7335323142608012,0.46092203917271973,1.5683550670143216,0.5953259423457931,1.1072789253909188,0.7680712305414831
1.5184593585109873,0.3713930315908318,1.151828304613401,1.130775780283166,0.7243489023821438,0.730266050764872
3.239455444241638,0.08114621534160438,0.5024069720734736,1.4395286083691754,2.578614123530118,2.6576028804526044
2.6413867078280306,0.26435329422314613,0.563303536286012,0.8506974684179169,0.9579523617097957,0.8882257531086611
0.49698214165575183,0.506127210370677,0.5650356652809867,0.6335569015744329,0.9106964871038178,1.2626445786888838
2.034480384858306,0.10269380747145306,0.38454508847049335,0.45752937412037414,0.8265190983740743,1.533578230504573
0.2566419108171384,1.017266434824031,0.7547332422262802,0.294519751732478,0.4688238488215889,0.8112413991047155
1.0723654274208037,0.9880620076190721,0.3807496230390273,0.2443536962550827,0.8233372529340204,0.8626689314670054
0.7240478686735587,1.268796468987214,0.5158337189615029,0.6007143680775447,1.240618808494881,0.3336890683693345
0.5524597375339415,0.533378423970856,0.40757498876972115,0.5556998284210182,1.0908131046085354,0.15849426978325779
0.2794879613073024,0.9349659254964492,0.6032091377758938,0.20137716193958027,0.5663442559860336,0.7705133714965846
