Gx,Gy,Gz,Ax,Ay,Az
9.812094999999998,5.368155000000007,6.971476000000001,19.859999999999992,606.1980000000001,29.849999999999994
4.486038595143343,12.372048566051788,6.527536414689671,1.7892001441347545,1.048321293639525,3.141685993832002
2.505974337089878,14.308494808348476,4.04851665611639,1.9094573180055407,0.9538897919652148,0.6998831568982632
5.0584827884375,5.670275745341032,9.875348289064744,1.660622184923714,2.1057765687800027,3.1163315649123287
2.9342997798828647,23.243763358319132,6.679886513635028,3.181972467517848,1.864499832813524,1.560418067211694
2.8593501635113627,37.575413807137245,8.307893336909888,2.356456339494909,3.0000953912029553,1.824188966880077
3.7325638404483916,159.09752224041017,67.98991922416107,7.761693857791677,2.2268280528488344,2.3651957626082325
11.494551144951911,41.11132720025826,24.25128200840926,3.1142474476496957,4.637657229691638,4.466736359564481
1.5886192220883133,26.41542011341373,3.227548408775316,4.863639243883408,1.8301924904038331,3.872527825345106
5.214428917040494,11.271912575576977,7.7574054090307,2.2359187979717308,3.3034621548256924,5.864311140623681
10.292436112855261,8.731657675894386,8.366990359157988,2.3612885994896837,7.305077297738661,9.887737297457157
7.810534902084796,19.204769362882825,6.196505093262166,1.8415358182434887,14.949040332829943,14.77500166152395
12.102194521988622,37.74686166645958,1.1470213358455628,9.52605081632992,80.09091119279401,42.55750242810919
12.702854636290652,37.70434619367208,5.892605649068061,7.033699658135987,36.4419803800523,19.416784317855345
8.074368137298999,18.816526132586315,6.127467567828509,3.4268342579383626,9.423665049743768,0.4151555391659379
8.053248903543361,13.27717382341717,4.222895439801985,1.9989140602296713,5.627652658727085,2.4119375312549134
0.29704231874981923,18.455047424817167,14.209101831410312,2.3623108134847923,2.200779892468283,0.8713445067211087
6.046163045637197,30.7824525663795,26.515547938577953,9.355133610028401,2.7500792886480485,3.4578404660417617
14.845321861447959,25.20207145405904,63.908201048830215,15.650125775076768,10.89348033849625,4.398847700310866
14.416817692198297,45.21164926225623,52.358665880577774,19.447458304498564,7.203957594378872,4.335359819139816
3.690177856138757,12.93830260609851,11.496719199743248,2.2572095848941194,1.5030631089044078,3.6189047308659594
3.5179401965639343,4.166139418983632,1.3240931375307516,1.3297644246676068,3.349481770397702,7.181030463188109
1.3669816948793256,14.720089627078023,4.810587663309471,5.97229177296723,2.820789392964405,7.67940020654575
6.037294242586995,8.415341138106392,5.357945797293653,5.254702715835127,5.296587020734941,10.887457578584154
3.997042344135942,6.4724413398823835,5.747541514516398,6.794096234340771,1.9643304677779312,16.880681084123683
17.11633420592265,13.075431276491178,2.848966797844894,8.591918255028066,17.95399265713735,25.105215946466124
1.5726361898521821,0.8087250061056079,3.497369044581906,2.228659322818874,3.411901887493187,2.8972940882552343
1.8453459621079937,9.676237759663762,6.7940725604486145,2.979736822353907,0.3429146424819413,2.1094983826663953
2.579485343627214,7.13557398805916,3.4020434547981564,4.006137595844341,1.2929938622624264,0.5353513373492436
2.5843850399719215,15.635044823905906,8.003579048438258,7.237773019334073,1.5554380808012647,1.980472279362596
1.6072947224359444,8.034098024286761,10.237663916719987,5.679913836210079,1.5851727025358497,2.313016471891292
7.920721633112992,35.798683499112116,16.961331291513815,26.93526897192284,5.8663848934112,5.467759837450866
3.330557637685605,16.61965812570811,2.7525401082639513,5.315149292213743,2.5255923178638513,4.412826999608506
4.613596604116692,10.016057621054571,4.9142990561717905,6.665332674018087,5.483686930275187,6.106340091360147
4.95338287103248,4.473627599642673,3.1659612402821464,4.450866967238991,3.3782235386245887,4.803741067368438
4.1933747480303385,7.79783834979647,3.5390934547139263,1.1282349086704935,6.779719386489011,4.669657417370353
6.285851134633067,9.826729135403024,0.7031441636935383,2.1858858151698053,1.1921882858396398,1.3344187753493102
11.787137837951985,4.50192521496241,1.7519573562329056,8.74652905989688,18.32183710738929,21.463429070606487
7.6526118378210715,4.815466126781458,5.598839433767009,4.3613223116444,1.963953608373621,4.891018572983941
3.232700724227474,4.470320598570716,1.4964583836700818,6.179397253306406,5.629312782127828,2.842603797851869
1.982425774819508,9.224173068325866,2.786084237222852,6.401783569712671,2.204323102901121,2.1277919675207335
2.526750913153976,4.789472032875539,4.838606165583471,1.0874069119273724,5.262039527025438,1.1998054637079214
3.0345034955282557,8.976007655728969,2.6812021769482386,2.45641088670547,3.4013268454608223,1.5189070913655587
1.8682029552206996,19.338673803965186,13.76246708518055,14.483210666117857,12.025219468204133,3.3384070871534828
1.9537604222174443,19.541324314611007,5.636158214023029,10.67679206937942,2.277480183304016,1.1918593604454903
2.9626267347298896,11.669444069165493,2.1157930710266557,2.524656930450042,5.974071385832644,3.3280389759125866
1.4506883906541537,4.67847219447986,2.4944866950247118,3.877836316329361,5.196102783167568,2.1903066044668935
4.070130292968289,9.175676538454296,7.0373110855218926,3.6188984646126743,3.8490812533575256,1.4009120292770956
2.516224341159847,1.5396463821845663,4.987404784716974,2.0670948526453685,10.282494802663214,3.84664420793702
5.1850416432044755,8.142496936374764,3.65956131947392,7.200135098104888,20.729074635441968,8.219115212521872
7.281056390883222,6.173295576766235,5.581186693755236,4.68636928220385,17.56749331235394,5.9258788548417565
1.6088785620728543,2.37527744308537,0.3097347469645501,3.3190086645877344,5.765545496580541,3.084911030781781
3.8349668186911847,5.708755812630753,2.980399191650123,2.0820824149953694,4.009478841313939,3.03890229706736
1.3849752181670667,3.465065619704155,3.127535601634235,1.9655747279199405,1.6028870953936947,1.4903696736263927
2.1601755673722463,5.568659177153291,4.420703504130572,2.1959419742705313,6.374120588135202,1.5106929946596992
4.342529849019832,6.225538107366634,3.9277312385847036,1.9556193066741323,11.991289660729645,3.6939896299508996
5.011829989938659,2.88800243841282,3.3043249650350126,6.623240331248959,3.30872116273428,4.630795166952241
2.1113489460203247,3.0741570458303342,4.968283508000485,0.7101387360462518,5.359265897437938,1.5086018191376522
1.8319648370992156,2.1693810236605957,3.7578933637108665,2.3518979078437856,2.6208960423431913,1.0469830855150197
6.375350726167864,1.925272405370343,5.244009074317259,2.2858890988323073,7.219573842537727,2.4230825645251284
5.541133642924365,2.9516021269236155,2.8520233648370166,3.188395667842394,13.812686046654001,4.144530127466797
1.5928850503493974,1.6102327455928778,3.0922005340165564,4.667099845869255,8.761221687856075,1.362314406920499
13.067399965124313,8.47890180051136,4.300538878049672,3.980516015429467,18.378952884725592,7.279461888721599
5.307706618138721,1.5530031311669448,1.213473192688739,2.4581088932796775,8.097616175705246,3.641143979568221
1.7890461996974587,0.34954466595497813,0.18124017934166234,1.149343556848868,3.482883922212977,1.5244925974014778
2.332280515792991,0.7598589106928392,4.429236249233255,1.8347287519246371,2.6502000985280683,1.8409337355487452
1.6789615812730148,2.359308880884953,2.7105634292544853,2.5875602397847213,3.974597755087443,0.6656258496959037
1.5003616943474247,1.202153709471655,0.9914244754745282,3.8478187005240345,3.5994599507355165,2.0667910708764388
3.385245787209434,7.309894995058318,7.324422138544263,4.8638964966325355,3.014235265205649,3.458252066463676
0.8631325614522599,4.6853388900248305,2.9295884216274883,3.556163737563898,2.230867403493547,0.7480132466984086
1.478704490218014,0.519020627684779,1.4674111978711375,0.365910013737417,3.811659226354962,0.3873944893452026
2.114919828821747,3.476622194645232,1.2998330640916167,1.1905080509186263,5.2025280790862345,2.293776380002625
3.8629483412938668,1.3753020573364787,0.7500753558035425,2.2849139768798965,6.968600885401097,3.8650975293582928
1.5897264435060559,4.946694490051293,2.3759295886050302,0.8979848941265247,0.7036670781237474,0.752689641990012
5.415229744354253,5.842808600472396,3.154554658948539,2.4547062552362258,13.416991373127923,4.994174003165143
5.166295523640543,1.4670885389033426,1.8021075471915484,0.46891334323701833,4.392214815511734,5.118728944863915
0.5899451470573999,0.4882361719642418,1.3682792640898636,1.7120294369506188,2.1989944827741112,0.7198712744676097
0.7120203759998096,3.657211646165588,1.7345738066439629,3.3519219383770986,2.028449687798598,0.2322724761599558
1.5942139063313128,1.8522417018061874,3.0050758839255387,1.939782433487555,2.682320678343227,2.064393466218108
1.549626111333865,1.7150835386927588,3.503869408294611,0.4130143743942421,2.630315270885298,1.7196382458804687
3.944246480635121,2.351200746167382,4.3100151797234325,5.22533429340818,2.464067866447503,1.3710273137547324
0.9313342638843858,3.1180115773054893,1.9647259512357877,3.422147058170938,1.9646850606139303,0.13598330472787562
0.6904839260709495,0.3188293608045191,0.376477485283526,0.6207136557842756,2.2265708860132167,0.33038324393407026
1.034819169792252,0.590873737294561,1.9621248114636853,1.8003679407384345,2.593574163090264,3.0689613563235816
1.7418298233150273,2.399157085023148,0.4286486294422524,0.6943684664362845,2.880006760412784,2.6182729694616933
1.833191754192541,3.917419642426522,1.48291403280198,0.44574131267098915,2.647653513161287,0.9990460215748224
2.8256317437752685,3.3789042047150417,0.988891340638561,1.7722743137669135,3.960353848263119,3.0019402965195296
4.108081051680545,2.7105839227358,1.6504394774064481,0.21714645399596907,2.6809606073571914,3.450909215204582
0.3284659552309536,0.28786056851928143,0.9634058716768953,1.2516476568403996,1.728747559911009,0.5617047088254553
0.2611092919048098,3.2505659434406966,2.164843054942832,0.9522674103174691,0.22829001742180452,0.8285423637685834
2.367646389197466,1.647756198276497,3.02327142342005,0.7792370085391465,2.4858692256095143,3.2064143812550965
0.978419594341809,2.8215305103389845,1.4878825767507637,1.4904834204026296,1.6330926803823753,2.676206510073987
1.6837986220039611,2.6814794846746617,1.3520947239468442,0.4137210557851059,2.3024072930816213,2.8661859900820645
1.7273892171907013,4.684572060354393,4.261730577253454,1.4754431388733538,2.2785280157552643,2.882773851385177
0.7791865029825328,1.48704224171637,1.0510992340861491,0.545837422484953,1.6848386415274896,1.6163866756217629
0.37487452345004535,1.3202422749165963,0.35787297595006723,0.5322084618465399,1.8108509673389213,0.8771927465540806
0.5930411616996429,3.266168129719293,1.245547302353423,0.22103692331020386,0.2784912000570792,0.7113851762147507
1.1152358538927958,1.6233166303224995,0.573581495780829,0.8630790045992212,0.561746496244302,2.3091445672714492
1.6168891836631794,1.4889556281460758,1.0393759085831449,1.021432705053416,1.96272787192661,3.009048697993578
