Gx,Gy,Gz,Ax,Ay,Az
14.281312999999999,2.291566999999998,9.195447000000001,18.980000000000004,535.7760000000002,74.81400000000002
4.0858440750343785,8.933317649806707,2.9345365502079166,4.026656701620895,0.1939432462891243,0.7299313127564951
1.8550638960101318,3.334761544206675,2.1949319063275046,1.1880272844406408,0.6422370749616846,0.8196214685300137
9.351335307747245,7.186457650603708,1.5046854361372488,3.591453104741279,0.32622943030725865,2.0173632954080447
3.2083266896640534,10.324051639225063,1.8633440253388929,3.9150943499416258,1.025466599170504,1.7650795306396705
7.673023237822061,76.93738155179216,53.7247952850258,15.920180669646143,2.6076951954532217,4.041645025871716
9.214841212643893,22.590542271363397,11.392455191849734,2.9979442155641105,1.605173589782108,3.2597323715038335
1.7014109529981747,13.044351546097399,8.40715281749121,2.6616354674780736,2.1252344504339145,2.180732010150726
2.2757148168733945,12.520070072331094,6.382745140109326,1.7189795574861748,5.259890759671991,4.880498576773385
8.916027534289153,4.604612671660639,0.8730498354977327,0.7802528032214417,9.734033061577437,7.8063235992400966
13.288762366358771,16.178137906095497,3.899472820938827,4.439513905647054,66.01009717284845,35.71306794808661
3.806710179814985,7.276902802253264,7.484142900950539,1.8737019004287927,19.92022869157099,13.2162698777536
1.7073434871817108,1.4952456896846302,9.343303020370138,1.085285759943255,2.4199217218953315,5.388124740620187
6.153779420224046,4.938915628241022,13.492930800856342,1.3523960339706924,4.753835836899378,4.730707764266047
3.8556309489710587,5.134791949230837,11.84703158814622,1.2962661753343268,2.387617071664415,2.279238820534812
2.2076971128880674,20.459734867709575,59.22738742780888,7.644110082888669,11.070054420489171,5.633236209203851
3.080304447931638,23.332344260521353,30.444774527776755,10.11265819652186,6.934413367160169,3.6914969439781773
5.5378203591417545,7.296587104845788,13.693525761937147,2.408826161143417,4.812019087023382,4.175054984678377
4.489715133176072,2.9781196304497763,9.157347579541094,1.7257835035183677,2.3555527551813573,6.424256602776771
3.725610771269365,3.0667047415330684,3.769304589266898,0.6552158968436329,5.870652321127334,5.883964913427841
10.151655521596773,16.268745397360018,8.881396167324983,7.966614779480841,13.221114204356134,18.447745336396043
6.140158423528256,12.362336364177526,4.298016458263926,5.592438097799321,7.7927053513742255,15.548469211987468
2.1202821161842884,3.6974601973825036,4.360982481498115,3.861142826003797,1.8570835409469388,5.55719424226302
3.961633670742743,4.7937603088813745,2.8560012306394307,1.9531924329907262,1.6453592719732812,4.536723996951185
1.3600907254685688,5.40268479097656,3.034759086667675,3.4067293390344147,0.7462087701238614,1.7301598700564425
4.514049038652396,14.014942338267385,9.215986879924612,13.534350350997917,1.1976443055079797,2.7166723113915214
6.039826651652291,21.99217345837797,12.19393138067631,27.526499495985718,1.2482871230239827,2.467563052055863
0.974270143533039,0.8598656870398168,8.632743884574863,3.8633262040842,3.2589191886330577,1.9310212831751008
3.9838990959789875,5.53887640543706,5.712213214968673,9.303883213670147,4.34729397158548,1.7268807210575396
3.6233470500417004,3.5843094450977238,4.13333685657232,1.3927409694734212,3.7617786650243827,2.2497700489336094
7.39353850754655,5.377900717285291,7.977275550344565,6.424965300578225,8.334082699357984,8.451370987285419
10.87942395577644,12.42699782648689,9.456665629147638,11.225639109130821,13.359680552606598,12.434411167333538
4.457172472941329,5.836822391574503,3.4182370522850225,3.9382767233995133,2.338713060313209,3.855076658834825
2.431929454012977,4.1771369577786075,5.735301665477542,5.547124471281922,3.1517581895446503,4.983095039357499
2.067264359304392,4.0268970383609854,1.033577772932664,5.036691634327255,0.07561064982894268,1.454824334961821
1.2696642624964283,0.7648670315862807,7.292627104809868,5.833850258493233,1.6628365633593516,2.0530654107799786
4.9083317100838375,2.609283149072212,16.6935274756602,13.891718716857412,1.7621625654376747,2.747844876084169
1.9136105620121393,5.9533754232810505,5.472832806616107,2.045115215703442,3.0854713083582475,1.4904247871724854
3.8814980775612,5.251951755204053,9.790831772929412,4.283332519299069,1.2994337152284519,0.7733597542663414
2.860450885411699,2.9899404312122857,2.874157310082351,3.738619946216927,2.8541925915416773,4.043962865314597
5.051036690788716,2.5924971139504853,2.739861798711316,3.8629253139790047,6.1422772535168475,4.563540956664025
12.09358288157106,3.7985653465127274,6.474141768649351,8.981552527551228,12.749306903933567,11.1096735670691
6.134361683191245,3.000704806230718,3.5731225274740757,1.5270291466568877,5.463000020201775,5.441444331607297
2.565837696136898,2.23058956080629,2.6266123739147065,4.954592219907708,6.694989241031335,4.7822286208719165
1.1740927871099587,4.243057991813401,2.8514334987560304,0.8185660453769922,0.6910202746253149,0.9807541922815068
1.8937231097475955,5.349310723006926,5.737438804755547,7.099505675741133,2.81187144305215,0.4091801384777823
5.128005818277468,12.50777153125533,15.255252141103199,8.067885571860193,4.01408128999636,1.3290220037879927
2.063426900223236,7.725474281056187,10.745226199639237,4.735032408724357,5.1630228875737085,2.292904490643792
1.8142252358863773,5.526073785290885,6.399728295861466,2.1055154242989453,3.7309210683677017,1.1322177321440305
3.4033606085011154,2.8514575459241547,3.1799626253510342,3.614524957492795,5.7350882236746275,3.737820895840066
3.4133740005351965,3.317018845864231,2.1456565471653635,2.0681715432070154,6.144388203338625,2.892151635780651
6.676964784635492,3.3558614507691855,2.4726649594905736,4.963021868244461,16.24452835516655,7.12005659826713
8.844784031764199,3.9787672985179667,3.58637470783453,2.009377243918637,13.508373269044473,7.08597502554746
1.9762996883620385,2.6738477774008014,0.4368862839104577,4.21635623731795,3.1532834401987744,2.9208621036247493
2.2231555643017167,6.241981215004788,3.339373264675372,3.4276780172691903,5.330410078931616,1.641951996369363
3.563291492663834,5.1233794678271725,4.179006187398496,4.521462349370982,2.7598557750995782,0.794534449319476
3.6948384667397716,8.395756631998589,7.452029825997359,2.1846494480397687,2.9338120548208186,1.7183250796722789
3.3056229993393456,9.462125988285313,7.50041522318542,2.7317119736337756,2.881675638680318,2.2453509146881205
1.614111307711166,2.7670017752140432,1.2651207402972906,2.1807394087713976,3.6470508975867197,1.1334912929510446
2.4507429363854327,5.879815244308536,4.2543525255795105,4.469491850607857,6.835437664254907,3.3695657100657908
3.0742404469226785,3.7313963430822037,1.0294984406281982,1.3375522925676737,4.724108613056027,1.3435247264187393
4.49693652229279,2.4920158509548,0.793366914570145,1.6190070664784668,9.8770220418788,3.259134508735357
7.4675857577333895,4.213423624058848,3.017585775488804,2.329718671038945,13.553606071634857,4.601309113641661
3.9263502398739,0.9197518631944256,1.6949421079421771,2.7705947238354134,4.44965691779513,0.7359511366998447
2.3501760521880852,1.5666374887101615,2.9793700933685416,1.229207234353769,6.9443083311994664,2.109732156068893
2.7978830757250694,2.0091244723685575,2.951602522292188,1.3958383329161252,3.7645765873875607,0.9927635131860942
1.2950836033654023,4.249178988473387,2.3009288558487677,0.4536513428142832,1.9213032031664474,0.5294266320432172
2.324418564567663,3.497922999630339,2.8458956752836,1.576644373172892,3.071234240856547,2.041647776039421
1.9677552820416024,3.4939452044470762,2.4393905873081905,2.151206158448763,4.634469371819894,1.390882253287988
1.0441062574819828,4.125268141202556,2.03467767128879,1.8214911375647402,1.3917434419817047,1.6237196846553648
1.8412570761771065,2.3549527129512944,1.1786021257526695,1.5480399865304737,2.166550202203495,0.656661831925927
1.008985763882298,3.814506395183021,1.0072872172580722,1.0085764694244217,4.361493926949144,1.2386480823935897
2.1784222246147316,5.171153023859596,2.310662378709781,1.888664813607354,5.762628372996602,2.4941391148803667
2.360838152566041,1.8328405259331375,0.5300399422245861,0.87246398290201,5.294125939510383,1.969934350991959
1.237746256946467,1.7864213191986609,0.32203111357461955,2.243475210391906,3.570789887983014,1.3102598370590588
0.6589406807366784,1.3598353187895467,0.6119195579519546,1.2625960503859575,3.1766070556698165,0.43263719132193457
1.9459782318125505,2.876142947084772,2.4020674488469074,1.1868165945126743,2.211836221395074,1.1748751108343942
2.713774210581407,2.261209669864925,1.0262061224728374,2.8929936603453656,2.0627221529012023,1.2589180293913358
1.9423438926445695,3.1969754832810375,2.4263137467787628,1.5450502387959437,3.467172303893553,0.463310232954859
0.6759766445983151,3.01345330438839,1.0857299950046009,1.6637390142065973,2.8504272659362955,0.17253789589954482
0.5961756115396756,0.7376731689859758,1.8458457003260356,0.5734351927828295,2.8892826139776617,0.5273069084818663
1.4763364711690614,3.4486066110307783,1.3354985420149397,0.9101076993915053,2.9349414183679463,1.1687483782707173
1.1015706726794459,2.7302381302264185,1.193140161835393,0.5800022230291654,2.3004602731712174,1.4842070695163343
2.193045010897821,3.1601249016018986,0.9492304049958581,1.2784450234870701,1.179684179386532,1.9087665623434156
0.7409642866026617,1.7162397443274253,1.0261465217806052,2.2036337169089175,1.0790202293140343,0.9034132489672622
0.7014338183647226,4.05836855752462,0.5590606687841473,1.5198083574318568,0.9925638729659573,0.4821687755472096
3.197570688775285,0.6374009973193197,1.3205868055855363,0.6837437345212338,1.3814810184199153,1.6423183909170715
0.6719411708806402,1.0012059604372756,0.8161543161204277,0.37545488581728936,0.9233622366117102,0.7068714469899741
3.2753512125828683,1.061313596239465,1.028821899514575,0.7218562370048719,1.5384658063576981,0.8232929572920923
0.5828188994773594,0.6539888589907317,0.46397099144558723,0.6173588907596625,2.05659232712757,0.6070617760986107
0.7101829999201642,1.740845193357781,0.4553395704653827,0.1385104488377377,2.2454452613389027,0.6796557726354042
1.5973924784576647,0.28555673267515147,0.8988323346335664,0.36118286215279827,1.4208889996857736,0.995657420804636
0.33727997163129897,0.5635340720594534,0.7376787210482874,0.5676773975034403,2.16439678815887,0.15442735585782802
0.20832907128775785,0.9197597421479766,0.8509487948291892,0.4237075847250089,2.0158218263572767,0.04346959686005375
0.8824040187067239,0.7175234749413465,0.897666666195254,0.8157887001693549,0.9964939021568255,1.4638148855198667
1.7344037047513428,1.8561602215469464,1.0872411410740768,0.9805053399796301,1.5062446843604043,0.7210640575849706
1.4113992702568054,0.857570508830058,0.2658759527897973,0.5510164821809131,0.9919288495429268,0.823577654491677
0.47298752400473953,1.3672198472602344,0.8144512420661475,0.3341001402654132,0.5873008400498051,0.5894416049947119
0.677802720097981,0.2088494057777178,0.06569043575645214,0.5563093448022399,1.0627304816971517,0.7598725916382808
