Gx,Gy,Gz,Ax,Ay,Az
14.886026999999999,0.6838539999999999,7.289762999999999,6.548000000000001,516.968,47.102000000000004
4.399760595249078,5.280619588792931,2.3828320974733965,1.127550653330864,0.5986236421891414,3.197353623465956
16.37721633827012,8.19375908723405,1.7305860853803645,1.3812589130499828,1.403583614198848,6.5783763048592965
11.153002256104731,17.547209590415456,6.392101713679656,2.508560199506467,0.7268345604736259,4.0523830551759215
9.120250338524606,4.723422685541202,6.3403283321972586,1.7079741479302706,0.36152290618622795,2.628053434406131
28.459015133915514,30.12633469731577,73.31104858622729,12.012092854326438,5.260599890943385,2.168202165209329
18.304445815499157,9.565903666918592,14.41150681401087,3.336559835233333,2.3082755813664915,1.6601789037757018
12.364192032966429,11.672020256002552,1.995260443100024,1.686881321644057,1.3133092229217354,2.6104823237599875
4.647112482316209,10.400456357129647,2.9600075178481906,0.646351627295777,3.190746558799079,1.995198293275718
16.711404154154632,14.109655418126378,7.307712226960275,4.119433553732097,11.763138899292834,6.75630875254692
53.71985895476619,6.583380456319402,1.4144141079283448,2.1093482868078453,65.25211962432391,38.61312520762099
9.827954405481762,0.4726459526479989,5.431477672465128,0.795512519376023,21.34523229866235,16.99803694493195
7.69201523552988,9.685553943270936,6.390311348920854,3.2418393581570517,3.2607859087775353,7.438583195251911
7.604141657804763,5.433025141664506,11.776306351321825,1.8938478551908509,3.175389719941416,5.382367381059598
4.274584387047307,28.42288002495429,25.025568809965133,10.334378248561348,3.318501430825019,1.8252225694705035
2.846278756262347,57.416216534914476,60.091715615281906,22.395225750165533,4.710222692618243,2.020808573774469
2.6630313140028026,51.556578234616744,37.98667938385526,21.569395123636177,5.015805681783014,6.685830444636055
2.807846307811924,15.243604504253852,8.277953591190194,5.997008412872496,2.741364791849324,6.051892863489199
8.503439863706971,9.141123089505497,7.626769763737338,3.1864118539115984,5.131322130212355,8.260757927088761
4.331634817169835,2.0324906586701847,5.2903561430796655,1.4667224058727966,7.4077749489668046,9.662606634821298
11.302440629953502,9.658801441938504,8.055718892257707,3.319887972536455,6.632177866242163,20.74355453573047
14.705124883835019,13.163876651106326,5.282764270257375,6.925840095563642,2.191689304443659,21.012463337296264
8.561434589756676,5.800783973374329,6.169052541496803,3.8642256158291928,2.698680444544246,6.888923506654623
7.400244060114215,13.79069986639766,10.171672821722584,10.402782230232765,2.8767763076436657,5.373401491129404
4.142420551216749,15.004251901888384,3.526668283839005,12.941541446469792,2.3563971862135036,2.0312518762010248
7.636786239208936,8.562950843203101,13.337057309669504,10.900636607015652,3.4275002219551585,0.9419309230624071
7.677051770346278,19.34517990690356,17.709195746533293,21.709507883475442,0.1779434333095423,4.990465437988019
1.497430129533172,8.976317065048129,6.143376585330665,7.400957838079853,2.3568214663414047,2.5979494921005517
2.8370218929346374,4.174851587536394,2.434191495226189,6.611613696167603,4.672081813513086,6.634845563370661
1.1742029258711075,1.5459917582703113,3.858290688216877,5.85208871021056,5.7291377773950245,3.1730614783820212
3.5859622911010214,3.6110128193552686,0.6194687974150085,2.2858504519347456,9.404854133158727,4.546967331259423
11.806362185827535,3.4116080133257394,7.447350427688129,3.5050242235390097,18.713630571538058,11.686787874816224
8.073673180827008,5.307650079354693,3.86880066430039,4.652347617924258,8.012569918280022,4.778269772760406
3.762647917555817,5.155450370890067,3.482111010470545,1.508247945232246,5.581593889617481,4.063720629026855
3.9797879677241403,4.888193924431545,5.170943253293851,3.8288434098503457,4.722947456164679,1.5790048038397189
2.9371255791984145,7.575629305839522,2.704132834544822,7.884215436630921,2.9253057749354276,0.6761053902458497
5.155066836922501,14.10821695118432,12.42920934408507,20.4229803131678,4.390241639851343,4.24437416792305
1.3285012070672475,2.628526824108053,9.701742804586225,0.8596504179741745,5.3869130243571695,1.258326828932351
5.1170821330081875,1.993696036481789,0.3447963845277055,2.4764997075775868,3.1868598141049578,2.429865606595023
5.286042042651444,1.1064924774464815,7.840359338431461,1.0605918379506167,7.572445518248848,4.329695029680317
8.85001345746473,2.1787822384641546,3.1296244800281467,4.103135525236308,11.319791829803634,3.989484771650682
13.628119277674289,4.525589846583723,4.622632947584759,4.312388836397097,22.75418554414082,8.202985564327395
9.729600009602695,2.374254669657662,5.181076827336021,3.779029906855927,13.602909055072374,4.270198914262216
4.0949887028701735,2.4562903890341756,1.739164088430645,1.121318159713808,2.824499679464809,3.3600891223873623
6.842849118880051,2.4996430332576884,2.3161956162388986,4.199486819953514,5.0847023259091575,2.990141458319413
0.898512744322189,8.400311494229372,4.493834485239895,2.2104384688633787,2.5089274629971836,1.155869828338299
8.460596846212756,6.273961251487617,6.4115399113489175,11.727498240933679,2.5287249792040556,3.5811849458191407
5.390686956359618,7.1604637053744575,5.0764644185422885,12.071764668020379,5.874368465301374,2.064279245787926
1.6207066723685548,0.5227717299338418,4.3017875946064486,0.9206432147231487,6.553242623172074,1.344567308748091
8.15281223877066,1.3138926959901065,4.59984272408597,3.154683642190225,6.472260701470296,2.6186346949958264
14.061307147416052,1.5484786362175536,1.9929923255093807,1.8172507324958842,11.344177463632102,5.357808411307022
12.228001157161927,2.253068359302958,2.383560269599653,2.8153931820075013,14.722664814568816,5.931643433428851
13.580931689269162,1.8337670803363149,1.8467344240353158,2.7965154634922906,11.758843982690138,5.798883809488837
2.63000718988016,5.628495086800869,1.2854629586778559,3.4778200398225354,4.4803279698970595,1.2561738013417199
6.143925967824724,3.6793286168322274,2.8836507253250736,5.312684095028171,2.5953819591930567,0.6749604009397128
3.273987836808912,5.63055403526306,7.200719825876475,3.6138207792240373,5.827412483753207,2.7812339296079993
6.209020950189672,6.145552786561019,5.463091930810695,8.130858826098045,2.7633166848406194,2.151196393027102
4.8205026475130675,5.748742210905006,8.60407870643847,10.482278325681541,9.601927259215836,1.7525562341934822
3.9638674840104393,4.016274804887644,0.919637146353957,4.067218157494508,3.3329342956722794,1.9235511119418152
10.522187520168087,0.591143800062601,3.0693857292448974,2.2620398183792356,7.400546231968849,1.6811880825578123
12.104756075716457,2.7487381142506124,4.833596177583129,2.4971978720364163,9.623538681084764,3.887013387741621
8.156098651005916,2.2960241578740237,2.7786331099015174,3.4086439601350786,9.358973523208736,3.093562025371173
17.503823526970187,1.6078554368747338,2.305600836715241,1.4284275190086289,15.640057681830898,4.079917499170574
8.595692155758778,2.286568997264625,3.2037163146527363,0.8450105390080087,7.43919850353714,1.899378640635739
3.5628014926712326,5.387817075908948,2.9874058122224874,6.079634370560679,2.80957845891697,2.547477887630089
9.951148733136629,7.031268332693893,3.7775887241659154,4.833148057497337,3.3227425629172522,4.413672146693389
6.20281882278613,2.0214117962420923,1.8910641378557629,5.714884103997618,3.3086723676077794,1.7013441912543203
6.607912993399357,8.263412011905196,3.0110276116710075,11.073380664017748,3.1010887665420657,3.0689433044647676
4.354179471205998,3.276034267155321,2.407606326347092,4.807537551520087,5.49067683587266,0.660785634728185
11.534869903812517,1.3742761409786146,2.937932599935772,1.1732805965793587,2.425878147654738,2.7987587328678907
7.991464637521167,2.968827560068718,2.896926457828996,3.2596630494789776,3.784078150502,3.417945167315441
6.491650666969376,2.2981922376817465,0.6330381126668911,2.3805348019238255,2.64005209010711,2.1119179698634714
13.392669088589328,3.0869282037716084,2.6425075251886216,1.5228403222949805,7.029587355019858,4.745421067085255
14.137301174828664,2.3888830363858635,1.1554672524830871,1.4334795160803668,6.572310271791335,3.104431517637287
5.198978166100889,3.992522193395745,2.7053794519488443,2.6154071693820047,0.7778456619848633,1.200374075564502
8.582021291946623,3.332891820961,1.2186431593538887,2.533457061778284,3.214590544372303,1.9392348616633632
3.4034953564543775,2.264084567941695,1.7014271608384355,3.381374252924957,2.1429249301281748,2.2699203986903935
1.7729159383792954,4.04138022289023,1.812607243324002,5.163075424067954,1.388991591637313,0.7126343822126664
4.398509930479258,3.5047937402706344,2.4925976495869206,4.469295447659431,3.7978768790497863,0.38787266527697484
7.229929411079631,3.0993281664577266,0.3676401095120759,3.2526305236229813,1.26391789123532,2.542407873245039
7.508581763393522,3.3250389816367223,2.0036912319481006,2.1131233030635332,1.052947581489944,1.9393535440824876
5.1508842783402224,1.332169838478801,0.42567069851286476,1.9182858462686012,0.9091618296996592,1.7644932461444367
4.53630239433862,2.3456219839676384,0.3532501185913792,0.8829397016406512,2.0856260846312784,2.4916595792020684
11.48623735500688,2.0238822432279915,1.146152157797378,0.45294543941074533,2.259357327237038,3.2539407570575514
5.177228849127398,1.6579312920988207,1.4108530104821204,2.2386108474637516,1.4490566628640016,1.1391233971469985
3.67704054239607,1.2735711464189774,1.168436673209396,1.5532076655844052,1.6701487632875096,0.9333652335861875
1.7308994206070931,1.5551206605098886,0.7366371712007115,1.5980197356917891,1.119815412777849,1.3371009956113293
1.7098190566023996,2.777105960423956,0.8311817655307588,2.9937330100199406,1.022635931987358,0.524403855865367
3.558585852337974,2.2319560377737244,1.6820937940722342,3.533777725959976,1.594296553343483,0.9471392260386635
1.9074530087587926,1.1395820820718106,0.9070573024161137,1.263576916009334,0.4141533157831753,1.6063324024133703
4.533348831885577,1.302894761618387,1.6225384146142832,0.2218516578017252,0.8355124662471263,0.5888881326194532
1.683897481430224,0.4666980302657575,1.5623162553760142,1.0407873050918903,1.1727849392652054,0.44654584668137964
2.108008752326841,0.6453978587393917,0.6406356575118177,1.650678097449534,0.6075875536587506,0.9482615254788103
5.993337748002812,0.1983225564537087,0.6127983743611978,0.4870466378581963,1.7369216599384045,1.1473935879633133
4.523251686516367,1.3147282641853217,0.6877219118702361,1.7033013014947644,0.6665618425570708,1.3049527817438724
1.4495500218016537,0.32480577392046484,0.8207395805268093,1.1304361076717249,0.5118188677951275,0.20406947845193718
1.3384381296531542,1.2502127927880717,0.7155167420295641,0.5596580536322477,0.3254856407012186,0.20372682886461796
1.890594033027359,0.25521294460489585,0.7771591961270813,1.592923025729869,1.3302205495954231,0.5970158500272006
2.778138987688145,2.1557030125433285,2.118120074399605,2.124721419687894,0.6120967415344915,1.0036054288685992
1.2552430092903095,1.416354967118669,0.9493032237400111,1.7993602700255926,0.4291659974491295,0.9017778714773456
2.065438954097454,0.7819301205231719,0.20435699471197907,0.5649018947985237,0.5391471175392132,0.7834833225382204
0.8429779296550186,0.6601684405273811,0.8478010356279002,0.395407411779749,1.1198754504230304,0.7470548729290221
2.4546335431778292,0.3662658566939064,0.9631952266325027,0.4396234872553867,0.7229860725334895,0.6707521962225141
0.4215937597647492,0.9314002797438432,0.2939554484694456,0.9144793630821382,1.3370610253972468,1.1360099715595018
4.989952443699166,1.2540668396817074,1.120728987470915,0.15539633450823856,1.15319884441697,1.014944470688553
1.3992817820402168,1.7933372802202774,0.4090007654982696,1.114088194375943,0.7414643347437461,0.3689250120369331
2.085517730637379,0.4733785957349806,0.529516277306852,0.5699425993284273,0.4606906778357576,0.3943796066500929
0.8730543729100745,1.359947607439638,0.7251164600735381,0.31370054036540507,1.603052064137633,0.9273597341252606
2.6517854096812616,0.2677596808575596,0.6073508081664142,0.8898297978877285,1.1680170222000155,0.8554636464843752
1.5418308996280798,1.4600153033472907,0.49866022561180035,0.6284307446089631,0.4229110638295987,1.0559774601961915
1.969508520748162,1.1353393046915803,0.43557520151369133,0.515209965307203,0.9000442204954815,0.6293881921141948
1.3252594225340397,1.0957457428056425,0.548912633676375,0.5461700066659025,0.5800001476658604,0.5309921393772603
2.747720589505295,0.7116187337569977,0.5245486536369097,0.7063187137137682,0.991104076830851,1.4453761091490578
1.2250058844013776,0.9485421666174989,0.9199188754157518,0.6335427858772585,0.48572621790792575,0.6789160241118913
3.3286973536897007,0.972306227277523,1.0190810171907345,0.9283726395095301,0.5258419303124906,0.9009263944173052
2.704753256143039,0.5490390923781375,0.10182733147636581,0.4562444261199863,0.25209289229676723,0.40897521769783646
2.1922505852222702,1.8240725385800076,0.24742965898343766,0.22427446569049211,0.44099236997647484,0.10802630734721141
0.9297046438955308,1.0516088494746418,0.8994857585688906,0.4270270986289474,0.8707756422130007,1.2993515263611466
3.0170485770718205,0.5637312946181935,0.7670053547216283,0.48121292116572456,1.0088372858879266,0.3916808286484689
1.7082910226415091,0.575972868917661,0.27755978686353144,0.5635191860332124,0.09634190533577207,1.2367075804377614
