Gx,Gy,Gz,Ax,Ay,Az
12.545605,5.737665999999999,2.054967,18.686,527.3019999999998,39.785999999999994
2.366744988869822,10.98396808767284,5.061952678915887,2.145795240373551,0.5450792917954806,2.542352229689454
7.732711504358269,4.246302568982369,7.560655551113662,4.644672043837353,1.0700587150196432,4.210096432215146
9.599758630661881,17.548644269553005,2.0338835450643185,2.2852634324821812,1.3505457957009013,2.4052492223330635
23.604890109215653,13.160639621753582,7.005685311954752,1.704714237720206,2.3521126999884,6.897363237966154
23.91465291022972,143.59496908039588,15.653031928770174,15.355550199392816,7.144797310439774,3.2081952692836
11.16883147368733,51.813216501330224,4.880320373127065,7.156706561216628,0.4136839084410498,4.074613818585008
10.745601262891002,28.21459176561082,10.410806324147538,3.6751687110910396,2.4719861648473573,1.3946709518679155
10.761301400466717,18.81128419569741,5.623504934661705,4.6118290002686475,1.7616328337624072,4.2141381399114355
10.434784861630451,19.766753765611856,5.823414957424016,1.7696589191834633,8.964035603524755,11.282737748243845
43.35883097274378,27.743518346462842,22.52870584070833,6.874848257440289,63.618383236531855,38.865234560132095
15.493122533756743,18.927779247540524,11.092152970094338,3.968946940832126,27.53024603590044,17.5826364766488
3.1380367895449788,7.984722392989829,8.140238143413136,1.0220541867765176,3.758430490282744,2.3183223002220474
5.481038375495771,19.683059627386793,14.281524481494875,6.563338352369243,4.0982339884000325,7.794984301659609
11.87268410562035,21.614323742449677,20.18083771043853,6.419425799760672,9.025848603212857,6.399653622374965
10.287653726861537,66.19078806525704,51.81189163339722,16.6158141744284,11.332121467949161,6.208996600442169
4.604628658217249,66.31328218685485,51.215025193879875,16.775926875574644,1.066766043539194,1.5275249704063356
2.775776361304632,26.176502932264906,5.197962684876989,6.78699595558603,5.473293075331217,2.8984669199941684
13.573640783642599,23.45145035875971,2.813540728396903,3.7844717305389866,4.043263930683818,7.2329663272651015
9.653081857628997,30.247288201747022,10.917964552639221,8.088114242281126,1.2397192089097593,13.245119129963765
11.374725406402646,14.914406811975923,2.4246140344810176,3.8389781759222137,1.86806522645051,18.334804278630052
19.8811552421449,12.392390744510905,12.941376904051506,4.433303118271055,7.641978016726293,24.35463099446789
5.786760698063885,1.1409445162603955,3.3546675912574577,1.6784734325226125,2.1229552329546597,6.830892793257735
5.635961602446813,32.35677464702232,6.479901438879437,12.469530919221635,8.208295556190423,6.5164718922837315
4.919836832438177,20.4585502272817,4.48054934540361,7.267888277864439,6.421175398090467,1.0826966847299424
4.826459308618206,19.158125160684023,5.331200367064633,6.551440705921074,2.1423070045974257,1.6773685754713519
5.377808337393411,44.39929022024538,3.645808489602314,26.284026173116615,8.041561887255932,1.6039461561272643
7.102857802430136,23.244761018692166,4.355355800878405,17.39953255472555,8.507661123370998,4.681507306056506
3.4935293894376516,8.132785568273427,7.60166782657258,1.185991603265125,5.394644577749565,3.2188098313498057
0.6251887402039658,9.766857942563663,2.4319457879714843,8.314524784701074,7.268427757252386,6.411113532462073
3.6011201701134845,4.490361907798727,3.6287854924263594,1.9412740150364083,1.758272323263704,4.135513468293867
7.5580153384868245,5.4260958062735885,3.6543642469352102,0.5166969825535727,17.1520830056728,13.036530238953352
6.7982078696721695,17.701844911191387,1.0342705079608692,15.360468814825468,4.4358245396083404,7.082574782739742
7.113136815565315,9.03484501106962,3.9825811652736403,7.190620576703407,7.331718151885072,4.676486181958969
6.5830816734928845,8.753883481878791,2.5063630754408757,9.038588994665623,6.59242270928614,2.670919485117305
4.256636941659094,3.435266121973013,2.5512435325141856,7.630771990374072,1.3710786893295064,0.387534039504926
5.4373993825759825,6.332220176678678,3.6316057464955023,15.104212391920134,7.420528203890892,1.0991371932207736
1.724068829282476,15.012540037083006,6.930316718537776,19.027009467757125,9.345776854919578,2.4455835633588277
2.2929389492003236,7.292908741793604,2.465495541434717,7.31052018805621,2.34558554327582,1.1488527770299097
3.643149286138783,8.990827009852135,6.323255832178982,7.843419951705115,2.7087425582591393,1.925389239371218
3.412797364877631,4.5768409369301,3.7700884368638072,3.194485679105035,6.861913925422754,3.0768424244020887
7.297569685729203,4.547046300930495,4.549598050292938,5.108918949354411,11.399658591118449,6.1951815303515145
10.725151978396068,9.945557276941363,2.4742297191909572,7.007283282304293,12.614170386420021,8.321306302123807
11.554251736505435,4.256921632238747,2.0978864921782137,3.2494941805039215,7.898625319428619,5.426583709933745
3.0834915785703827,6.622665871845563,1.7433747543304154,1.127454254660298,4.735255781065709,3.148178387281211
1.938096060233473,6.048008239524341,3.1115892196264023,9.005728564848104,4.844684579211147,1.1267029556678854
2.516582530924474,4.369444406293715,4.879696596967115,6.35804739139517,12.046486669580814,2.405852210090329
6.339678664911175,7.483298796301439,8.025690270094028,12.517827828126885,10.323978476633782,3.946777481044654
3.8503494777738694,2.7231284883029003,6.361231817532708,4.545582232304482,6.984894230418684,0.8107000787181389
5.30480766947983,3.4359872434252132,5.55470071630681,2.6216922004448193,10.607267603973465,0.608998517987673
0.573719074887495,3.476551683024321,1.2467582536012374,0.6898044329829716,10.336862395573917,3.024783771146556
3.652364714322914,3.8174271212632815,4.8474378861285174,2.954421572055499,8.438420299557599,0.31039240759664116
8.774942643966668,3.3920871153455545,3.3794434025922526,2.5923653802094155,21.818042756001763,7.864891657462789
8.414763842389787,5.469583374814069,7.958648053129787,1.652749117631705,15.497050073247241,6.178950512373891
3.3303371435927533,1.2297434334456463,4.528826054222903,1.614485545074966,6.137377491657127,0.8198178744245287
3.8879256729979996,3.3044032476293768,2.4550303694204945,4.516765940650838,6.438688424315582,1.686558167476497
1.656219613796047,3.3872167908449624,2.1466441888365395,2.7135420733613214,8.863472659501786,4.3511773574909505
3.6431339520308414,1.6909469223836218,5.391546752610651,7.6012000725859945,7.97445436622045,1.87348196810704
7.487370409632351,3.185954883674429,10.510939113585254,7.663025500839219,14.659776955421933,2.5488233967628897
1.4713703890615304,2.0369522848907478,3.028692901975067,2.8567222470425384,8.255559536234724,3.259785638660968
4.2926276207332075,2.5511036023283857,0.37536925834318097,1.612325786931558,8.951099291775668,1.79384683264945
2.669510223478031,2.5112288237411033,4.56319806031252,0.8686617879772054,5.753313922860235,2.962786355968984
2.0986064679465186,2.5052184729718654,2.735243974424539,0.3047842129808068,10.262501527789768,5.7016237261566625
1.3090824208656153,4.241734908515346,8.777557116938434,0.6820784936688578,15.528031309808183,9.487517972325897
3.3148932066775822,1.2547171945927031,2.9662882781229727,2.4607494388630218,7.376986530975047,3.755018905720615
2.493846432731059,2.1137436165681334,0.21082331117465467,1.6632944534988114,3.078765008983421,2.6112005075691935
2.2474353828171125,1.6878455555170762,2.5650057447402066,1.8465736928836334,2.8006277319601462,2.8907023834689287
0.4113667906626253,4.998726253935696,2.2920136319445525,1.8722502050932905,3.5771346109594466,1.2650330383409565
1.2622747226656286,5.529317773590673,7.180310210244958,3.088595115688057,11.22332352274416,5.673496548219519
2.0198991886347044,3.969243137815664,1.942316061003359,2.5955217066698886,1.503985078653417,1.9487315868383293
3.5541307080260496,3.263341847038732,2.5757614309145156,0.3074233233028623,2.6763475230620295,3.3662152629581374
2.430132181768153,0.9064670606365681,1.622889535963368,0.4158874830826894,3.617968608750333,2.441555794763921
4.4451715012023305,3.1866058903574475,1.6094884931345794,1.557870287095428,1.3645672547221932,0.646633243919317
3.81253206522241,4.9110290001219585,6.277865053669532,1.6194714154225422,8.337262041701536,6.760256748426583
5.01738930499722,3.389656029056774,3.8836527494178634,0.48373933310977646,4.2879992040733015,6.185520878732315
4.287281388559763,2.6792854812747247,0.9469064918425095,2.1405173018531354,1.1493551979205052,2.343003572926033
4.6293562854266606,1.185571608902413,2.228819183778104,0.32638845440112063,1.2487035328714386,3.1756478833954875
1.7811547280271431,2.95702106187419,1.9034676409907858,0.33644150481451524,0.6911936257086426,1.3948757628522341
2.2574821032160624,1.301949757930038,4.231275141172544,0.7967430860171084,1.7163405501590454,3.2829580100634432
2.6377891119629253,2.8778686349822693,2.8285063675404216,0.4242577174160835,1.8568383614606228,0.7525075684129143
4.2006060968864976,2.528733572222396,0.7648963166517859,0.9809218876948654,0.6470052192204813,2.7550151369683027
0.9536943421887181,3.343007808381082,1.0099994621920723,0.9837537536622455,1.819390357231988,1.74603803368942
2.4752915913342317,1.6697103476727906,2.3060704129890355,1.4094724651878372,1.4801611205742384,2.5968557101702223
2.903591095781061,3.0087406861671995,4.0144449620553795,1.8008020044750133,2.3422670415844493,3.628769794850642
3.583225664228256,5.127895716843327,5.1788338940977585,0.9540106995169737,2.0762114665074836,5.749035726499749
3.5593026802880305,1.4114271697819267,0.892833479142718,1.0595836537453636,0.7553536972769902,2.2204961851301848
4.4060302645800355,3.417919318293677,1.4159523435850214,0.515421871214196,1.043685698858248,2.3422978455173546
2.1626385947883398,4.9941574685302434,0.6487759348517621,0.7298301060191092,2.241686235255256,1.3948781241429686
2.015139686563325,0.5860180646518798,1.8676688618437423,0.42051915577348453,0.8260349800746062,1.9134309972586454
2.0068107083197386,1.876785732495918,1.9345893800212284,0.27145630485043515,1.5353173871765737,1.6191070193412476
2.9377663867219055,1.8277876789680807,1.304892316798933,0.3099502453745067,0.7761594738775528,2.7439718764744043
1.1573274305684758,1.6169269527222194,1.5298180356327866,0.816557423307966,0.9901921099120478,0.6487783914440641
1.514422963279619,2.914846824772297,0.9489037867678775,1.026434947941296,1.4204784691058479,2.6279270661162872
1.3108222474231148,2.1563034759730613,1.0263150270712413,1.0773655457295188,1.068260199508222,1.0034213405379018
2.189307219401306,3.8111244643827336,3.7725871686576293,1.095483301298507,1.5862411140206039,4.582609438219902
1.664748525121751,1.8114338090116104,0.9996901534054657,0.6162101232189052,0.9066043184970061,2.6980254606414715
3.0719707591464958,0.9609959976753137,0.7725817551089108,0.26723865688653364,1.0966054332816468,1.682637097977219
2.358872169640287,2.4486383922361914,0.9721640298583009,1.3400602608653893,1.5187169171194024,1.03723375294424
0.6840878976001094,2.411646842947328,1.1720532364520238,0.4604367181200451,0.5512314719807215,1.0107907025106002
