Gx,Gy,Gz,Ax,Ay,Az
5.126798000000001,25.632465000000003,0.3513680000000018,18.652,797.3540000000002,39.876000000000005
3.595507563628275,30.2653363094967,1.7022022692996142,4.365849370887123,0.18911695792409783,3.0542039815774324
3.9288506004203674,21.07535968115866,3.6773240741279407,2.095979788706765,0.47371839195373455,4.4973430943749415
12.440569736750554,31.269106513561677,2.3749433735427687,1.072980654532467,0.6730650891054896,5.783634338457163
22.79615302997317,15.757930399701436,12.005140568404798,4.45833166326229,0.1699168595998119,8.33718416745482
13.793000813101036,28.739005372325384,7.547952105178904,2.0993664701781185,1.714449198396044,3.113365139075117
0.3029871933293304,33.22757717629084,18.20892847883027,7.20355541649366,0.6598914781056102,4.691413701668226
23.86497522753917,57.077774449106066,32.10225159025241,14.329263700664143,2.4939297276295846,3.6005275330471176
3.0663972674534734,35.815469827595926,5.398667015808712,2.802328742192729,2.155471256719172,3.4303947975181868
4.755601657130419,52.19717004850606,13.242037350142908,5.830613669093284,1.7530841999159785,2.4022601916881445
5.821412892083701,26.909910978143042,2.257339821533965,3.8916037351515613,5.077508258713214,7.118227965275092
8.36955881478717,32.21781463357152,13.774519875378363,1.5843762874017855,2.816864093523745,5.705367696415681
19.522173511628452,27.623407593062996,9.149153967697544,2.83747392163216,10.119659611316116,13.527646933877804
30.915640409097502,23.06706097038896,25.609988628914476,5.15883177049897,39.8827189958928,46.47878283570229
16.765061965454592,4.604454770012431,10.635986123821224,4.327227175496242,18.63784101376269,17.077883877325434
8.497852378535942,14.368609031480984,15.840379487540984,0.9898991351887799,8.07539121022793,5.52943435975678
17.16283975614854,11.120271368031624,14.070380121188796,1.0232332050716728,9.718058374947395,7.895879189911468
19.160886496059216,29.994385691211143,7.75710913916481,1.974992112057548,4.821323442204768,1.408542949083358
5.221331174910768,3.3145903358015802,18.706002952303685,2.258326510712474,2.829299258915883,1.8908747487629354
7.080517646701842,7.833682633802894,17.810819965318483,3.450609445140884,2.3797381903885415,3.3933746819629333
20.231228979362772,44.62199715884988,79.58965100950186,6.004351941313437,5.878325993765797,6.37568453926291
7.562250689454769,31.888057239828566,26.847433167276375,5.434704905509414,5.466078678841481,6.2862799688715745
7.3376194812311635,10.67433164982958,25.421132062285427,2.188024375026314,1.8754508073768923,5.515247869423634
6.658622104198148,18.644482672993014,20.012051369015552,3.620591842515583,1.6184997658488294,9.63665698801075
15.079818747986177,25.854575155308044,8.308587451121792,3.98582907126519,8.039853751291282,9.207898234354769
23.40301971923835,23.44304845330923,4.035555004955997,1.7424986370869104,11.724176827627328,12.91541217043925
27.919456303989705,5.537649990200039,7.08179436485042,6.238213742443848,16.110698632851292,19.26353810739937
37.80730972254417,27.276987189023178,18.894853921891404,7.638406897133076,20.6717088845325,19.61272534979148
2.4951876046798747,6.892814809526927,5.972674190512544,4.419519173672993,1.3751634684183076,4.803358346007623
13.576058657694665,6.2924574155125566,3.864665119066461,1.2818409332116445,2.6012194958835986,8.372097700251237
17.038377291707082,5.651915304092036,4.448045411145851,4.723454253362898,7.6492515802946315,3.02825409466743
4.495695477102503,9.789520975824988,7.528907641847505,3.0309961921401367,5.1017756151107445,0.7397212918415444
13.257211202346127,20.043896208310297,10.14179590874888,5.807064226314545,4.459558066895533,6.181620677492615
18.55146245684456,44.52236185053581,12.092044043229802,14.037294373262483,9.084478683075133,2.302573424462041
22.05717520050385,21.465282330467602,10.471513458293595,9.37685738113877,6.043368315132681,11.07206321625102
15.415741649047103,11.120462559051191,1.8025454216306263,4.563021752112793,3.7058746418064654,5.389644485165673
13.21533380290996,28.559699933975654,12.311738880762972,13.533802013268042,6.526865031979212,9.122085901340627
7.344942912413466,6.092486143271461,6.872710312106156,2.3580012059707696,7.68137704311917,7.425263316012837
8.665944485787474,13.274727621122452,1.5147518707146312,5.573309320198217,8.722444500791408,5.76457366412173
7.916835212091077,18.6068895144235,3.370122826499667,6.248276305020954,4.043516263424003,7.9202981156764825
3.976226585275679,21.745120603632174,5.755863206044284,7.762836769672124,13.94193001544874,12.43129523192232
4.31513256963095,17.564232722533237,1.9191353262493485,9.360435807376424,6.484787524252224,6.318625616552101
5.319826918986637,3.922309799218475,3.4745297788629235,1.6187343963294714,5.121407217575483,4.23109926683062
15.111658028322456,14.16905791269892,4.22432887382,4.829147744062716,7.255077108510493,7.175632037297679
2.7262535643936934,32.16184161951926,7.24067035872667,22.200769211229296,4.532774708928655,3.118195629925443
9.334848019871803,22.062924177096633,3.390883712375595,13.747064536140892,5.328087223226348,3.681400897900843
16.920684433368272,10.219716116085289,4.8172290549577275,3.660781450547183,9.519779000978197,5.094938613662636
18.079775560690578,17.56535764877243,4.594339277508625,9.784616446100324,8.375561231554654,9.065585930423952
7.738006200083242,18.234201656767357,4.797138114946999,11.590020252949016,5.103751593231302,2.57108604521684
5.9659856089259415,21.451960959068558,6.952180754744082,16.423456488645844,7.801971175624703,6.201443591538264
1.186287387840249,7.411718213427023,7.270996914827002,5.4752273415489,8.417729999803864,6.3920386308104495
13.47266046812726,8.970164613612381,1.7776677841702695,7.037287870820659,12.927268496033015,7.070163030463127
10.506001670738694,11.798471411176317,2.472568431957567,3.7925416943658137,5.750681262643658,4.612218784275496
12.433666819495425,3.7191136255891317,2.618635648552239,1.100823609844592,13.642158527689986,6.4795254551000525
19.57224545122344,23.809264225457802,6.6746309175541345,17.957235159307942,13.61809847193547,6.315661665200092
12.808750757501704,16.362042825374104,3.1324602011067557,12.172518485532867,7.772884572415624,1.52602493790968
9.012812970686666,15.411890901997566,3.386469550427898,16.46847232164622,9.989989523656137,6.007015499013238
13.428181400379202,33.035129776956424,5.057774223125945,32.38851835890379,9.448764078378565,4.430615170707422
7.713326554531255,0.9987352210112155,2.7723421335089773,0.7404807160874928,5.086305039634256,1.380424836140915
10.695011652917186,17.32362783662047,5.532365601060825,14.38929446843255,4.5209853043519,2.7525902159052182
20.843834964049872,3.9093600627390916,2.660207491354537,7.289457961213436,10.855087463968623,7.343264678058608
5.112546841722778,23.133719586789017,1.5477154842487955,20.750809915841,2.11211525028278,0.8325405720599323
13.592874514162038,19.236138443944512,6.122336575103443,19.423811904641894,11.190712869095865,4.878623749734678
1.839272916054129,13.709072812623758,3.0184518856288056,5.960070326812514,4.227361231988407,2.4021012768492094
20.36242161340574,6.9522103849162535,2.947273412944878,11.377154152002898,18.156651323721114,7.240635915439606
2.115747491753482,4.859965498346982,2.9373070586094463,8.184170249045437,3.948743478944867,1.334399935353276
11.722538813216344,1.9042339296732178,1.2109019924804902,4.817083784718104,12.35476006373646,4.772095868697278
9.022040927407334,10.734151336858368,8.200290725253808,20.008561353961134,9.85195281548859,4.667550283105558
9.884544138286918,7.310202750720533,6.103855885324472,11.950352416828775,11.494131871048848,4.281715462543415
2.7048276318661575,5.201747891854722,4.951469164990633,9.527705340943596,16.12765535484074,5.839698504847709
12.634594495314946,14.533246692126067,1.8947360229617052,15.193803191172707,11.126442156251658,6.825785183369442
10.174205278254682,6.152306644349865,4.6233604847798695,14.55173961594433,7.5061425924062855,2.0858178491865584
7.549546691301975,10.31785496119284,3.2711093402865723,10.817147299401007,1.5837548652206639,2.7685499994603533
3.515552318018233,4.264780673689141,5.792727528928617,5.199765789278119,7.7096564497285005,3.4290760971824614
10.059000338368076,7.763069263915848,4.754087635280331,13.206096098093349,2.227857738123267,1.5285003204952359
11.172384340596146,7.651146940939018,3.898576197451605,8.94547083822201,8.514281247189276,3.7602542152977994
5.859410418213861,6.4198729331243065,3.903952644191463,10.005317034637105,5.573022572219881,1.140649154392077
12.522009651515496,8.637328363549342,1.317008508729684,14.24214083045402,9.756193304900707,5.594737710348631
3.0840141451584544,7.1552475281268295,1.6021256924158638,8.72403063921812,1.571299383222626,3.0456994331248044
11.736123817541694,7.456691761315136,2.418063442030642,6.757477337545634,12.312511265107661,5.650067914581432
1.2005819818332937,2.4897881909225026,8.416503195826696,7.288679783771794,2.128313605703898,1.5382061039215609
4.456577200821758,1.982876258682247,3.7620529356254444,6.593029051376442,5.36802798608115,2.793801889052565
4.576226575886144,0.5027413571736616,1.6279789467212757,1.6906711693414542,3.3972084443889488,2.3344133289991893
8.670648733088791,1.2708225116974101,1.7896554247463397,2.309333777696477,8.148322205092564,5.950759497050647
5.055533911936677,6.362250449330221,2.2194299602443306,9.251321961339025,5.476008627168142,1.852063260146392
1.6430283873993075,1.6235822596364822,0.7854277785801357,3.018032127962964,4.052129060125225,2.66552980850798
1.038945303815936,4.293001956918128,4.273499901535301,5.764302016019122,6.165872441977738,2.6300430634088747
9.510256965582341,1.6542372765838895,5.453075666314033,2.5494995602548336,6.310223786288787,2.380418351185126
3.975534179742973,6.063386483369101,3.468078085610161,7.299455267488161,6.183301170487946,1.7401242956083347
3.994368077251081,3.6473667306779456,4.16160679521322,5.53020025961347,1.2722019951393062,1.0694983773813644
3.9921652945799044,5.465626368610202,1.9401362470645998,7.023354284401233,3.3274243332167597,2.216887788261454
10.993525672461182,5.309590266577873,3.2464542460934647,3.192557817846426,1.0833680082288148,3.3852289238637474
4.000853465609475,4.474865428530422,1.2765168019523467,2.460513797969827,5.860600942272975,3.049929236796413
1.8553562705302928,1.4619688357225402,1.8959965243971928,2.6106142949631472,4.6241529240923125,1.369843110958024
3.9793673079464886,4.803660069575483,3.5445191613093745,1.9566668351411,1.728499378736493,1.1721028164848155
0.9530502678808698,2.717108163513014,0.8120145462032375,0.5469639185051218,2.578473297154757,2.4188956510681923
6.142226154369835,2.585228293945107,1.0953127293500584,1.0877801987891411,3.451159225534048,0.7913860042409412
5.004978344679387,3.5925685504433607,3.43369983588185,1.8106470283350178,1.97017754792171,2.3124346876347976
3.8596125117243356,1.9129048473009334,1.0194048182045383,0.7587748008446666,2.1674655825282807,2.372543670594439
