Gx,Gy,Gz,Ax,Ay,Az
3.2673910000000004,0.17032400000000036,12.137970000000003,10.0,598.668,64.35
5.022112211878758,6.393516643349116,12.161934079199375,2.267360388311357,1.427778334066883,7.157835608597056
6.581300058103644,7.044751225192652,11.944895990566359,7.470317239242308,1.2504522802098004,5.056291750122984
3.8095223641809794,17.091557265746196,13.787230105935603,0.4627200491274382,1.250735467531261,2.672719337009333
12.137995491104883,1.2905989521804309,15.006414466262298,1.962525088240244,1.647594893855259,3.7332058999322757
16.19535789199958,45.49113824552734,14.562602085755461,5.760301045536521,2.314767380026492,3.6166059307395217
12.02090810960118,152.31005841689262,73.35123536695752,12.519321758094922,1.3668595955132108,1.8153129399595185
6.997943027607012,42.24307055592901,15.22752638555269,7.0116428628982295,3.679152180062392,3.857093601524927
12.421135319663522,31.107152722086578,29.164252761731674,4.699343339758644,5.400069808610671,4.6051916856296975
12.322592997321603,11.798644416480155,13.194759999436641,2.1432006469790523,6.878430134263962,3.9074423956997846
4.6464723041599045,13.856651865791138,9.615342624869344,3.737856384972822,1.3454258463225224,3.414442559552242
14.234346636013145,37.48564517762447,16.542015233719315,6.348166158866695,6.70167791334222,6.462233741809593
51.36688699945175,12.225934344905447,12.133057345288394,2.3352889601455082,101.56932942033424,82.20320549041402
12.662879571547267,31.183276697971557,18.083260461987198,5.797412772995032,19.933220091913448,11.872601842606556
9.612811870926324,29.304472124069232,18.93893337268436,5.9430869280306045,3.6517919668299013,1.9561575740710182
7.756347627317363,30.86929368563559,13.771863313633855,8.76058456582626,9.189352079429188,3.309971045672871
7.121597400906272,12.555756319183583,8.232634125954059,4.275013932595689,3.7408643329007045,5.437472657996373
6.815589761615236,16.31211744803026,20.05223697683001,1.7645798572325355,5.127161990495423,2.507268706764543
21.981133952150195,88.53968758501757,196.43197212343162,20.783968242514398,9.109037425340306,7.0204246923067215
10.915765195142527,42.82044817908753,66.50439343337732,8.691486908769255,10.114793915276909,6.238242463014361
3.198330368983223,29.748965656792308,8.305578539551602,3.8438098896674484,3.979535438414213,5.944223802364299
11.608697888177588,24.91403353469632,2.731390843053444,10.121854745398275,9.377986654315297,2.6422361674380324
13.006347950027736,12.383450318949354,18.246784633812865,4.1132049923867795,10.530339263274632,5.267152701295783
16.696940568047594,19.120813066954003,9.509308830265844,1.219464122697284,12.912752616055752,7.7967916236783585
15.623713513976174,24.964960420383672,8.371525895206508,8.044813410619703,22.027060226055962,39.46662226103397
15.043992807360237,28.220094166344072,10.070537911061793,15.11007103316186,4.953678361125936,9.629148450299125
8.390479803009375,9.350194177291469,11.498112827666173,7.400265124797697,5.928898823201245,1.2497167138697303
2.8047566207312107,27.65101116241554,5.5661062817898275,10.385443993236688,8.093857993817322,5.6350591926266755
4.324713385316806,6.255287077044652,4.906019120473125,1.3760214868075353,6.187999533275652,1.181489909183293
8.37489152527238,35.147043641150624,16.581143647992096,17.052821466238683,4.903204331749677,2.34761942160157
16.941335137270897,130.01049083183548,23.928172226793,74.69490391442969,5.5311382705915495,2.1893010449937718
5.367891988531583,72.41632957591973,6.2928570076321355,40.78811525245608,6.427462838426943,7.462717606217865
2.673502997911123,8.42753784500642,9.38711092251862,9.402014399280109,4.782371459000344,6.306925770981129
5.853994594256569,18.02925139128924,5.506069262934145,13.127429962118796,4.015011090780888,1.7766955291542985
16.972851252441853,3.780112405726813,7.973547032390355,6.180420135231153,8.592885307152056,1.663271759343708
1.3521904907275009,19.917423249478745,6.519390559919172,12.91131309387281,13.31297298866642,7.019305788061646
12.583179252669106,19.038757985090662,11.618136025916066,15.730466075721749,30.315625104880688,20.17535374252506
12.76374772988044,6.473248290359878,6.64462621295916,6.846689568973882,25.41345441280203,9.530033448035267
3.110900306343523,13.349217958221153,6.381266162484922,10.787110174997801,7.328461005730379,2.399227253866222
9.82832872919447,6.881412461601646,6.6741027745346875,1.4552561493349119,10.697965885240304,1.8784923146530041
8.964577787970429,4.357261149949705,6.562038349705075,2.272168671159797,6.643043112865793,2.88733306360937
0.996287345414697,4.868635506320592,10.800967567071115,7.245212556226881,1.6384775915884378,1.7269158656147723
2.1109672923922225,10.114247102085177,11.83307218701804,5.117500992878755,9.314714590839952,3.5949477590840706
13.78762620957776,11.785079704007831,16.100356526168177,10.484916131214865,12.623276038951722,4.528602364548182
4.713974781101229,12.86722901644383,4.004006068857922,8.40163741729942,6.127182718173392,5.312892840805586
8.521048233934206,4.491395438116378,6.286138836925986,4.089125091486258,3.6091451582743734,5.153669282613249
7.076284042219379,5.574015297736001,4.407285090537946,0.8260214431938178,3.1805959832119726,4.599470998305007
2.0193448407034102,8.244058508826246,3.8044450327414707,11.775237104522125,9.024786859792794,5.839695241683448
4.183025805981473,5.308890572617512,7.9788403252679,7.218811942151682,16.226383225796575,14.242250203198862
6.665780352577842,4.883209565104299,5.84981577009766,9.312826690191475,22.992377834673118,9.698665114582884
4.030433411667378,7.979436135844934,6.294961945961661,8.591133019157779,7.547137360336259,2.442265491066397
8.561881613636244,3.4095802872043666,5.009378530606305,5.189051432634693,6.171659288131917,4.454553314158846
6.715063629585807,2.6242629583682384,5.699342904023008,2.063853777745622,6.671167367431367,3.178347727713839
4.961437249671744,7.373701582357265,4.409918283669787,3.3051371898384554,2.465252102795913,2.8061834907038983
9.93335407879449,9.841351322140055,13.847855144212236,11.124773678549014,2.8665890075939977,1.5231124677212684
13.981629092862166,4.7920774147419225,9.249267906659663,8.19179268828472,12.55938102844925,8.26613226796827
8.256138133949616,0.407005576239781,5.50232837406494,4.634420678251376,6.670296698819935,6.457262646142795
3.5044951079533457,3.515034469460446,2.891908262872297,2.8984474211218028,4.550615430988419,5.627192787249086
3.182014493912928,3.7970686812220658,6.548844765982845,4.353529200782673,2.7016898121446364,3.3717625652621876
9.154741047163558,1.3378608838011696,2.858145487292533,3.729073501235533,12.066972024191747,10.020455302429475
13.21242712835676,1.8774002221862396,3.408677426887506,4.190346382064054,10.091072745821089,12.178216843302955
18.588237751607206,4.608849554309809,4.045940104548988,8.779937112037672,24.166749350942023,15.702107837797143
1.4320236719456048,0.15715129351036228,2.2250807690365746,6.267441436988588,1.4843535603723863,2.569485967849828
3.5759968725943305,1.0377393305181466,1.7162681289403596,4.642955263261842,5.319003210468263,0.6833611606797533
4.429166352302356,3.2419439949142546,4.389451478808065,6.54926138086397,7.9469970008403195,4.019976729455777
8.404810688241907,2.073332239413261,5.990780263309436,10.804257655854453,2.825748464429183,4.520116853584121
5.204873858980919,4.276108919184289,12.450479198903325,9.680630411789798,7.434979974917415,3.74632370070898
13.65033744182401,3.577300118163755,18.89606940230549,10.875317968508663,4.229004793892272,6.385033894462493
7.364686311830175,1.71607078424125,4.377109152563938,3.5167004496559593,2.8589978980051476,5.990596633634447
7.019582770367739,5.54879853321136,5.31686266371078,4.569718138254478,1.2360281485548519,5.842491661753742
2.6369505915062454,2.673644641094159,6.353043387556866,2.4507777665689123,5.07008151147507,3.0795020514949654
10.393537054485254,5.422747553931032,4.343619203236536,1.838988465597856,7.844790784314241,8.29934181083251
7.757373617491582,4.168544041114214,7.54251159258404,4.007061685328311,10.216937149481543,7.706926918515019
21.52635872154227,5.58026078767911,6.88986578329797,1.6578844607828453,15.405673750421323,13.733498793484658
3.8055060451441554,2.24634869069714,3.7016775736102967,2.370053997954611,3.000121445721099,2.3153732590195935
2.342888795480576,5.29363658761427,4.292831742460092,3.124212840193776,4.629042015606902,2.5061831396559953
3.7205717588225538,1.2594925069640377,4.930223554607736,5.512207556065019,5.101336642008336,4.522329638440728
6.66042526051854,2.511699904422666,3.7670970949097806,3.8076730476753906,2.8229719235272865,5.588726893927353
9.72686289213193,2.351632774488228,5.5894929773751425,2.6462887346943225,4.689587001659184,4.823658251261564
11.345287165940364,5.290298791048975,14.413184637303926,6.394328345601203,2.464062472769051,3.6866112931973847
10.462568160393724,0.3348350981539199,5.735563726547264,4.191190010175587,4.785203161939237,3.7090225325793056
4.934962373650688,3.1521771415701183,5.325461067991239,4.441459434150529,3.934981079394593,3.910683611961442
3.604576966411315,2.3882657515415437,2.6098765419004164,0.5157652076340926,0.8582286706320661,1.8908269466404497
2.944549431526661,1.9170827157033234,2.7845035799324123,1.138142237410539,4.691856334513815,3.2976498892896897
3.1709641170483023,1.736757639121502,2.250861508557254,1.8291198927399832,2.2894023571083117,0.970959836498812
7.646768057372821,3.493753468627795,5.349346682760547,2.1785441022458585,6.771338686248831,8.483052841362772
1.3973082998510988,3.857384224168613,1.130065562449818,1.0977750667062072,0.6451051301427857,2.0802495948285302
3.9101997125938937,2.4583268144385007,3.185115160275048,2.0469853612277378,1.7793032819464507,3.8307278810200907
3.097284339572071,4.0443706961617245,2.333024481747948,1.202057347785439,2.0382195855451486,3.013850448610918
5.554516078728352,2.3757146183589564,3.9959000562087637,2.1607758791016884,2.8910524591284346,6.457869662968838
3.1570664865816647,2.9063781601110725,3.613774304817633,1.154636057974394,2.498276304304257,3.2419699802637623
5.2231754551017655,5.412458578071707,7.234876557161973,1.7534828037982453,0.6330604117758495,3.7792536284798137
7.048684600426311,1.4951916198311466,3.1343017691548583,1.1972557390699141,3.5639905656666233,3.25290132524927
3.7382442217742406,0.41246951402063575,2.8281686985108725,1.6012507069701534,3.2205708468646166,1.672868037183432
3.8624649312150567,3.5342050966434235,1.963370680119682,0.6810748902310872,1.964484023923984,1.6782491152988834
3.458182317147956,4.571770408890176,1.0085501980737557,0.6585474794525458,0.7524043997880857,2.0017829583555855
3.200288973858937,3.3257973999631782,1.380781881682513,1.558160905263599,3.182222486957737,1.1742832576067312
5.081290419827081,2.566225350315615,3.5403868109083705,1.9930818337809748,4.0965450101842595,4.3266088606373065
0.5726562331466547,7.07122371708743,3.5117315132323785,0.1176352564194515,2.5842030914254512,2.44325434753767
