Gx,Gy,Gz,Ax,Ay,Az
21.869806999999998,8.249955000000002,11.907889000000003,13.581999999999999,591.4179999999999,101.504
8.035195744789563,0.5994044326171253,1.4973261098852717,2.917902687392563,0.9103684356343138,2.9902710522223575
7.812276920272901,10.226639849304634,4.503442307090312,2.1596039776176523,1.3430100295959022,0.9807020600283113
8.27486239974534,5.303470323007763,3.803193551441419,2.4069260346930768,0.8846036790812379,1.612361715337218
8.002369293664032,11.637825160101603,6.395973674397905,1.1757418338518422,1.2943938324384916,2.6604908534551317
7.059914858136855,30.44559657351574,14.985895840014496,2.3664430649279122,0.4066485828325447,1.4930350805348986
26.217505085580445,141.68080782467547,115.86397535197543,2.458826834750244,2.526064942200851,5.167343013492549
3.4085360394553157,70.31036630840543,34.988434937918406,6.694663078638397,2.357536357196632,1.5073199234482895
13.453366513211902,20.184622732726567,14.650359658895866,1.8703107325113153,3.7219504703746242,1.638532986282618
4.925116051094677,14.993897034211665,2.9016537387985033,2.981056084352905,4.4672425451936295,5.141988081963783
1.013115270611689,2.4143309842555776,5.829582563495722,0.8292905675886337,6.119700931421901,8.106329747020963
14.299542536024084,9.86407899811624,6.524030708851289,0.36976924976121933,11.95327251084904,9.981396923303581
28.507613676518723,30.085988469981103,12.41449675163366,1.8116422831243941,82.57961983656071,55.46545130151389
12.914904700038823,8.11977826122019,6.862098018385758,2.8079276438310092,26.722589434744798,20.64702211896141
2.950084120476988,20.5115979271439,9.597988668573318,2.2986843639665246,9.906737923868175,5.627254015822688
10.601556711125234,8.984552753279695,11.125276972108097,2.4816532785574608,5.926157700023387,3.2267464577032396
2.6799597230535177,17.07221362555621,10.670264019267158,2.6986200206606217,3.9238843461724535,4.1678572215244145
1.4703598928413546,18.04219181528412,28.306819788073074,5.608619140586564,4.188078179523245,2.0102086015393277
5.103017247060728,62.73825845627741,81.2034135225236,14.157198783433527,9.339560547852598,4.890567786323198
4.149945628533269,51.93112828590135,52.474069830854745,11.603161428683196,5.884873969148691,2.03988492420497
8.248771700959296,25.61701905982307,10.926280225646403,7.454067394401848,4.777222667771753,7.869403585207008
6.003417491201566,3.2603014522659493,8.011607987572914,2.191390162281998,4.91881365275761,4.650226308582891
2.273398692395687,9.245246256516566,5.363894359922033,3.2650186810975628,5.708647435736885,8.795252335302102
8.125342776416264,8.066976402730178,4.473019234999276,3.110744565143598,6.826152453600336,12.277662498600765
2.043180907700635,11.033695273208668,4.740968402457919,5.306634552928764,12.699772083808245,23.907555910578377
12.19308463995915,15.1063146234837,2.2941809158699966,6.330853924164067,24.74799901948371,28.311494680451222
2.1926718287678524,7.263512172826594,6.764417313554822,2.300140720119267,6.53039921622831,6.6126696626190515
5.495721196868504,6.4732718743135615,2.9030663352093455,0.2409463337838816,4.607510032789977,2.7582373431443576
2.9548152886610914,6.7377860020083045,6.455721490975935,2.7384171459034894,3.955560448423759,3.523180563531107
3.134847952248341,2.6161452158853153,7.165853370385183,2.8827962812472325,1.2717298899430025,3.00264581622209
3.6891716491641704,8.698943011836542,17.438807838840308,6.073146586507918,5.700918728792302,5.066346211901328
5.759302031641912,9.897510651698692,28.17701951401014,16.96850063105124,4.948900798294767,3.072341581976999
4.349973557508927,2.4603963266517326,4.015997575362009,1.823365205133108,6.476551027764664,3.1376382116273263
3.4208785800345844,4.874478473938533,2.627368275259133,3.583578715419363,2.9073636790141073,1.4197184042471485
8.903786031474443,11.56278170914442,1.2614195939980954,3.316431329041464,6.752287101658233,4.665463146749544
6.585557439258185,3.2878129644685803,3.545002035172028,1.852578910261331,6.4286333173467645,5.202286466500371
6.140376121807464,11.9098936662698,4.840829873649153,7.120794939265223,12.809026977798387,11.092004324201916
16.85942914146263,7.595131518518708,10.827834044306732,3.873249841484304,30.1468764158473,20.954166092415786
4.472940861523837,9.30576739586606,4.140902697130124,7.998981957365217,5.296910892799528,2.7448102329294106
4.860802177046127,11.92918139567287,2.696458722236369,7.303432537172864,3.87126191157812,0.8143051267547186
5.179434543350471,8.328425936333465,5.155067113125295,4.477281409570774,4.702530393718746,1.7717055777229516
6.093114161918594,8.416308707708291,1.2086758948819958,7.522089069536505,3.5509392369033996,1.0590359267774996
4.131781583205236,12.557808045069754,5.957130517457766,3.8950149895626653,6.130656710879241,4.059999187863403
4.399302374402788,23.1403487015785,8.964252019421586,23.093008180602297,2.274349178185881,1.6620956805605749
0.47942676754192626,12.50186917509813,3.6867164887909762,8.154036884174186,2.1001740507624205,2.8434757615687056
4.018444815589898,4.497043423343048,2.527103619667136,0.6966662015979349,5.867999196884456,2.7846161424313873
3.5201372216748257,2.3416034201813787,3.600579944359776,0.6658069794641586,2.4690743838582354,0.7210480110453542
3.8940951121970047,8.6390110032184,6.090971067117041,5.83796655506291,2.6298572078314737,1.688319383934044
1.8089142228689281,3.1472031353948724,2.3237491866880764,3.8251500677954575,3.374630374263929,1.5354640590458977
15.463634638911095,3.9058981525620853,2.199448887758083,8.91716230032642,20.392893206502457,14.052314730494043
2.839470016469843,6.862906641620769,5.341922347938499,3.4045670714939527,6.614199325866146,0.4050800897293308
3.0752466508322858,7.706385667060306,2.8864097263974755,5.495031081297499,0.9350029488896983,0.5744948491002058
4.546064732829667,3.5811661097245415,2.872181048507795,1.9123734727261974,1.7194974596463275,0.9377170722944013
5.04811904268454,4.779954768658784,2.1023453929884033,3.7905744018818854,3.515670193551708,0.9488292637544271
0.8214743354804327,5.029314600812037,3.723821228987417,3.889730750703907,1.7577446167501078,1.4246431480823543
6.51397858552648,9.548836378414492,6.100750299979558,2.6949288407936955,1.388366556741885,0.9565574683341443
2.1999070052936975,7.717134650792693,5.539200112658333,4.232572260153461,1.7053920023443032,2.106850063024702
1.885103906180679,2.03165389013521,4.55564384238102,0.6781326248345709,4.246750587836153,1.2692479958974539
4.858844561710583,1.1351069305092298,4.106598468518163,1.8810121703793456,2.2342372733617144,0.5346808116452719
4.200565841563336,3.537447399322012,4.232629653202229,1.3499118391490308,1.2219464026167897,1.0287747345396416
7.577734289440816,2.2027957496683066,3.5778377529977874,2.8026610098531672,2.8775920429866444,1.4518067382464208
17.979667985407584,3.4539943892902203,6.11585686198367,8.345891297031217,6.680808091669834,5.694562073831816
16.403079554820113,1.6490458938498826,6.531999437951694,2.6521917694986885,4.790742585475691,2.8070010422102287
2.4143427270432714,3.1567785746524435,3.908470844307491,4.347962021165514,1.8053738110769846,1.1064785122320937
3.358278086856415,2.163366368444076,4.4510717719308515,1.1239622192663714,1.0325366182756606,1.6589550383036038
1.8080656448023327,2.214023969226294,0.6013759110723701,2.9267427960013275,2.45436787510792,0.7917721450416683
6.2991100262275985,3.291732327116156,0.7564638150920656,2.424990773804779,2.059456924508891,1.006811859609681
5.5565244175721205,2.7332483048397935,1.1447650232817899,3.7670364775672134,3.071042148613863,3.0099529069052267
5.029539125665237,8.027521941708917,5.571153383828475,7.920139820627324,2.954915771727782,1.837929663764936
5.953926231726613,0.443735627923784,3.512480740774474,1.5509162812688315,3.048239961408837,2.0791395965013595
4.194500339989276,1.8509995387261857,3.3173008550852248,3.3655871345935213,2.477876850807575,1.1731668204761085
2.43129373068898,0.9875365323925992,1.4618093704505621,0.8131046046583406,1.7802750372026717,1.0715815190468911
3.6101077873679737,2.626865182470622,0.7474201168813831,2.6953084553233855,2.3856135209760816,1.2129975379442512
6.260848603675367,1.0676618070189579,2.893713466599335,1.7339940182745583,3.6806486221873973,2.764630508885398
13.727271817517023,2.3668347513911034,3.340459099706837,4.13938769435633,6.2634292540755725,5.240927252735592
2.809434722019044,3.827833850413647,2.1365139613204724,4.274929515795935,2.022647994083517,1.167944628112268
4.56199721086983,1.1613761532708835,0.5792129287389169,2.2721301203975686,0.5557974059084391,3.227531049143611
3.2594430587598793,0.7821660840388736,1.3934718173433862,2.3891887352144514,1.445327259003997,1.8576853703962772
9.48626878861938,2.557165853587647,1.8723372812015922,2.300837312440731,0.4345115214560292,2.145713128435506
0.7184084428486243,5.1435891088937185,4.4993611380989345,1.4566487552093057,3.0872375344817735,1.8388623294757331
8.149997259548014,6.303151000309259,7.329515121145864,7.613383119869824,2.0999913264316317,4.573578991817752
8.28095035462695,3.0058673732608097,1.1930514747020942,4.057209631473613,2.7269379790711086,3.511672538654038
2.0724711191200496,1.9642186859885287,3.589864228287918,3.3441742802268144,1.2704659303972081,1.6638083204473444
4.409729557817192,3.2767708093538155,1.2319501972244498,1.633077774113123,1.6162625987434445,1.8164721335431562
4.564168805933327,0.6495510734038861,3.7923170885210964,1.660383632349961,0.26870477169681245,0.3288697570097153
5.092279974276101,1.1411536616326519,3.707372149278266,0.49874927755923293,3.2729700244111397,2.193399733587549
13.470458303924348,5.7367072237755865,5.187094810141458,4.126887425865038,5.752551784342846,5.447537556109133
7.7512914881291675,1.4515780851409148,2.7865746165129344,3.569597127314926,2.7547409579107596,3.1801631056218875
2.2097184461906423,1.3234896791783104,1.075047499308894,0.6807049787734946,0.8941726586798134,2.8620726205762645
6.497500174022691,0.7872279946851072,2.984424154647979,2.207758574319807,0.5709897998111676,1.9180334300334918
5.648052370364622,2.994252072336408,1.1054137533771542,1.8625939367212516,1.7078548981269843,0.9270400213863537
5.818563883208601,2.104565157450871,2.3942892027095284,2.1250759409762443,1.3254314819268764,2.566991144450721
6.777553015400171,6.363355545443479,7.060063438307026,8.290689991995405,3.4796341933306643,4.712718738696472
6.68071489843006,5.8598864559902974,2.9329575802628445,5.892747860704025,1.4638477291548306,3.1600653806597836
5.646943537118645,2.83000221115955,3.6514622566568846,2.8298442036079985,4.0618257177598975,1.4364286702788929
3.6530319459388725,2.66914191576854,0.6774736093166254,0.966113676772813,1.1154387949701796,2.209880107008889
5.875702274416021,0.22508789217241743,2.308038073023796,1.1437128866362138,0.8426805154439347,1.05075775080637
7.015998952591667,3.636051662493527,2.8730223151569483,3.0902139168900895,0.6582611544114143,2.9878067214588526
17.00541024114735,6.57323889764279,4.230675191589512,3.946806721276116,4.046773830527897,8.91057316534774
