Gx,Gy,Gz,Ax,Ay,Az
17.805881,1.0666199999999986,12.813541999999998,14.736,709.7280000000001,14.566
19.04734908005884,8.055453186455049,7.03474391896293,1.7867297422453603,1.373518172907994,20.08607134366634
14.16569077809676,17.587516275549792,9.9965853668102,1.003272504769249,1.1395669572128408,5.096802156292819
11.942725473781353,17.055937193943205,8.523154843099448,0.24399947703163588,1.1983562770313638,6.0149983176090025
19.8364707053493,21.938026096608052,1.4195444763870584,3.5692455841760724,1.2074414317743112,6.522814302665019
20.749810135969504,10.96952926798763,14.747427319706459,3.5495137679053395,1.6477692196602087,3.108590178647647
5.428637343005177,26.400937639404614,18.750225168660435,6.53730684371526,1.7390440406904293,1.273814597729718
7.448889656390941,170.78976674709818,14.828973068541428,18.810135037642976,3.0765040976256897,2.920007807067241
18.269290285995,39.34621329909958,16.908054681897283,3.607516913645461,2.3595607820509716,0.5737446936703117
4.629487219638283,14.744679275042053,7.3373390144778465,1.9905958552115313,3.4598671640385588,1.6253817746079373
15.372818788875316,20.92247591671276,4.162916201269247,4.002550731313121,4.227778816092534,3.610803188222632
1.1558475130329318,29.34980822829252,4.905398567988228,2.3596297537912463,0.8216208815668974,9.708967048505771
21.947867267473296,27.477470389415902,11.874513080088757,3.0218287618844912,4.442432043445268,11.53769354348737
29.897171328898242,38.99822176057438,12.263071652942854,1.6058601668650287,20.075453202510733,18.153653980172205
62.230603069505236,26.087680066657427,3.9918917503624387,3.563273333782748,69.89678807420103,45.27778944641754
48.79531227373036,17.050816364447247,7.999454977344975,5.2241526529000435,57.59386311920393,38.378850161536434
13.337555543212979,34.40900803756136,16.948205417137203,7.169818687673591,11.482347820592548,5.750867146243017
5.977192042193696,12.234152141275063,10.027382947959635,0.08819242540565435,6.633660767941591,5.199963945044854
7.226606859392951,39.69696970422345,21.075678362926233,7.221647455973729,3.187628751096695,3.3794445675149434
8.201823746713865,29.029147084259183,18.999300831977973,8.905829952113757,5.600609730482621,3.6301207623601153
2.070419598768998,20.243749691693388,26.569117485218683,4.151753255100199,3.4709239627930053,5.804255744087689
5.860497899709597,33.45358492105334,51.410361049494476,8.772687453909109,4.437482692287717,4.913523882973577
8.562886001163882,16.722933376165834,96.24314239688734,15.582766819525236,10.049576977183833,10.2737832333613
11.99421158575328,30.92706679063004,19.882552149441505,0.7284161142496766,6.291236087136888,1.8370851854457613
9.753227963175181,20.07391466533559,16.738451128057807,4.467530294966741,5.792042116917153,9.072843214088001
3.73443277320264,12.778958017916223,10.158159242989827,4.138481190405974,5.625615469323524,1.787597340649042
10.67520831023351,4.761199081070495,10.832163536461223,2.5331550421647946,4.923017888161073,8.546868629375739
11.564303922277709,5.365469245555582,9.004348767006652,5.488925488527297,5.632419665972934,6.199937299888136
11.258342678088992,8.000120182777378,4.852826424879701,2.6312241913368513,8.458640727961171,10.79384056314707
25.028827307986674,24.844827910658918,17.488670821637204,7.377791358636335,13.288288681137919,32.60933003907718
16.051836605246724,34.32040190294422,2.0299988878637403,8.471184266751347,4.608009619244776,16.294421422641783
10.94712158259005,11.181110555871719,4.026395717975689,4.539270139969081,3.0340472788986332,7.329019053168292
2.402957823149731,18.274087201767063,2.919812103275345,2.8922858369535067,3.987106608857713,1.0387117452337573
6.347158679197056,12.883252520323998,10.118946321605492,9.88515877039555,5.7920267256963385,1.971013757214041
9.84349129117381,14.66336307670055,8.737647906494919,9.499012678739474,1.8153234114571088,4.256654102019651
7.311895372135021,18.239808446028384,3.051727078259313,12.642239003301686,6.389187066337704,2.844442277524389
1.3962582532717658,10.551129293358853,16.0401031573852,20.99500966820725,3.372003023263212,3.2268382918318785
14.177475344559042,21.496966431451575,7.425354463209429,15.132673936398982,4.342472266585306,2.8899977567241995
10.86486186275916,7.231457241307928,5.634285242935302,3.537435557897987,5.340957705292926,7.178578231320544
4.55477049063795,10.709866799188157,5.392651271522791,6.337337355375971,5.6935106034759455,3.6469821214696485
7.338585236761031,12.733555541206977,3.7869101946148933,7.10808177551966,4.758238490319715,6.404502067854243
12.394027067115077,3.2798950879198636,4.84289726853935,7.067992134519017,5.2937572737735135,7.401659674286814
4.987010101103249,3.7933402867373394,1.7814893747846017,5.575511402828069,9.326405642488568,9.525234259239063
8.575559003610518,9.586480837045453,1.7419660218083268,7.068353950236025,10.766464659805365,15.000169258142419
20.587414632070647,9.173211333426309,4.855376388346555,7.613466668835878,19.323873141531756,26.136223407631732
4.028045342216684,7.773872007921095,3.1661288288118468,10.519706829644784,1.8995192059311483,4.499405719795568
5.356394517174879,14.493191700448342,5.446794253136194,11.458314816760861,1.8654311169065871,1.1585838777034645
4.120334240617345,10.519376567259735,1.6107813006751406,6.670365000739826,5.761190273077919,2.4964888557045306
9.122648875099056,12.3118828900653,7.641204311117946,7.888330401448203,2.443826084981619,3.414045738939596
5.476355730708992,7.844515088076019,5.347956859203141,7.781938151699604,1.7835477842102176,1.5993235450737402
9.306170384612201,6.710008091301164,2.3755556598185086,1.2893281059339157,10.530565934482382,3.0678404884703703
9.904429260201924,21.003667587718,9.589973942411838,24.24356476450091,9.662771863096976,5.976274498993743
2.8530950876309897,10.292465100382254,1.9184086273894463,11.117903352831181,8.347794381201714,3.01226846461784
4.16236570035681,9.529130213733142,4.97323874031639,4.198123075389029,9.777599272912509,2.359916559222594
7.118846848591936,10.253293417609187,2.951217321881244,4.78497575916087,5.603608199971487,3.7178186632647363
4.079199184703534,3.360965617843618,5.336810400346263,5.671769802182039,0.29366808861454874,1.6543566952721553
1.2367208702946109,3.6228811782294454,1.571902369554585,8.304698678662831,3.7302989736307706,3.114554067986026
5.511186264430512,0.47020111082811084,5.43695067310525,8.558487926423256,7.5858470269726155,1.21143068934944
12.375360351340893,2.3935051615610723,2.6478166721433527,6.32544237851036,14.042611573785583,16.800211345288044
5.726472911302557,8.578465972308194,2.153097961651772,7.350433821448032,7.2672431932130275,9.579419801391529
3.4180168547872167,4.04086127042393,2.3576338146026856,2.5691977496761274,5.644978311821478,3.5368262636034613
3.5831807260782393,3.296867054968737,3.326557597936033,8.27360948498771,3.5074102010143644,1.6338378989291522
5.409325690128114,8.102613463994432,3.180047393391249,8.954163625870256,7.105834244063438,0.8507485847289377
8.63343264343111,2.451398937027001,1.1221089170097422,1.574742261815716,6.9814286742313145,3.7423309148469333
10.584116947381622,10.489530887411654,7.420269222970259,3.0868323085475518,12.54074732968869,4.3407309536382215
7.583340789888684,4.632641627014307,9.06389000162828,15.069371897781439,8.623009890976224,5.871344517321734
11.532560806509403,12.068233078290758,12.574850962839953,15.551372047926348,4.859192743559906,4.095882122008517
3.704214381020255,6.192273851435165,3.5207424335829978,4.057744112231186,4.180825528769057,2.230330225648533
6.017858154483736,5.513335247662242,6.16967507463375,4.134771439683447,4.60988772540915,3.9787299139887042
2.919064207928922,3.4430216388477533,1.5579477576225322,3.9659134094954127,4.240566337770352,0.6211518736888565
3.6721314155694342,3.112412464086389,1.1903438345378186,2.6994630809133833,2.7867791165823115,3.223267712039653
4.414479962578886,5.855167004027212,3.197772912679732,0.6361748689546024,7.493595042842389,3.374107495285942
6.722607774143857,1.7058945508881713,5.745533425562949,3.106332684552899,10.400522274041903,7.630529113196858
9.401023424088681,7.097559439803036,4.859760793393195,4.210157223504261,16.48216132048799,14.459846021976011
3.157404261190088,3.774231687512326,7.896808394443437,3.037167930689146,2.2980996631345603,3.4745908800495355
7.936670069438947,2.389884852400907,2.3433765716792556,5.432944953092535,8.284530793134396,3.6161752406285737
4.752706820259889,3.441168171810565,5.257106874376366,2.3083713876842302,2.72086088970054,2.449205774115834
7.222692829953102,3.9337053739755707,4.79776522548602,4.3357744356572026,8.238623367961155,3.9697794987140314
0.8311616762505234,4.611308372575299,4.278041880006513,2.9893295751954856,5.166008316915319,2.036200191657315
1.2420189103182193,2.3237806951883675,8.5132413973829,2.2572854882208273,2.016947056323484,1.2843990185387704
8.896639721216747,1.5827511614470358,9.379047535922512,7.189613625560915,9.329224339037996,4.342101606662138
0.477470988712188,6.144480369944156,7.822586389047942,2.6157231249190502,6.3077419972331,2.9735831993063138
4.768991016457283,4.568355502380269,4.427000420031373,2.823050049926081,3.2104049253852187,2.704743361635531
3.924694327187256,4.397863707852829,2.2121425005713538,1.001136378171349,1.294998183405643,2.908431115003764
3.116170054774397,3.0335841897752553,5.22591835550011,2.6870825556190368,4.011698034893813,2.1825251191575123
3.989865606129059,3.032354643617886,3.6196124731135044,0.9025238365968763,1.9855014592773965,0.6301019452860293
3.2894360574644845,3.5106329158167315,0.8833500468478227,1.1881519374211809,7.001085349346714,3.434102371101621
9.547578854670796,3.9056051728943735,4.848575525306096,2.3903471181499194,13.41192496380252,7.731006792694735
5.760449408607,4.054947390852489,5.2860852699882885,2.1722117648816326,9.445260822157326,3.760678509264013
4.4946273463837825,5.265345121811356,0.9804702112715741,2.198227153549668,6.6846834793043906,2.149887222062735
6.094808889731083,3.5122025426396597,0.9196331544717213,2.503255898892072,5.079132817273014,0.966132204421706
1.6742931983673968,5.98105139676183,3.3469974019726028,0.5056907663172057,3.5102404415943744,0.29865562458670025
3.9946826913696087,0.21159377789732337,0.9652619929117566,1.2971129818746576,3.525575825737029,1.3862430349161874
3.171478128282378,2.643407132977325,4.138046594873427,0.5264889601680769,1.9080749906989365,2.030759748044414
5.505846867536101,6.462320886705835,2.7166168845324683,1.3629184515430544,5.598781371991628,1.9463056992939258
3.7701517184943074,7.437042415118783,3.709400497871299,1.9197274331429282,2.2385852027964437,2.1700718022408614
5.430932405361822,1.737227689550651,2.6199150082794684,1.55075210976385,3.964889244021257,3.678104657066956
5.6381377863842275,1.1878573066085039,1.5690155159611723,0.647387232653232,4.115553005323082,2.3666798410964502
3.0311068364567073,2.871206371609869,2.7945240362845807,1.4086449493410742,1.9781143784267772,1.44381562893264
