Gx,Gy,Gz,Ax,Ay,Az
11.288259999999998,9.024425999999998,0.255679,11.348,528.8199999999999,11.162
8.65791340975082,8.470824814002826,3.9873670188648145,2.099377783990898,0.9787818915903901,3.363651153768437
4.078851862342705,4.799928827626585,10.985828485973098,1.330269654271285,1.769456336618001,2.419839782641153
8.689980338934824,24.710387849118217,8.716759304961563,2.7696545201382987,0.12435048859593033,2.9391148672435907
3.4726725764755026,117.15032817596212,27.5446725371469,4.947758747260703,1.339347762229642,2.633617961779042
4.621415027586183,183.47963850884642,29.706262682418814,10.601519903454252,1.7092967423438972,3.898899143919595
3.174762506943282,65.36034043373962,3.9844443116165595,5.243466881260126,2.564628541746709,1.6998520119079357
9.839068653703523,25.205731348127184,1.010202102628725,0.992345868303734,4.763947292001609,4.029756088584001
3.7412459699159615,42.07097777931159,1.982490038295315,2.720306185273171,2.8235665985557823,7.1781550078414025
17.026896082770566,22.961006980277666,7.710267865139872,0.21101018042814013,76.85200324979857,49.88671078397715
10.90098149926123,22.12822096882765,16.8954306940686,1.9498258505025143,16.13092990104299,14.22702415059473
13.57794332514632,15.030749004590236,11.703221250925354,2.3941649455411356,1.8255360576234494,2.749019231478333
6.940015887502012,7.432796715205874,21.389551123787406,3.1587322955607258,5.78197513720198,3.0137069102975764
10.175333000276108,27.842947944519686,35.35103537367278,10.38626174964194,3.1449981702538072,3.0806355373965193
8.285460351966,144.7525438057358,67.40746378155733,42.75992424399182,5.3910249796326495,5.668106715162275
5.694032719048278,43.21822742653334,12.445401182260682,7.624462476343435,1.7094480710381432,1.067878978428555
2.667191448889314,43.24469325348097,11.108861456994182,8.421975079306181,10.18544623791626,7.300393759650973
13.37579466725253,49.1273987889051,4.875275947150096,14.56523792866464,12.779256413038175,9.433056652460227
30.064706820689068,57.154692550532204,14.445613578784688,19.547200445769636,33.977328839639746,29.468902829882026
12.289401931609115,19.651244033723085,7.648184298680669,4.54518705238677,10.100281526000005,7.863889186765865
6.373932753722021,22.67871260036174,1.9818848735858519,3.7524844689887633,0.4279618729162261,2.701980520143537
11.152609583205876,24.54625816656706,14.526276577242824,7.1756869083352255,6.225613927420042,6.876970468305119
4.167858489972776,20.19502342557084,13.763268893383776,13.219235867266148,3.89510718675471,1.6021820097454784
4.841792819823901,78.88778053267076,22.729005591516312,33.446229937886194,7.359192321516796,6.605959779945348
7.378942770039092,19.615617392606353,9.344682304587185,12.962274365990993,3.9441548556955026,4.214200918701773
2.36366706795168,11.644456854126423,7.394751786112101,2.288470308543819,2.620842012759954,3.75949016046125
6.352820788853835,12.838121139340904,8.12696544603112,10.280629919393274,11.129239824659575,6.418504444728069
18.545341995589474,11.691338634012839,14.930459813238041,7.151843139792634,40.659522635121256,17.15126770884765
9.525415200906313,20.178316177373272,7.5184986224292105,10.976276582622711,16.08731167822288,8.14956196729494
6.23226936928577,20.875171965710503,5.671631066820926,7.905830652272408,2.211444674445823,1.555134296765285
3.6671589402802565,23.582349158729873,10.381717833949876,17.518897032670562,1.1471970397313875,2.5825486609497004
3.584233231032739,17.393643504059757,2.745032079605473,10.371344053238705,5.649146098148383,3.1531053146093115
5.506497875250158,78.6523096378004,2.0813678770597526,52.749592006289426,4.769094533187265,4.404909885151598
5.3795216664824475,12.590337561573993,3.4932351124053964,8.540141212582418,1.9559737072206635,2.936718287763655
2.3873788805849383,8.402941299085066,8.099804725630243,6.703962284584458,7.246238950668427,4.034314473149647
7.9786660549704775,20.14230421624463,3.310596087001171,10.830525451270672,7.126804693152217,7.108611261542192
26.720586400139865,7.213244598028948,13.849488875035739,8.195372091106691,20.989061225435716,10.698086757786744
9.53246651028174,7.941686419998782,5.792024450936308,5.375141313121985,6.744809065684661,7.1697777026196
2.213925108453332,9.565544821495655,10.967201110267618,11.218184874254039,2.478326725626804,1.7986559414124037
6.326581490813579,7.619222568427263,7.051066853235023,0.6583167381614118,6.787911279006562,1.491457504917112
2.2920259977734156,7.488835744323197,5.584191398433082,12.52162375684019,9.497166629190891,1.2412718368084792
11.110225694007875,18.48373635193222,14.357229094265211,18.19910402687833,12.690041412701841,4.730983100768508
5.602897591257139,1.9766627099042864,5.876925659828183,5.080095125811919,5.395627524108849,1.163729022987869
6.797564543158101,7.145037342889426,4.198121304996907,10.162273320525369,8.300929556535001,2.8647460913702365
8.220099330958755,8.210802574115554,7.581556440468712,9.007834202595516,6.343562060812213,5.5908998824485385
7.178477945652965,10.21679039517643,8.7289213373999,9.844372407647302,9.808250954116138,6.44946893502169
6.132959008786463,8.521185838202438,3.086067532698457,2.1751261331070997,11.526776876259932,4.647382798151147
3.965581623042465,10.131585697138402,6.1824968065928365,7.376695239273883,2.1238497349724987,3.2043685067037977
4.611975776322825,7.359192577726533,4.272368740557102,2.959356197626536,2.843134315630499,2.5251787203922116
1.574222746165901,4.0744685306259765,1.922160678384273,3.347904058540759,4.719139194054284,0.5614271882547937
4.187110450229595,6.18669746471713,10.434466812786752,11.632705495295408,6.951091824980268,2.3316814832300103
0.9315851675559685,8.430384639902606,4.9129318720747674,3.165431153883704,1.8657641854349198,2.867307602315208
5.078080900593038,5.386946386426695,2.4885393627986243,1.8253841636367385,1.6702721820489081,1.1155447161753083
11.695591743659216,5.752358937740916,4.881480560762611,4.574892884295706,6.55125863918637,4.3445047610456475
5.390899327691219,2.7892063723646237,4.578396675493632,5.027154438503693,6.846302149348333,3.66304001368406
10.596702884492199,1.7002287207133902,5.741073581363112,2.7066311142155164,9.284595299106368,3.2825459344731454
2.589973007726231,1.9834474605850854,5.024638774392816,5.2674678958613885,2.444499862499512,1.284957430392004
1.2037067962837944,5.5791016472003925,3.6920611218073685,2.224304859747981,3.0444940085865473,1.2721069493603505
5.203684924094677,4.662620893918161,3.3853314233622758,3.5933576151528057,1.6445115354638207,2.086693182338595
0.8695084472440029,7.423297350981461,1.458358343871343,8.572563587424732,3.847444809764156,2.700875800283042
2.1706975659202783,3.068889249039133,5.932825551930526,5.622901098250406,3.4766795457058666,2.90783280667325
5.557899783161919,4.258470794382025,6.922769160054269,1.863823905138242,3.7778960312796537,1.5438524091517
6.91925173946955,2.129083301214821,4.6727533539070665,4.3667059344914705,4.4649159141963946,1.5052955146635096
5.924893493042242,3.5328440720651093,3.0194968406761213,1.8033807706309435,4.8359868307571965,1.8271800816284838
14.075447943184702,6.459099309353188,2.2332616330269346,2.6575771865095295,8.238876593662111,3.716775654820609
1.5637263535317785,4.14461112563234,4.280408302060763,2.0793313277593692,2.6140507260268975,0.15822557072565496
1.2793161837456408,1.4624041400156773,2.606235695611411,1.7074484464903352,3.3853864556187645,1.1034697190585028
5.1894447746453025,6.420234925569031,3.3947275560938937,3.1944864589452036,0.7124687567501153,2.0501252655788393
3.7056813492502925,6.930840417451594,1.136580058525259,3.499448761999489,4.221861134349638,4.441626375772979
3.606260250685589,6.708461878611441,4.722760132267517,5.437375772193532,2.153193512335564,2.255362027311972
1.8480896366842636,3.4853261640338493,1.1376317766416602,0.23031179041348637,4.522531091691306,3.066070789865593
7.751764920407261,2.255866667974294,2.1744847301424306,4.2998500125016825,2.291529304844016,3.0228830083318106
5.169709272347928,4.233887117459095,0.7331772277935539,0.33047650268934475,1.7324519574878876,2.8085858692130756
7.6764001614015145,1.042234083206563,1.4935741402288731,2.5777853947264244,3.775052809017912,4.682214053050994
4.656223293431966,3.9324781488264073,5.747092971919783,2.913771150116036,0.8655003575874052,1.7890190193820112
5.733229727739505,5.701762456973375,4.40011020947362,1.2464839756679764,1.9653720546936333,2.08946535595568
2.1848604494508765,1.859017509389057,0.4560857230585302,1.5971222938879477,2.29360719478052,0.9514580214122039
4.625199149667584,4.130542140091943,1.366461830196346,2.999617736787186,1.6772944088125954,3.6392587896150217
3.1255745289665566,3.9847823694344147,1.8957623727686868,4.611234577020612,1.776377698310715,2.728619445213755
1.9673834876028218,3.228550879859168,1.8581139818260657,1.93906204317461,2.8743526788203764,2.6103325521684235
8.50360920474093,2.615129216396704,2.8204248069284996,4.162376776120984,2.0246821578600374,3.150571046043619
4.3586187764067885,0.913079008229372,1.416822849439575,2.044928751442827,0.7712752900521098,2.412114231410419
7.7113050376717736,3.1121614211798576,0.9810412037959656,1.0042093431924337,1.9703930928704438,3.0596770683515584
5.220612797545094,1.1616225082264668,1.4571359350900248,0.2651656952441376,1.420851912721381,1.926814896539776
2.7777666165480146,1.3467417109787232,2.644357134821189,0.6315957992892998,0.9311372418683718,1.1150624940278386
0.718227440469244,3.259682015548927,0.07350273797813667,2.112337492517161,2.2684232759876215,1.4791017348216706
2.5757982057532693,3.840114232769393,1.1309363125199472,1.6720590082736235,1.2009445532961034,1.5973126297900013
0.8402318445074703,3.2405203020106526,3.929383169658435,2.4287103207672014,1.1534710739931417,1.4620923762484501
4.814444361270585,3.0310212736113673,0.9688141277985424,1.8300318195887417,0.5467352981074795,2.128038269427333
8.91478042974784,4.70816846889631,0.3815455970073812,1.6276427224540304,2.067349762472785,1.8122994004015067
1.687765004802733,1.278907905383671,1.037803843634819,0.31751819283678623,1.4048904629935692,1.1455720503978313
5.215606388077222,2.6850609673313173,0.1061669564338227,0.7687356710194211,1.0456648719250725,1.2663044198872118
3.097186063752858,2.677362425940203,1.3224846506207781,0.258584760435043,1.5961983044056116,0.2873385567016402
3.961016783088679,3.6743919121387765,3.4303522469028698,0.48002192525961873,0.5186110035746199,1.528515438921266
1.9732436474623782,1.7800563683009933,1.5769068385881182,1.251937808941958,0.4175775153699126,0.9847899467141854
3.8924223676305703,1.2979428512243716,2.421165483011816,1.3279461736546563,0.7828268615786721,0.908310268483342
0.8552365266724915,3.288408350222019,0.49809665674350173,0.5814004048520907,1.1100835052019278,1.0500598645469366
4.941972301416632,1.1074841696318065,1.001238273702495,0.7180324546763371,0.6609100859193712,0.8398258524452863
4.560357526609906,2.5174690063439535,2.1507585736624755,1.179381919639909,1.0507775227600529,1.0367103840640024
