Gx,Gy,Gz,Ax,Ay,Az
11.317008,5.798126999999999,2.5791630000000003,10.287999999999993,431.152,38.66399999999999
6.580347944190315,5.28448174128591,0.781666152543962,1.334512435394701,0.6455281719627378,2.441377427244563
7.047146487344163,1.3208788109672494,3.501960494469866,0.7691464969391038,0.6841885142235902,1.672820036974306
1.111726556462298,7.063908547380077,3.98823522714149,1.0087396297643159,0.9858816333380331,1.6142144019160314
10.421301105710429,51.86571407454769,51.433468076219434,12.588009815711782,2.3331329688987767,1.0399899149140195
10.128955150279443,1.496765299048285,3.8716911897091237,1.7193070804499406,0.9857980505031424,0.9191270308311569
10.640602125220099,18.900266120956665,1.9914038916382237,2.4387575739441543,1.7187505140525732,0.2729252877602578
11.428409822184518,4.850924668711175,1.7301079014985594,2.0766873815121563,3.978340560335994,3.93548360122401
77.10252132819944,13.8424441152855,11.690065653087887,4.590185215046537,55.30126141702486,35.86365085622397
4.723234068264498,2.888333112052379,5.099527749667801,1.0037776679194987,7.528371095985619,3.4429820366105353
10.190726341938015,8.838706459857287,7.038729376027877,1.6099872539901476,1.6698153399721467,2.3241433299786842
5.621585839774401,2.5816728935245163,13.346318119402369,1.3529944221797792,0.7765098280113154,0.6884113415085704
0.7669514302179451,17.18352753216663,87.39276408225066,6.176084532267223,2.5787414731952047,1.930061149266944
3.464038274146392,13.059960411619404,17.29725084514449,4.943548378105325,0.34372487534173984,3.5102155159126043
5.322343773516635,3.6520248218692757,7.954173902555156,1.7189472979060882,2.3075623038198323,3.8868615233139825
2.5235312775802505,6.833366404163714,3.361156102324754,3.5326322478825087,1.0293809157625784,7.163249965859592
4.884955769291,8.759371501522857,7.820172084259637,4.19576845093637,6.295306302362185,19.819977479906505
7.75807531642901,4.384404236599374,1.904677430306286,1.122859673988791,1.022569457256922,3.6516517142638953
7.498532566910891,5.324184262095493,5.6986525605913005,3.4761892913563446,1.1816665199039944,3.5619752607310198
5.085163571426292,5.584873588336357,6.884640135050062,6.458620087518901,2.1073540172254708,0.4947693918438113
4.340056972799696,20.480702786961636,13.761176140420277,18.90921458044249,3.5787851169553337,1.001125039110528
2.252446727086286,14.02440819259982,4.368816723200603,9.587210687100317,3.190788042816873,2.3202834215212
3.164736299170097,5.972020900959322,3.166378124360228,2.9816093003333664,2.5384069434164633,3.087591643509296
10.085432707391412,3.9881596522136156,1.9426139042247492,1.6584175674786774,4.561834776655631,7.250928083389116
18.253486749976755,3.028854656530638,5.595306236830571,4.337499442124408,9.568226451740921,11.40592910386395
5.285313480961511,5.342645274656527,3.8485143090960925,1.9218276370073646,3.4369107591218593,5.295904561930968
7.380804943189212,5.213921263734162,5.324663289982424,7.330892039509505,3.462133456954535,2.5909717903136182
7.523100679644291,5.174825909938875,3.9672724189892565,10.37027367260937,2.3436311263222898,1.7195794481643303
5.978862478959594,5.980249695119806,3.0559886744441447,13.48907870140678,2.145256017096796,0.7614733336987607
1.5937896230663506,4.510347730529122,3.5104516521437046,5.425045904294172,2.006199801741483,1.5373826877578254
3.78813719936468,5.088428504825236,1.1236265637314857,5.506830978614322,1.6980318235360754,2.4706090359160426
3.575227244650643,4.451105090847739,1.8318791379811417,3.296437453118334,3.5047327683230636,7.571288664777757
12.868776350970203,6.167557442231717,4.893340459232744,5.632058444535361,9.798480535361685,9.913723427215595
5.299033634485945,1.90205466436827,1.5503756155746622,1.879684122976828,6.697232160973643,7.121844725606341
7.588347603567259,2.6753451728475,6.629241034615313,4.370501079569783,4.504488202359507,3.7859349412959453
3.481410711892502,7.194092448816565,3.5665167801906708,9.186782331683352,3.265972553222035,1.296115393690803
3.3835622412316075,10.352869275808894,13.60828188213758,9.308027305472837,4.443664014751271,1.2126462114815089
2.872595017435195,7.109180471641416,7.261391745732218,6.179653977361882,1.7646237327065342,1.5489620766304957
4.240253720458273,5.41830365221488,4.205928837204186,3.4233461093523245,3.7569852827295716,2.8680498686427973
5.885743969853359,2.5559320272589985,1.6566010938148237,5.0310401776917795,13.2824015831637,7.312607459191753
11.830166483918852,1.2822453839656043,0.9149934415041443,3.7412278666105503,17.544147777889375,9.896575682428812
8.816021445163841,1.83266769716882,2.2708269474282763,1.8813422311310521,14.663294041143427,8.050272793572509
5.668517156134022,3.2501080394832274,3.3613984328993345,2.6314621823932005,11.10903547193431,5.471198709129009
4.229138269762417,5.7399968706066105,5.178637649257656,5.47762547949805,3.897936320421191,1.6644580696475966
3.419336104270504,6.973513799109463,9.086148359083143,8.123241371987264,3.9163404348934625,2.592151643155027
6.7053075866048175,8.619974820728538,7.542871908368418,8.696220919515017,2.9647995720636637,1.1479554842241453
4.1880978120808035,6.013467119199917,3.8485204512418534,6.624813914333232,3.0780466436460125,1.816426844472507
5.201774059577885,3.0518175942142314,1.627789048285224,1.5437888710229453,11.592066979339146,7.853638780595219
11.437061127845388,3.1205293405329964,2.142344324503922,1.1193706375027253,13.008592972186504,7.610870331260982
7.731230873011018,3.477404344516524,3.5555683944809995,0.7711410770594961,17.341729874358492,9.038126621942922
8.59498629020977,2.676762487158282,0.2326999909014463,2.9193532153183024,11.432998990355507,7.302316656703557
4.262217409651517,1.9292394750233528,2.2799242722034747,5.246886220563068,3.9636024324215655,3.0593885457155143
1.8600442601825564,4.58035104897645,1.57226574828943,5.783202473752948,2.3481502202174065,4.6761895659316774
4.979680666723595,7.102509064426498,3.132893900272752,8.258329500286886,1.8993469311214388,2.1015540122808454
1.968482315311359,3.2230429322112366,1.8268633747557006,6.185728656636203,2.8826019639441083,2.433094245826519
4.118812342698935,1.6305837930647022,2.5702511862554056,4.440796991103119,7.357477695665174,6.987102420081783
4.8169431724955905,2.352597103528884,3.0147411537589632,2.446824241733752,6.301494230352545,4.172775701850057
4.807133172652438,4.151433688777107,4.688944269414424,2.0449660881737826,10.221451123600845,7.0484552965923
3.8302210678479494,2.1507912030773864,3.3875810089746645,1.3555012950612848,8.401993239682538,6.059348652189415
3.634248725180602,1.8532616061464982,0.8047331042502698,4.9500149473682855,3.5747705408307353,4.345399408722118
0.41090655722211594,2.286160937023147,1.4463869781172607,3.7598170784330027,1.8434356752321495,3.6772667729212523
4.018498327207666,3.170617362762987,0.9521274991402496,5.150605942753174,0.5792128709417258,2.3110896876276987
1.02706007341431,0.972141073624165,0.8793698655605877,5.644914027166374,1.227859100041014,3.2295696315628124
0.5240529787689453,0.08758207167193229,2.5264642914746505,4.088245985700864,4.322496084539331,4.572230735034508
1.7250142173571559,0.8602390311697625,1.6607740033814427,3.079577276956733,3.0912276200619293,2.572511558038438
2.646056155922789,1.687104574419672,2.5271378839578356,0.9987053419640683,4.2774721896198935,4.169701022553276
1.7464022437135704,1.8626955597906727,2.233094947479167,1.689701780134649,4.638258068928451,3.761843682020185
3.291674049677137,1.202835345592308,2.0386039169576557,2.9906423528865878,1.9834527555158217,3.958643308881633
1.7473332996165094,1.184782939927095,1.9956506336084672,2.363810685347071,2.5859308447559104,2.4029421488100633
1.514986411219941,1.3983287582458606,1.6089136518272689,2.2125210465026623,1.367528889803904,1.4914882295773757
0.6923022683172773,1.620337843952659,0.6014709845821635,2.900534842139873,0.11151988138261845,1.8927282568258177
0.9725377533849267,1.2311531911257019,1.4917097727818904,3.1275850108350376,2.973342227191482,2.4334724161165253
3.1441308347587484,0.7848323819177052,1.655671139442286,1.7709053880030048,3.4666219055241645,1.3154494326927397
0.7230761092430323,1.4487429592988434,1.9419021117942263,0.40410361074386125,2.469900188495814,1.762316414133438
2.785517296516513,2.2502565978403246,0.8936003592413246,1.01142668791455,3.1423290245771724,1.7413909180382738
1.9574993806451084,1.8158181006432035,1.4587312032012563,1.5959181705420145,2.830549881894436,2.8427187576294983
2.349842014447495,1.2580617981474167,2.1867916130598766,2.2224211616757334,1.4021532056122137,1.9277403035118799
3.5495367606686625,2.2348506179615826,1.2742321739427025,0.9757940819134059,2.229266871546262,0.9003236553816438
1.5636051109360956,1.5161048991157822,1.5482439839693702,1.6831754741371305,1.5033282577246714,1.1270325089383335
0.8255722458459873,0.9392546563099224,1.348113744355388,2.3100363313270877,2.0566741001857123,1.9068144362772648
2.6146615403554496,1.5667405546712814,1.9434061564097656,0.9418937247221594,4.3147462303233945,1.4008060090840817
2.440964236818057,1.1581471687915368,1.5485523702860933,0.3861157338634584,2.277915938586442,0.5904112908702026
1.8257436266728624,2.1568588159310043,1.579571604941827,0.8981610312060335,2.8564350467893758,1.3243409185668107
0.14172008838365238,0.6486402529581324,1.1030196946830617,1.1634052391423355,2.641401202319353,2.129129291895561
0.7929384801304625,1.3742705748495292,1.1761076488895794,1.2076865889490305,2.109566574102899,1.6091559040608336
3.2040386952417212,1.8610941533685126,1.2027660209706874,0.9318597643372062,0.9589960277887273,0.35479003987337254
0.7185184820226559,0.6983244480538842,0.8403457828432869,1.1025296420575845,2.0307395530068835,0.5056018675293061
2.812838058747682,1.239975668542458,0.9515121831349909,1.50160502596317,2.1803320700518647,1.3058159941113618
2.0832735580100654,0.4003715461364079,0.9076484136184889,1.2377363311365075,3.155697540498884,1.897817921774535
1.2797769569746655,1.5032495812235853,1.326205764923835,0.22578342247495076,1.3936861532788312,0.4933889709665196
1.0286010685028204,1.4764047009118824,0.9917040478396162,0.5451824218874801,1.7845976124250078,1.2434542603219731
0.7797049392129982,0.3951004180728174,1.0296304941756602,0.5065725840471027,2.7871470785341073,1.1423173066258325
0.8538468632894025,1.7583946511142667,0.42625196191749504,1.1854674358599977,2.2357152263344684,1.39446262678062
0.9866319791200082,0.38712127979824906,0.3982372354155224,0.6566048726809479,0.3093490265908855,0.23541488521479276
1.1790830966504344,1.3523795509997394,0.33351326317620883,1.1268310822905285,1.6844768077425734,0.4473274451564142
2.6325359204963137,0.5595191409898582,0.1657087857397656,0.9754468591370723,1.1867884825701678,0.5631547116985653
1.129699762618091,1.4153141848956885,0.3764001146082233,1.1169323104700026,2.823840989601896,1.1052024359101655
2.0541064368368156,0.7377334598432741,0.7810767736219559,0.24273548430209296,0.7509517170241673,0.29103755867135644
1.1058367671468723,1.7495111782913617,0.32741275491576616,0.4887926852445135,1.2878018616558535,0.7299861022379196
