Gx,Gy,Gz,Ax,Ay,Az
7.337104000000001,8.380695999999999,6.445746999999998,19.208,477.786,37.775999999999996
3.7615438658064826,10.616669616647943,6.263650834614063,0.9116280616541951,0.9983802618454822,2.0243904530810832
5.300768032301228,5.144037666230837,9.50714515537557,0.8956250500793027,1.0912480401456761,1.6158981429233514
7.002751159914828,11.002400058874164,7.7587884956393385,2.0175073881847063,0.4969440380890766,0.7143932873303176
4.267431020640889,35.5818768021874,21.89077420210151,7.307016706483974,2.732131906903665,1.1173658679583633
10.694214635255157,24.609941558031313,25.41836487987047,5.644779826118484,3.612300209416173,0.6645494149108194
1.5716470336881663,14.085645490052846,11.84538886182081,3.793957805896366,0.6870055721862254,1.4032294042444933
4.771651075734989,24.85477992156042,5.606355373842785,4.185454238044278,2.5815906498352197,4.171486002655107
2.962206540679923,19.66543607711333,9.84613531033133,4.616808719383056,6.420739969545281,10.578622414515435
23.793290263033718,10.004527960864952,9.922125812562582,4.093820213438637,77.06953982122634,53.359048673372946
12.362492410695946,1.739955185044068,5.4565401444142605,1.059297434712916,14.48086758932885,11.24685137522494
4.664791959567923,7.20262958747779,7.8482979246145925,2.513530969494265,7.539484819581924,3.3967388981726954
13.081951584350486,16.969214294262663,10.73810764719728,3.4369771411730707,4.969715411717554,2.3017615999651158
6.166735995812556,52.93960025194465,16.387939330034396,12.86259164808059,5.066824525359708,1.563452250463389
12.512252397765788,92.51303562970772,42.92324096499259,26.840043049167168,5.3192830182439605,7.264394345228635
2.8587490978854655,27.939917523874524,6.112976701785986,9.603102915922113,1.0600119902382217,3.4165364311228137
4.401763495503461,15.460244317254922,1.2391951131241465,3.829402419526487,1.908155362271113,7.316427571026568
2.015870144280961,0.9748402583868637,2.611879412231877,1.9129684942712917,10.685151491303412,11.73097678429554
3.9532257560876505,9.306168539968015,8.80198542131778,2.814363075356472,20.41993073544293,28.813947635472267
4.92773509534572,7.177137227016889,9.24153829962291,5.485036875038331,7.34111862774722,13.107921915383
5.494863866946848,4.349745740508476,3.1002884501868557,6.787718634653009,1.8409621010445583,4.141235123169318
9.368966984301434,2.3269157320165834,0.5554770799006031,3.168435909137052,1.2241356999233828,5.847572487461835
11.68983239701263,23.123934629418898,5.3558258706735,14.932709909472871,1.3910277825460762,2.0627557224354787
22.14607680313112,42.97647538531263,12.583611358960944,32.355571679307765,6.015583923341459,2.8945497804582487
11.318227698104097,15.666467192896988,2.524232445519532,10.147953594337682,3.4660788968472698,2.5692896142873565
3.014731900888962,13.861497076379223,3.35664871138126,6.623101805234055,2.6158400065720446,6.991971806126929
11.465940128297719,7.45349123902467,1.6041912279729238,2.3448428805754946,6.985150447950834,10.879521616202961
9.556977138304264,25.185336498395188,4.472283555149351,14.730164667217972,10.609105907893035,16.73518437408471
6.962023643737116,15.97874708357405,4.816468920044355,4.814908193559315,8.248351462809064,13.265551490511209
6.647634584753854,10.072466242193952,4.517914950742379,8.71150757850703,4.040729983663131,4.880468271247365
6.08239828670035,8.132466962349893,3.4163802185439547,6.782436765056578,1.3352729569152468,3.1175581332771576
11.511159824389312,11.09885050415101,5.025752496363414,13.349807695229243,8.066351770593503,2.7250499371147594
14.291857258859306,27.04934403458908,1.1455402666304642,21.691922941497236,9.14341440705182,2.9367844706045987
4.451764047376149,12.092408729301239,0.597334673325727,8.71586047080385,4.866164670487709,1.5251634102776794
6.949505411384088,4.103498062877487,2.890392528104779,3.1708066093816294,8.98096318793323,3.9238657873672738
11.771116260890338,3.013224552527307,4.6168054327316606,1.8030714317592345,10.759368046970547,5.583000451607429
13.198825482272342,3.5237207743528884,1.873708353721772,3.444214394340092,13.620857097439487,4.18958266738737
16.278300444125012,9.170690026280356,7.27024052747644,3.4233134369805693,19.924956283123795,6.524064551390239
8.212320741568284,4.269138206982495,6.6080353410189465,2.5004207342494875,8.780144440157502,2.7629993254776166
3.9768173959039825,2.3020598555746528,4.3161860004139285,1.3733995130749597,5.021470557024271,2.01097394027646
8.008679094655221,11.916903951878204,4.697768427690948,5.818458113560096,5.4317776909514786,1.9557346520239587
8.465341803639781,12.393837592336693,6.722829934792366,8.593886594598162,3.3079028925540745,1.1772729664849721
2.35705653896736,7.296254057140882,6.7709953015087025,8.435561672700622,3.9346295536455544,3.6327261852897097
7.11853313628584,1.1629437529001958,1.8578189872210746,2.8726918828080943,10.008658620221869,4.365187203911107
6.090482915841683,2.5913068207760865,2.9860482671314474,3.442425029286856,10.178538361094736,3.3600693479394055
5.909541848929664,1.6355297922991607,5.54509866522244,7.099053916628825,8.305235705177335,2.5101218533588527
9.940841243374779,4.819194162213669,3.5814398283639863,1.290383288085044,20.532451644805956,5.285480012229069
5.59383795295595,7.557550155826222,6.256933257429875,1.0829221105188012,12.093323598658438,3.6297700682347265
1.6844866320790794,2.293784302141951,2.7486390072473363,1.6791867433888046,3.881688528498908,1.8126809045296557
2.0958751918584513,3.9152196610240675,11.509301947179546,0.7703086522679256,7.350517155328991,2.0960747866316067
1.0587372566981785,5.164677492151436,11.932862933777612,1.44812557443121,4.622637110403889,2.9191448996444125
3.4823513613320443,6.066298974473262,11.993404620707581,1.9028790796508224,3.079361115907253,2.5345318636181093
4.804329638857298,3.3092914036011223,5.240489128200423,0.5020346596321721,8.850708408704305,2.462997970047691
2.446205152454892,2.2606121194791347,2.2891216038530517,1.2741232964002938,4.241048100961212,2.8311408696012323
7.442790402691322,4.136021833400305,5.981932547029129,3.0152254748299385,4.825091303882586,3.045470550892826
7.274707694889343,1.3118517316244398,1.4371489902023287,1.4587383438269974,5.154018841882074,3.387521317466288
6.351824083663137,4.222599379570481,3.0193099097613096,1.3684851443623653,7.2118067113192055,4.067746831009971
0.751688813849724,4.591116517880509,3.167422019955005,1.5476288865151215,2.963401636723116,0.1879393677664667
3.7261570172216314,3.005610585337389,4.572559084419371,1.7653129684375828,2.4396323339053794,0.3046010422434332
4.854535711658652,2.368876183023675,5.3539916447962375,0.7041928080542597,1.5272611692162137,2.675458910447298
3.159433115511845,2.706169753356578,7.186259677734211,2.2222277694732724,3.2162062456560094,3.567794430884041
4.790697653899953,1.0602583874097056,2.1073539529274794,1.4225279144889529,6.198148978737295,2.6246760808814376
0.8042119783071683,1.8790004985644166,1.6621558225138466,1.2218279766201678,0.5144136072325162,0.15961320630384548
5.776882240203018,2.78039189771147,1.9000816635457127,1.304810988360446,3.2679113552977275,2.051463845765611
3.425555361050321,2.218105033840771,0.2366057112897094,0.9093852366550857,1.9196300153193027,2.1511260238604066
1.3273185756115538,1.188007923795352,2.0647642834279787,0.8117660841050323,2.9294602432019343,1.9952660026343056
1.4436341891561777,1.8710573728185957,1.5628535746938015,1.3599520167636296,0.7722857780143059,0.7023215049706599
2.9580585190446733,2.2223243281275975,2.01137867563153,1.352395632769608,0.9025651618849378,1.7927256730916814
1.302186320288438,2.0415078166121083,0.5371883239402158,0.558711282215166,1.4850094439277446,1.105813550153461
3.153306319306283,4.024273837496429,2.859842265498298,1.9621794394748726,1.3465645201902663,2.6808140671944147
0.8760984453846616,1.381769898747241,2.0442771935483295,1.2666733754711272,2.6548986520225717,2.3277690279279875
2.0974973994259174,0.8915116605230277,0.8813149805880649,0.5290657845773852,0.5880414147418057,0.29000316792838315
3.2187736282601125,2.0526034545396676,2.6608838541505166,0.7100498674377789,1.2640238326437938,1.4980310977395117
2.475376638482278,1.5570068387273592,0.6774683814372708,0.14593791467035921,0.662864677684669,0.37318796730146514
3.9078490855035604,0.9459113030504132,2.2320623165966533,1.2465192297529046,2.0024513278813223,0.7553957108458591
1.089880238796194,2.381227844317845,2.004982621635274,1.8290683928857607,0.7587030563009332,0.8312846024203585
3.418861124324513,3.4639271945496617,0.6427422503770819,0.7587979915843734,2.321123664936039,1.3087161804006047
1.3834517281998646,2.023296345046397,1.6351389610165026,0.4215583297217018,0.7979332568316951,2.0955765427556043
2.1150979464269657,2.7860216095684907,0.9655783637349443,0.566116270895701,2.649455896275021,1.531998920170489
3.0539492725315793,0.6303448591195921,0.691010936392375,0.771902512415508,1.3297623567070351,2.013437443208764
0.8878548923899793,1.3837897516518625,0.23607875914106707,0.4628083481687326,0.7732979798758798,0.22091548738128766
3.010757401754425,0.3627951853604853,2.1183331382229014,1.0797268380350822,1.593262705359397,1.4769545899781273
2.499100131009541,1.749225359433286,0.8921926330232851,0.3769497898519555,0.8014702840450559,0.7312046576219894
3.304877756470387,1.4304166204678312,0.7487097179280968,1.022198729254201,0.9436030950648826,0.8083801243597218
1.0708365432930504,0.3761337863946368,0.8779294742683965,0.9727762748582289,0.9945943234413817,1.0907007009138645
1.1051296350645703,3.1896190233593233,1.2570498260784548,0.4347559608364062,1.5744186778840692,0.26731151937450703
1.1257776863321003,1.5900111586965802,1.390969890058666,1.4618092227446002,0.5594860427861377,1.1996292066607332
0.29035776894635906,2.130242295768678,0.32615698413520505,0.7373008482147029,1.7812194229705827,0.2140332493189543
1.291109760713679,0.4757004635053014,0.7124268356919118,0.18219864734869157,0.40389666582491013,1.4666673621896216
1.0910913128373323,0.7693504595523555,1.3209516576828444,0.3669840166673407,1.242430087979466,0.9980062252264991
0.506448656861245,1.1812462043214433,1.21247274771117,1.1578845602785381,0.512488142583151,0.1587309878126359
1.693055919069842,1.361014225342759,0.8639618388584964,0.10210337020229211,0.6788717836802335,0.5605760506944295
1.567748517585174,1.644833729906479,0.296658149995602,0.44492462985897824,0.31566866673857197,0.9715817401250735
1.8821496656087502,1.2452241972094475,0.3070054857005244,0.407875243527808,0.244516557735809,1.3380738853759737
0.9961458036429104,1.289730756068284,0.7933677708619961,0.594148641355024,1.0589617843498211,0.7774167647974333
0.7057749290890166,1.9595439430544583,1.0529319067821366,1.0098396502615523,0.4753281107028528,0.43337349895603106
0.6696856189190252,0.9866936025177566,0.2203329823473538,0.7252243801524324,0.9800889018386596,0.4085025509357232
1.119030949599282,1.8855315204984808,0.5518772163902759,0.4194538198147246,0.35161995148095027,0.9978069431091847
1.4736160860349263,1.2562603638219467,0.9704401806842132,0.5057131833646925,0.7599859813686302,1.107848702206946
