Gx,Gy,Gz,Ax,Ay,Az
18.240241,10.085480000000004,7.111166000000001,29.662,498.50199999999995,33.202
4.21659434967052,16.518222166707336,4.65904189772005,2.4664089713331236,0.5900716942833096,1.444339405281228
3.8649258855808246,2.785634003229365,4.988496242441467,2.8695947346722486,0.48622134729446564,0.9628455435030556
3.688179111968865,25.372460377525115,1.1238913759932316,1.5294472491234314,0.23809946702737692,0.924584298595013
8.53451504492443,27.015677153919185,10.448136341325478,3.4079962092946414,0.4761427464460319,1.8004759786727818
10.168553232121685,168.19814605983964,61.75170237203203,7.727501081951753,1.9271076778676866,2.497260487584489
4.164078760691084,41.84675298483398,16.327620758104377,2.9132535481811987,2.928365615170227,1.4532914956740821
10.900995411714806,13.533275950284192,6.968332017206288,1.2359794925558176,3.1463231923007737,0.5841020699269384
9.04684799552275,24.973275701081498,5.760984337354595,2.902307181095788,6.756534009615913,7.045067488065877
13.431943647802461,23.97379169290527,0.6932254407340136,2.806269895401887,24.934309615387157,13.348517173710494
36.2994795790991,10.832338709677078,5.257266409103917,2.373195720775082,81.47270917805774,41.01879839107749
20.05203523596479,24.46091375180739,9.834473137498843,4.195541637197112,53.24687680430499,25.772996922959198
4.461726894842174,6.421866997771177,5.130020155626282,1.8204947340215472,1.8638301513574966,1.6084164006380253
5.18019391467578,2.0829340778299947,12.20954116627302,3.2977434957771505,1.5198536755456675,2.712704603225947
4.316737484384641,14.192330024550092,16.519938905462215,6.807940946097315,4.257346542760242,2.3388021840401807
14.491374183051036,41.538310507954925,29.035987147441755,22.325474649127198,2.415059563548756,3.0096298287431864
13.698971912541358,59.89520152517068,37.568273012483715,30.659559621847627,2.3072815593270137,4.137767634467171
7.319335329382457,16.44379438591118,0.6642304044709921,7.249392852645194,2.6852185123323586,5.054843906105087
2.243667862011197,11.65102378700971,1.763317797622857,5.388216196124201,7.463430739902587,9.716623118806806
7.595036392106256,12.649650944375185,3.0293403618259838,5.591752778534661,6.949813586107282,13.466056631232817
7.570153219174875,5.382838067732471,1.833879490409972,1.4777377597901507,2.7587706018965354,9.338754839557089
26.872940187032835,14.816119671595173,7.926876183098999,10.691897028445787,23.049125143938845,32.03715207495168
7.664324876626791,12.064631271738762,1.1497180699847918,5.315370661355597,8.490714960227939,5.659036296956793
5.110763472257632,2.737569075727589,6.142818901183964,6.574220601668074,2.3659645759467276,2.6605264090521934
5.606532928018631,2.9270088904325986,2.567134061300899,9.420005264781889,1.4710858615687266,2.5391086694785994
2.5543512547788647,3.292238392546328,3.3277429516954866,1.90816555165668,1.5097522393836207,1.6914596580706456
14.903560195106309,19.0890080403758,11.929762434916022,22.116726657908405,7.515964871709096,1.9814565515688194
7.794524308584229,5.938693374661058,3.219409703074457,7.180341836902369,4.523526328678223,4.504925138896079
3.6578393778984246,4.4549075060605485,1.1736634138640252,2.29564457082488,5.492011799837109,3.488698329949088
2.5742873395501524,3.933502384653301,1.9743322396721388,0.5308778650905828,4.601703460181974,3.3511922428250154
2.807219462521764,5.668220325936928,1.7057220867085803,5.672346923895446,5.582789998854835,5.09975795221236
11.664523101502903,8.416893865079453,9.575652709967681,6.394199697737926,15.781439478258443,9.964955738721269
3.968359443488756,8.726589887545153,7.369410514717308,0.9833341828817513,9.32127527163251,5.040773329427874
1.387836852702652,1.972958966989357,3.2417220775082116,4.908348972530615,5.4190748837012235,1.4202799909429435
3.9213158296845156,2.473574521938827,1.5208417977962394,1.5196558801600382,3.3205263848367585,0.35993206844832315
3.300118330525044,9.552915340480196,6.673153541243003,1.2167506604887115,1.3220036235739263,1.200906169059956
5.120020451364182,13.24647177654081,7.583782871195506,3.1804944213711144,6.283892384732552,2.9617060525558143
4.014435021704687,10.260026831095121,5.923301216826978,4.666355838570372,3.7642363368188017,1.7768990323522142
2.3575108016966224,2.4758222273293686,3.102843944393276,2.359645455831584,0.4013556361340198,0.9954728039096071
1.2171011589566465,2.1831588408220384,2.486857825354111,1.822973503041763,3.603633742104395,1.5260428462078999
4.248511389108715,4.846732012741563,1.6817036197651967,5.180872264228827,9.027889997195215,3.823478194779491
3.823138590221087,3.4506286258660057,2.6814321550329847,3.1117269876692144,9.307923942965978,2.381428455067197
3.172128081806379,5.6479630212666905,1.9519400292695905,4.740490182775016,13.017323140181322,2.227821269865497
3.7315419085645383,4.366428577834089,4.8514423846557735,1.1157971011420718,10.46530659536163,0.32405964787748476
6.2124374384820396,4.775409149647012,0.9686495337338293,1.1504259483360262,1.884090242077434,1.405794764714801
4.015932686417862,4.444338792463725,0.5225316537161094,1.8357102624958597,1.7708264997129948,0.8544275553010143
1.1808820080250788,5.151103729712969,0.31271280687640407,1.5907854877824283,0.8618435508286084,1.0655327563782873
5.949186205683338,2.1818349206068746,0.4144120484789663,1.3654823768391164,1.7105574149285867,1.5482908032560254
0.9984268071583045,6.032520957617949,0.7978686034107724,5.246097461573892,4.599269822659919,1.0028736982409954
3.594713431488549,1.6688150057435045,0.561232194989797,1.372560036798494,8.290687139494269,1.8514689943749085
5.892612205830265,1.4003807739521894,0.9790489138037587,1.160330501452108,9.067234127628682,1.708255390903053
1.8848500676325475,2.138005102016967,2.383406626419288,1.1804694119209223,0.7634330913190472,0.5094421652774107
13.91230719424883,3.129952417456634,2.5559577115572956,2.9187948511347663,14.88941840799565,5.4888934725486775
7.421839801410108,3.260054414819903,1.7512127247758829,2.6180275586870714,14.312653428084204,2.785950789970389
7.087129256880633,2.302929864993938,3.226119101709396,0.8221780109194882,5.401100676006019,2.064250193680219
1.4442253450153077,0.8587267039232591,1.6595525397312798,0.5783810046316491,1.4822515403109155,0.8937756907563907
2.8037125419724713,3.5338542922644316,0.5554614016209805,1.305169710030312,0.6267973952724354,2.2341422403644486
4.088267995797245,7.290343546940694,2.6952954143452668,1.0064909068709953,3.4130739458243244,2.078963451636334
3.956919484326931,1.704947539875842,3.20218958787529,2.8943245431833895,7.486226621324746,2.911095970663247
6.321885550845777,3.5210675464671457,1.9199279459759195,0.8744927193696383,7.047219777049003,3.0245535313404943
2.2657743998983557,1.6719611994973542,1.0803628442845452,1.4953584578552241,2.103596786891785,1.0565631211285962
5.029779205074724,0.7657789570158988,2.859022001615296,0.9324878642648256,6.023279507646282,3.040397142021851
11.167527606639515,2.7130421271833347,3.871827236463579,0.9274883620122227,7.30562180635611,4.798923798324385
15.274852666032272,4.0529671833281755,2.0279908205611537,1.0797821538976602,12.333847931162596,7.409007420456864
8.18577885219719,5.667751791228692,3.144946609157636,1.9968093350382812,9.706443891616642,3.675421557504536
4.801484104315342,2.859908582647129,1.3621267778741195,0.549127550941046,2.211894830474988,1.939725257327544
4.1482635247787485,4.230767034877014,2.212421926328128,1.5056177861968398,1.5750909583075619,3.0725432284009
7.231984240894131,5.888249463234978,2.047818675382267,1.5727697250031873,2.873305514286976,3.110617384388755
6.112746215248113,8.375835416286716,3.2292493426662894,1.9430617534004633,3.4481248955366954,4.483445888738197
1.719674696477698,4.925545991396857,2.7238154890192185,1.6681899171155314,1.768028752852252,2.680825838738499
3.076505635450146,4.291679278000687,1.1323624136697517,1.6565037516697714,3.7900647198715194,2.5939250915491936
9.345107020867852,4.552732582666904,1.8668460941363343,0.9949609261967819,3.9032298286050318,4.621726515402937
3.8645194629955086,4.907811949147663,1.0512109535373577,0.7846027259894333,0.8711869883791911,0.9178754932289672
15.183522385520703,2.312527766268413,1.4936474452851816,1.191122405707119,3.8167458674780455,8.118939361445891
12.357286527220841,5.111184764171996,2.633715764672919,1.5236890370107663,5.453336919291412,7.522220864157728
8.929784614151776,5.70464110900655,1.6881433855402956,1.5428547113177447,2.5516394229995387,3.309921954597648
4.125280755575569,4.441760824393419,1.5721117735156298,2.1695193720894936,0.48385954940072157,3.7030453158485983
6.2392461202051415,1.4707511515321539,0.7383182645575217,0.2643549980858315,0.8418578991848874,3.138965518373775
2.9126904648915235,7.076158890542056,2.1190340647600983,1.2691734266367811,1.0279608138524448,1.8678112808129828
6.67124265820798,6.6408689231957485,2.477170499454113,1.6756073511052334,2.928737421943495,3.9389763103376576
6.652386348981204,5.252298530623451,2.202248335069406,1.409708607740966,2.1453386834843684,4.46235112935176
9.536201387564137,2.747173354028241,1.7553931447043916,0.29437933691047147,0.8630422458035212,3.478392415515205
4.04467779938351,2.98342379475459,1.2416089665132222,1.259173687460666,1.259111812663323,2.7346713583072293
9.7927998846263,2.195386217116773,0.473433952188761,0.6489563897323066,0.7223259155592964,3.0630110393721663
13.624324405500818,2.8076114350598416,2.234418298099184,1.9105901702527042,2.342794500000807,8.377154416813841
13.48815560278369,6.144345767020284,0.9331748913081753,2.888690366930845,1.0687738836546237,5.1616251783260365
0.2939228821073094,2.2117765143579,1.8639426694681551,0.5216311000611374,0.9789695915688841,2.8060465729423285
1.8958904487865795,2.7164479053023185,1.1522220615066139,1.2219137978297865,1.0400199930852625,0.7725860578566215
6.629738124154164,3.1054396230946004,1.2018805547270204,1.039416780062818,1.1268353553562211,2.123284863782007
7.2703985789800445,5.1278925918125084,2.3459186361662625,1.8333633003760603,2.9746272192682337,4.93930252296359
7.325639350880347,4.48286414691306,2.0676945876185417,1.4865862202378137,0.5870373211793077,3.07384465752218
1.7608745807288344,0.6362479988995189,0.5966022708616242,0.5424627682664007,0.8114662644821761,1.109228113166662
9.354607708738463,0.7926902045243257,0.44139807442473755,0.06535321440860341,1.1400280306068042,3.462980337529241
5.175945015387437,2.269288019517414,2.190784249951343,0.8869289635293933,0.6875596596023695,1.1203393011130354
11.165235658098256,2.3675576434568515,1.9698453355390084,3.360081093881298,2.8387361067186068,6.371287487845061
14.928610921743628,2.725675097144547,0.21875650773996205,1.079667926234789,3.905271460233631,6.081150745982266
9.548960327898914,2.5245133410327782,1.1144117575284473,0.8722059396026406,2.533589771395988,3.5866921069022704
3.371618908144416,3.794341106161613,0.9911985948399149,0.7625520507453721,1.451568637693065,1.0141536928689692
8.472992029297977,3.103933125332776,0.4557333705303403,0.6112750508061984,1.9106407069270328,2.6571277145605343
6.489619599285622,2.3408898114402836,1.0308402160367496,1.8072916047428098,3.074615407952526,4.652134612598432
3.5690115840173124,5.0321603473441385,0.7681006451186516,2.361924865107117,1.4605558384286434,1.0110698143044128
6.8086034499684445,2.813769316941586,1.1221074978601264,1.7957466728122917,1.9560337276558777,2.1270418825187543
6.405893484022987,1.771307245879237,0.5138231841813208,0.21604850760212085,1.2716396902902696,1.4242526552146373
7.23487887758453,1.677703884177994,1.7992148940702075,1.2270558066370607,1.3765568544055695,3.350774395514392
7.387001527770781,1.5568915684159992,0.6830920232561626,1.8310146033063022,1.8538913140067228,2.9839200732715985
12.81251254287663,0.7305255089665504,0.49334298181540487,1.509507057477264,5.496192490347389,4.9578764348770585
16.61735460164068,2.888479672925902,0.4983243582829583,1.1797947677804808,5.91608116956317,4.019433577986474
0.7937011569292353,0.9874402497765702,0.7449252762330025,0.1883844732859407,2.662821170656954,1.1081795207084744
6.512748840974896,2.24530177184417,0.26329203291496694,0.7536789880462422,2.3057162291003634,2.032236838838004
2.8800418134329857,2.2200653752567763,0.7623401969625935,0.5667435131205549,1.7930067313894136,1.6837410333592089
1.8400337739737342,3.1858115032176997,0.5606820384837208,2.135729641194794,2.018363453044272,1.4198871908201487
6.772701486737937,4.126896249309274,0.579070409405236,2.272105486433391,1.8887490089600054,1.2607919009919626
2.053896746472592,1.8884948594593838,0.4825455410035822,0.24614240963262857,1.09081090043508,0.12112560663864508
5.776843606674873,0.7284245086633714,0.817270481998534,0.7880577280493561,1.5122855155064578,2.0020965235029955
2.5087426707136027,0.6087785220118066,0.5797156360010775,0.28495851919392895,0.5533168955828811,0.358993924769529
8.858396872478,1.2378980215274336,0.8504814661451318,0.9981307657813452,2.9185435205599415,1.912478639299857
14.023782291735724,1.242206570625406,0.7720073489928627,0.8349139584263308,5.571286352621753,2.317747781531172
2.296264141575667,0.7863751036582853,0.5252052830932207,0.18023439100648894,2.4178579762797225,0.7407944996590554
3.1663825267061134,1.8950362857607885,0.17643050234059007,0.6080287710809452,1.3246784075502893,0.5211967528787828
2.8046658026023867,0.38506799763261307,0.3802722693616781,0.2651807167250864,1.4342089840646135,0.20338895073143476
