Gx,Gy,Gz,Ax,Ay,Az
2.352800999999998,11.198805999999994,3.848278999999998,34.275999999999996,560.8960000000001,25.956000000000003
1.4148622423778732,12.805218636054915,2.690629667908967,2.824496936433604,2.06994461582019,3.0232692501046285
10.64872830943603,19.819792489685696,4.055670967957739,2.7194973982572668,2.1579324149195878,3.544725697198565
6.358897588742481,19.467169321513094,4.627671181342447,5.399818563448234,3.3648021649002207,1.325286883693839
7.098397950296669,47.53669792173233,8.335464777390506,2.0502970986559377,3.1373916911405013,1.7898833455042797
17.024585216808518,169.8505153388763,26.546155672074413,10.929948029897261,6.796321200361393,2.143067666651259
24.809744074512906,64.30884165044007,19.980141885657055,6.060518618407311,5.849782625368484,4.583624516856771
21.20629409601634,29.534728070718064,9.101960297965594,2.860316643164688,5.901918657934181,5.898017750640987
20.30922469395198,18.6102475086312,8.50802491206007,2.45201570386641,8.458525941911905,8.830087914446434
25.69844586930406,45.24338059705875,7.716470080980934,4.763878399250993,22.373694258083663,14.41597704108008
51.48339723946164,21.676030741432488,7.305118317244265,1.5444778469062326,52.454597520165784,28.590069074968202
57.55692950679835,11.948096808799823,10.862878297021794,2.2537647535671113,58.635394609567456,38.95779938966454
21.20594583695971,19.112413223292826,11.120937217442693,5.053123073343548,10.196762416530964,6.66996074257476
1.859672924881999,8.380150684760586,12.245658941585718,3.2043328290534605,5.861503074606719,6.742305483123205
7.921840111869035,7.72518997047563,15.342675844413284,3.487485122486875,4.855533345742093,4.712393665521263
5.085594172921805,11.315520076474476,10.580703826638468,3.4135154377925354,5.028999470075108,6.709212940113714
21.384757136977814,97.86287746342978,48.2315361524682,26.145728743779067,4.723769661676064,5.808040264061096
11.07442571907421,17.1090971722282,12.372468481918387,6.708607508649512,5.867026550386202,1.745567143679053
4.076159183707948,24.63760968228767,10.245025912747858,6.6280019203601395,2.727120965511524,5.802547794751301
3.9515049035779146,22.877281259827473,6.382622475777001,4.658977478791325,4.076915124649952,1.6868057427588588
2.408658827905988,25.283984664975666,8.92478107006749,3.160294241545267,8.115797038361714,2.3864687465080716
17.519164400201696,35.88160156758457,11.48600493509704,7.714799265007378,36.17637950545601,31.871358914582853
6.417209003594671,16.144905615456523,1.6134737865910849,5.981037312660613,5.803673162417174,9.193602078868386
5.383184824093484,10.614595675704267,4.7112961611453334,4.292955703422234,3.7076554754418067,3.1896026403469566
5.830869148113352,16.936562694030954,4.635585115577308,4.916231298547576,1.5324466250739446,3.9258310878598404
4.462780204115301,40.74835046348499,5.730434010530947,14.575397614306842,3.482941834787072,0.9562807373168524
6.682668241667015,70.94064526588318,7.2591292458215095,26.30464980340702,6.818996066323455,2.850358325985122
14.892808008617475,64.91957116007049,6.297510493571123,29.54326735325349,3.2559450296340016,2.011410332809245
2.5395692019889657,15.300588091497653,1.7068267194992952,3.971383752920238,0.5335315182718209,1.5832196846394
3.988246698799849,10.828955664917155,6.516807617072175,5.517140523281561,4.3196440308023165,7.088843318017761
9.519605288286014,4.2026837008602635,2.839235652830706,2.5505260316418155,0.8418036536413137,8.009427264798882
11.020934574533632,10.869760188363136,5.155346921950588,3.7414448374771347,6.44229054694744,10.792194792187514
12.062406482547646,9.798152947315156,3.4545917346372983,6.876194649205758,3.629640063155311,13.929987649525625
2.5567796328010273,11.318394403124245,3.7420564879433247,11.513047484970418,5.622389669987356,1.622196602499633
6.1004253447297465,14.805769531166423,5.531349056123281,6.448154380177578,3.446781080824399,4.246661200227615
5.955196667738543,11.47798926262976,3.8168216362144887,5.938462253642149,2.2115544175349626,1.4723733373661996
4.6690546932137895,15.683189318518018,3.1749954724006044,7.240577317271501,5.151614853117702,3.984120078909085
11.28855961343022,26.399893663627743,4.0245839742222795,25.525894975085727,5.352402947786643,2.0413567676382147
5.0861434118572575,2.1040347158450543,0.8522900007662823,1.981294138169718,2.758882625586299,2.1315628443675245
6.567692538398773,11.022533143655268,6.544737481403748,7.161465867910994,2.399598342419268,3.749238333709178
3.12973520115191,3.8840731220807387,4.146424931136865,4.2212069051386,2.200151191549801,1.4441326285592206
4.505113454155877,5.535566860833922,5.5385348595263,3.516571899498342,2.0584170423495727,4.714490061373626
13.803568514638496,8.557905142609618,4.535726935558264,1.4210396370759808,10.399903286058322,13.872834936445942
10.609407375873474,0.5116773406210493,6.453545499375907,6.662262189026482,7.949155670787234,8.979775037556758
2.2027971796071464,8.625931472273995,4.289844932377176,6.269031262012645,3.1215509672665886,4.717443784829452
6.5212216026565635,4.336600531575494,5.2910643209038035,8.585981218209248,4.352842193947956,4.481295790133812
2.903836794796374,5.256289439125917,4.308678517192071,3.3208841143024377,6.098100318323051,3.467487016454285
9.230169086409125,15.173671189703985,9.36051532715959,9.698414212179808,5.217500283756201,2.564610820806909
4.421465901775508,10.952641570779003,11.893062850584029,3.505054183612844,7.462036411026286,1.549382559808617
2.184921845433018,2.129690300209764,3.6672888386875844,1.322201927434027,3.1147052362392564,1.8397880160943836
5.837324092929512,3.354113431796687,2.261247777298681,3.2326134527434136,3.8736398794320004,3.910549491846261
4.513882120770688,3.1257699311462583,3.3444639998836596,3.028177133930269,10.49276238148958,2.628478713116736
3.3508652626476234,4.9557935618992,4.267548002063543,5.088694484119704,11.254436406842618,5.166484829280258
5.843471642885191,3.7713994989421438,9.557281258512285,2.9081632402253104,15.72626286233764,6.219422261531563
3.905435435610136,0.8889490331194838,3.296605105870331,5.4450839989843764,7.3564680644143365,2.0544187704737356
5.737379624448483,4.5394082581973585,1.460820484111023,4.390154965564401,4.657606889433823,4.360100830795635
4.493668477089223,1.5325461533836182,2.9610640484684194,1.5502016853140208,0.4745619226584539,0.9353321817935646
3.6272137705819607,3.135998100440197,6.789465328959575,3.472604941646157,6.073846081723607,3.38267708554919
4.098576308514598,4.238782455912854,8.095469819945912,3.642445843145585,12.13307189521636,2.1806967129085226
5.142964753645561,3.154709621857461,6.900166688592062,2.8153527872266775,2.0978508057094865,4.294923604547988
2.851401855355323,4.963979492407801,2.5886666617710152,1.66416500900791,3.9940916401244837,1.73419869458991
1.185563386494797,2.307885094020008,1.9423060111984716,2.562557475908015,4.140922531364144,1.8108265186505927
2.259205263443715,2.3870534748740266,2.9895957320427544,1.8582724463438314,6.404798361387286,3.718051803122683
4.713627883856496,4.926646267596538,3.486458777314998,3.950473368563329,14.455903478041698,6.72643892861465
3.9454262260588884,3.949731117347773,1.9613567146103983,2.8339196742703643,10.81306130239489,7.370894793301115
3.598909231039284,2.9347269432771186,1.892846455207811,0.41071306176875194,5.364611442326632,4.857738886255478
3.702379114153664,4.921360827889274,2.420527001153736,1.3800027365249172,5.3884926181504,3.2274743071115086
3.109401038912122,1.6980356785485835,5.387924947474777,1.332340095404002,5.496771742703853,2.5857105998945165
3.273559947618139,6.419774703043442,6.920429180496361,3.7955686580172734,3.8351706835576334,2.3934786712854144
4.893723347166406,3.2282051255513484,10.821451855327856,2.0224626035338176,3.055885813054326,4.262221253185592
2.796201729256039,2.6192767499376646,1.219795380594579,3.082455753924973,2.795367578205967,3.492763440074191
0.3787140034113237,2.794941544572444,1.737687811620645,1.2301150354101618,1.033928425699118,1.5079266537806546
3.862480576849376,4.17978749450676,1.066756257144352,1.2591020860892248,5.445403434256288,4.432720942119962
4.994677707242401,5.641717934790439,3.873693233873253,2.341626723827526,2.494182750510835,4.419263604242838
7.8438726650008235,11.463402861543926,2.803672631979349,2.652767161687357,6.711681260911504,11.871473425753031
2.5952059422079357,4.570088997465329,3.4438796889476513,2.7284782193218677,6.601559995397413,5.070771318798139
2.9043343566344766,5.096875587855098,0.7263156909843197,1.273988370753065,4.009371868852346,4.296457317653118
3.8510624770388677,1.5253643706870292,3.700175867979277,1.1212293638302322,2.001892313977711,3.1857567169327314
1.721924538246684,4.958227317377639,4.523890589696037,1.3425554018483055,3.4759249625839614,1.2342656769368034
5.169801751359527,7.536224957730767,5.9248753077980965,1.7139895892948858,2.5125464689147785,4.885890325094737
2.7698573452508652,6.594143237000521,5.3449543205689505,3.280748962596403,3.175075750247467,4.3511321168094135
1.9372419680997524,2.574600937232833,1.7593391753765335,1.0538021721334296,1.8058032059995992,2.0842437301795114
1.803740007129494,1.9303017084485223,0.46721930568819325,0.4291166093729184,1.341931230470077,2.4631226885900364
4.832407027414916,1.879522759523483,2.296339576641319,1.185358724921351,1.3652810004014246,3.582475001011934
4.492027565699623,2.993788317969886,2.1151925854216187,0.42560788232210084,2.371668848134097,4.333076739408227
9.289873639371061,10.482729172537322,3.713933181967337,1.7869591135973677,1.711112391290704,9.499955775468703
1.6820434281509782,1.815186106152321,1.8559192195073,1.197202857731842,1.6961252876053372,1.3678986697489766
2.016578957365367,4.390296565799999,2.4097128225264437,1.458935454156763,2.040675253065057,2.235869435102438
4.924896383747554,2.069904255906298,2.986641749888804,0.8437230490983695,3.118979502561613,1.8974357253449579
3.6658411945623026,1.5648174850355163,3.1570839322668274,1.2168672427873237,1.0666946933971766,3.302305836263908
3.60089782812221,5.910009853829356,5.4585509302247,1.323342406625556,1.156812879140447,5.070804934377104
1.6672719007407255,2.471903139163919,0.9439652251385245,1.2093266753934766,2.941782604441925,1.5300628993420888
1.6851341758620393,2.9502430472000487,0.7021653556467677,1.1951647737645101,0.26176415456120194,1.7438068022572486
1.8092244773411204,2.4139619564134702,0.8418005921053742,0.11216427962171249,0.4564706193746008,1.3547806907049607
4.799814737053628,4.200153552062258,2.5238513436352665,0.7968869738882668,2.548150783715935,2.888346543647409
4.387896080609538,8.006683285165023,2.911669045426127,0.8867431316205273,0.7621679110646328,3.9312095029339478
4.515667183709068,3.056858317717502,3.4415872517522255,1.2613003762411525,1.9805907528033624,2.700022787616519
1.6026213913440848,1.3726046842526385,0.6691976648335786,0.9461408506103027,1.4608683720918316,1.4788123115332932
2.3901196068498485,4.470777879955018,2.613277205443315,1.3209504022827854,0.602893635564182,1.060996586465218
2.347628360240137,4.973273498731157,1.3493744502408154,1.570807338108977,0.9245564768610475,1.2095565957212133
5.539771344979859,3.9278743720966642,2.4567232265335233,1.4856189224122216,1.3366276518422535,3.961644892651557
2.557588229225183,2.5568922985338407,3.2596755003111837,0.3179373711330958,2.6580230521899426,2.8600110035811612
0.6359511030843886,1.4003308245060815,0.31242801618610994,1.5803433642348397,0.5424916294510659,0.2749829045724182
0.6448145519711562,2.855739008072692,1.045914340650676,0.37227982944708565,0.812072451378094,0.9532273309266048
1.8151868098838624,2.062693035219903,1.0580406119224808,0.8804404983335317,1.502475039497989,1.451748018900952
1.4803275258069946,3.067374185177971,2.209056695008584,0.7386637008194121,0.71965737737612,0.2975783398431902
1.7664069578677324,3.970778697739657,1.5274729900124298,0.701426715970305,1.7109977326915964,2.6268218714261096
1.8818895396523674,2.8212983360426827,1.029292179248086,0.9349726200911491,1.368087222766729,1.0452783967176718
1.4332786850672887,2.7277368389741707,0.42712543449879886,0.659611513087986,1.2527858700379557,1.7059112594671633
1.2206417273592536,0.6216983080104422,1.9194654206185267,0.15869319961231895,1.2243756393984484,1.5385035871287727
3.498076090285521,2.6495336833283822,1.8562374080923258,0.317553182102831,1.1426215980481045,0.9918676520186488
1.8916619093327418,3.5010056573022568,2.194376382456753,0.5626145257037375,0.9758941185310168,3.3668849366101092
2.3807378218746202,2.5210219723923015,0.9632075566389317,0.4424499353953044,2.1080354035804185,1.9915112777927475
1.009472978001286,1.1826472859956232,0.6283317380424489,0.8213087237928534,0.74031792787932,1.1937901708935756
1.3285160057374936,1.4553279406053001,0.8900322035046758,0.30736602844977823,0.8733490601072387,1.942819573066225
2.183483280481862,3.994486274436454,1.1649445514077132,1.4578601719597397,0.8904481748554685,1.7542144305007492
0.6564881009511981,1.348945265128113,0.6960315027269665,0.6136786636665569,1.7067452023830485,1.1837797579443663
1.8152887253831587,2.9037810798612327,0.7317736307221451,0.8447918477100351,1.8854603798900251,1.248704747845701
1.9898641419525696,0.868731475033854,0.3666442845314494,0.37812854509226324,0.6145297875356212,1.714425963567524
1.392628248251846,1.2010343854087064,0.566578852033239,0.21767232827527103,0.9671520894240597,1.2098444987029227
