Gx,Gy,Gz,Ax,Ay,Az
3.910277,1.9419729999999977,6.1576270000000015,12.978000000000002,448.79800000000006,89.896
3.9934408773255297,6.948733329946766,3.4940754725530607,0.746808983989079,2.748822391929326,2.510947244621574
3.9140802653489315,9.891894617312664,8.919375634720623,0.8836731101837443,3.43935890655791,1.6201868096086511
9.989855008001237,34.38184778222218,10.359773300017332,3.1341820384608425,3.337112476524392,2.1929977841216397
11.56462792982849,25.361056735139627,35.0030919332007,4.9401350649173335,4.021486946436591,5.167132490391252
14.708085651497935,48.008600911738355,65.88295757542238,1.937775354065323,4.897301079393219,3.204367706340668
5.3942113412852235,29.854036850467715,5.28287333921556,4.354933764882714,5.156301281505125,3.15506800560194
11.605456283557375,9.166804187404637,8.270635787480972,2.653432879777536,8.005648665680487,5.265068507198991
26.32721857292005,11.46978271477447,9.137035869867287,2.5776507599936664,19.7524707067109,17.194287113514118
49.65618476502194,12.156244118895078,5.828020250976361,2.6861367841373838,58.21732881155091,47.04381386492696
36.927132335506066,21.99411052205635,10.185236625764349,6.768059189704636,37.037901881857834,35.22876619843134
2.3114817176534883,20.70971288466256,5.552935599269995,6.918538923017065,1.7174072698448961,6.452779578450977
6.47840704524891,12.233022478784681,8.866774277834994,2.6493655053256155,5.832397046845968,8.666142927671187
5.483587273963881,22.234424104545834,18.56171875474097,4.84621197317279,7.483275537043665,8.43766472410358
27.181905071162912,154.49963686844015,65.94437352676348,35.615690837412004,14.203123568725506,4.547324001520402
11.649960899115111,31.045470387573378,25.417665743959972,8.577550017981622,11.601973942925653,3.8127324647184127
7.3502526413808855,16.15203116200727,7.618768948285251,3.061635025469607,8.4786043431956,10.387741842735192
13.409100542058825,13.551044184534895,4.752377787762938,4.449665781468666,7.868424403661249,14.836319181300597
0.7559746840300355,19.386561497876897,2.3966680433554535,8.038358959636554,5.82878357255788,10.543791680462745
24.5129658189319,23.98348612412841,6.788319505651746,6.390727391241199,12.724731044594826,35.79413065482156
5.868717519397575,9.9466547371503,0.41710980039993834,4.241187602617886,0.3441164795154138,5.029428509791279
3.751275219091492,28.74994697949648,10.478068892584854,10.710003189593294,5.321614456340888,4.5532939164298485
9.687941914422508,23.816739409771024,11.712420795928725,9.564821696391055,4.90355167824544,1.7407076349967956
3.2917615399952926,37.343527034768435,8.570764380691381,19.110567959922232,1.6965019860013804,0.9339621664415318
4.535302781422921,37.408836119387395,13.125419376895524,18.628354228818356,1.184835061312006,2.925675753753889
0.7308639373116221,2.536396781482988,6.951685954281077,2.456571749920337,3.4352349540386484,4.987503302621902
2.942122362742358,8.204644829886423,6.581287602556207,2.876019381019351,1.7810128746113911,2.1552961751725346
9.304834688972555,11.28938074648368,5.9691913401424,5.57100997353246,10.580596694921576,6.854806215085918
18.227006513171833,11.163332931077806,2.4994944270829302,6.469305333753824,16.564356629907426,14.060082668375056
9.163353931153708,11.990099290806958,0.8356816955155706,6.232135588065601,10.808314179104164,5.292142849364207
2.947570059123516,6.146931141651136,3.888217906909092,8.446903084466143,3.4058373192477425,3.5252386062235406
2.8482443372820647,3.9301104395487267,0.5719986742545299,4.838130454482151,4.430751031037646,0.31524615273578777
4.662368275297303,1.5235627616834029,5.431381019404228,1.7705872330194692,5.62476094889289,0.8720810305353526
5.451441916679607,16.638250937545365,7.639348530777529,16.65005134957649,3.533316807765078,2.632292142072335
2.747596354657377,9.825979556071408,3.4469926041701657,8.622539010628408,3.5065486537606736,3.5870816186142997
5.922110424354219,2.5160977948782484,2.970954519071221,4.569868486105083,2.082975141537316,1.6099967087072455
11.24965440240821,3.4728121125759226,5.2193094311311095,2.463168542465262,6.982677131005537,3.9647464775460195
4.133787734845339,9.200198575464244,5.604936826269138,6.184248213816738,1.063085442118096,4.1313445994384
11.294743740005982,7.653854279554101,2.9272876093961133,7.7188150321755575,3.601545619988104,4.48428569904195
3.908750208364078,3.9797715244353733,4.378219390956139,4.313996712507842,2.20550945243532,1.6266113687881172
2.3238207428668223,2.376979143712078,1.7727893055022983,3.3636690033393197,2.314071224112769,2.6229722792909267
2.629546931464609,5.083389789237609,1.1372908259697279,4.164284200003888,2.4613607210543247,2.213273455828823
2.978569249273764,5.057174476344489,3.6429364237579196,4.867427942963208,5.676733699590705,1.7203769571322092
6.993531912256316,5.854219600664882,2.41565803532431,6.157624141043021,4.9663539586068906,3.4638302376491468
2.209855379517901,2.665185928708185,2.7020981026928306,3.0194807570874715,3.4337534431260557,3.733151534417582
5.703645487476913,3.510147939393308,0.881789929406481,4.912904502463729,2.9395904722454054,2.4754612265488483
3.0733451162613443,3.805319399300224,1.4388122533809895,1.0892034845425012,1.9446232766360823,0.9869111199560345
7.9384315338398075,1.166786951151794,3.405065651644361,2.554301280297411,0.8847934222347542,4.988384151929299
5.281170443679518,5.234159772065239,3.226359060779152,4.558581552235699,2.6056864272719085,2.8894409185767453
1.395963728941278,2.6563352244157246,4.589135515844392,3.299735598598754,1.051273602198499,1.217374718185181
1.7593806184574745,1.2280227595214375,4.608150264601285,1.3700713569489023,3.117639492928505,0.15942472958430898
1.6961617623783831,4.110524160702327,4.149113309612568,2.7504438662661035,5.426516180590179,1.744281337209082
4.575443600341605,1.5371584064952208,8.147740979071024,2.6194081597783665,4.843902537176707,1.8389480501990818
2.0184125877539487,1.1127201831450608,5.414658873077903,3.0210310459441687,3.622134960908131,2.1753697851667027
0.9291485612336609,2.034106745987251,1.0698815517527946,2.0202574169178726,2.4946082281317703,1.3276874160886059
7.325471094953102,4.1396735922325,0.7910839455681059,1.1272110109782192,6.044086102221024,2.909023337607802
5.253356270291848,0.9389594174431193,3.197916678338343,2.551947978055304,2.3979663668867577,2.021896394440702
5.8422048179735455,3.2124411485530624,3.210506227883313,2.7875242080502094,1.767771745623471,3.4756461959229075
6.206045535634021,3.2411688817483415,4.8187194721551725,0.44489451414375963,2.203309054392005,3.355723464795743
1.6180561522860104,1.5621218184927872,1.7630055685045758,0.399548806794332,1.7967433662832115,1.188357265942722
3.4995281618557152,1.9781680500199863,2.337704462936649,1.639620084710454,2.358166914265739,0.8625399913945578
2.0890631270668156,3.0831862703484205,5.2109486833578575,0.8968274407989101,3.2710398149987716,0.7152492989207694
1.0470136001224122,0.5786254199584052,2.051609772112696,2.525597457294393,2.920497326213233,1.6825649953900876
4.624591667674086,1.6185299383400809,1.1763649387725121,1.6608182181117406,3.2142359012097046,1.6028809143168374
8.476512630124972,1.5918276501257214,0.7282031394997285,0.8782445331557669,1.384547015937864,1.8657258970506647
1.9740277903418881,0.3974143259862349,3.133861821203049,1.5923490224054007,1.6390422969708442,0.38579261366191775
5.980154450192734,2.697530122676032,2.4279988062655367,0.7320436568646977,1.6903106295947032,2.770177929874839
4.9805200938211,1.4709718731184578,2.717096444409244,1.5759891087126738,0.488431891435855,2.880627029907577
3.4094950757983558,1.4052108915951058,0.9661068020902666,0.8502067467350848,0.7162365561405762,2.176661194995244
2.5984699026505127,1.9600138111030216,2.0815750026088176,1.117741975563469,1.6871528961423823,0.43371171734293257
1.6778738425280793,1.7049527317087332,2.673065437117438,1.5687008330303305,0.657297473920583,0.4867573173217293
4.959374767636871,0.7270748008411703,1.011973120517391,0.7600146533784344,2.084062076446371,1.4117679133575574
7.302862694110819,2.9562479282633767,2.4975765749476873,0.7837633024368007,0.955756158840916,2.6268160634797733
1.601293193840694,1.8468466349781707,2.0755595133140368,0.3521658035563183,0.28100462308144664,0.30132603719720236
4.5405845031206065,1.4573973713050972,1.3060351155650451,0.4643619278106258,1.8424212330517686,1.608593174174254
2.6940836189452773,0.7438314932374243,1.1564551480842695,1.2600154616135382,1.3119957596086071,0.8121645197442989
6.220296648745452,2.0906719529215976,0.3858647898302267,0.46324291195868655,1.153997918467299,1.824862050572284
4.072236898528208,1.2584910129196605,2.938192405483778,2.15269175623087,1.8847505107951594,2.6018187742510483
3.0001268806791965,1.9726877875944795,0.8158249793975835,0.8747348436648565,0.5859986319607472,0.9161939538289686
2.96998914783901,2.3914096546203654,1.5805506638697826,1.3442148340360607,2.408483312782474,1.3523931278732952
0.8247172618600626,0.49348492192655363,1.7346215341753115,1.043861728699768,0.7335686829699185,0.6550083301573997
4.160211320706203,1.5827304435391858,0.29741615157285534,1.1901629444336932,0.6053815010406256,1.3743454191913165
5.50457579848394,2.220722769476272,0.4535612382744334,0.6581585290293115,2.175365636672167,1.0711586883539577
6.13194988442284,1.4730328453530535,0.5302822634305205,0.5988292369755238,2.8683528468133637,1.7814729804130711
2.027182208022929,2.539360551657512,0.7446067331425635,1.1783906081842523,1.77285011514799,1.4253903288805003
1.9952877689349733,1.4208237530414543,0.12865285928631012,0.6581990918568901,0.8153371875227454,0.31844901395913305
4.573101269833759,2.7644058374735456,0.7344136065938186,1.582336316414616,1.4852038800373608,2.2580905242064593
1.5158052805760587,0.10967319187944137,1.0836249661292932,1.9902902718962379,0.5689846503980139,1.2858266979379334
3.2862137708192543,0.3628528667077613,0.7916388773641827,0.6471740681635003,1.290600769338218,1.1132389931252258
4.450185133356363,1.2458147718561796,0.6749304290652733,1.192856190320809,1.7748984638978287,2.1679067239485246
0.15144506439826247,1.8437709053762381,0.8825961322575544,0.30817404856874303,0.7826103162654081,1.3511921673155847
8.683327032107583,0.11229473513835385,0.95227800804997,0.9222070693030161,3.1609461913905723,2.1668184613566788
1.8150215497949904,0.44637525053606736,1.4103294650460665,0.3608876939626746,1.1763265895552155,0.5383299832150003
3.964609454468833,1.1332602840023462,0.4529633108372059,1.2315300895857153,2.0518647267193124,0.5480754951238517
1.23703564534254,1.4393718964123172,0.450359263878946,0.799934777742935,1.1301984759435986,1.6795943044055477
2.0213014104065246,0.7714036464965903,0.32884051399069797,0.30800152606574743,0.5095058112619942,0.7819007217196705
2.3305626245588336,3.1176169685032815,1.178662110507217,1.385154887226199,1.5096747992852697,1.6781906520654477
2.6092572171724306,1.229773894385712,0.7685480133338055,0.8381490993943366,0.48625923485982464,0.5863118215300893
4.685862418655908,1.2121233878736695,1.3859474873013453,0.6095048852519448,2.24785601268065,2.6421133032410697
2.9336171888147375,1.5089494313965808,1.0615425190067562,0.3242545074241249,0.9477664088282935,1.2410335040666955
5.097868807502483,1.813920189816573,0.6812866275111374,0.490841148688104,2.1185208572159975,1.6821653530966016
3.2527986299691367,1.0740231396087636,1.1001456675937984,0.36140028303075433,1.625411819393478,0.9621140156345191
3.3049846667974228,0.8643471189556304,0.4632240426594587,0.4484361247223882,1.399946229380801,0.6927530405992173
0.8121023810733264,1.0212523377370175,1.8420561855428315,1.0364073862231151,0.43574467936223726,1.0381390361430507
1.0521433515244167,1.1925746236319579,0.9465110709103979,0.7697123477350319,0.437083082074547,0.638432530579068
2.599703496179987,0.4337684554071431,0.9879775409772075,0.9831464226404564,1.079883671617122,1.4328501611062936
2.566891216170114,1.427536256951001,0.4477828817481983,0.96346832143327,0.7822156414813466,0.5580908923754925
6.184981278959326,1.2077715545792318,0.2693799359208588,0.1125485503182082,2.0822932775669827,2.176464752309902
4.377141588694128,1.1597094127899656,0.7520337170154131,0.47016416404470407,1.6928358325322788,1.895847326354594
2.3206561650806425,0.8651566550129536,0.556386514996751,1.2810255218847981,1.2517714674767488,1.0785403859566796
5.81347879928726,1.6028602002806067,0.9882943603476017,0.2026224701480065,2.374800421730583,1.7474629250404208
0.0,0.0,0.0,0.0,0.0,0.0
0.0,0.0,0.0,0.0,0.0,0.0
0.0,0.0,0.0,0.0,0.0,0.0
0.0,0.0,0.0,0.0,0.0,0.0
0.0,0.0,0.0,0.0,0.0,0.0
0.0,0.0,0.0,0.0,0.0,0.0
0.0,0.0,0.0,0.0,0.0,0.0
0.0,0.0,0.0,0.0,0.0,0.0
0.0,0.0,0.0,0.0,0.0,0.0
