Gx,Gy,Gz,Ax,Ay,Az
4.7903970000000005,3.455410999999998,3.6207100000000016,22.831999999999994,487.92599999999993,74.71799999999999
4.66222811305751,14.103963511257364,6.34886985852951,2.1665599882082867,4.175931106640342,4.932651617786581
8.238188288943567,18.747843754784533,9.161661256539244,0.8650719824285947,4.624109715841224,4.3202544643833205
4.1132455355317585,15.303507580853937,12.00450603545338,1.2089741938484662,5.137162083377912,3.105300113590852
19.16871526306015,56.03865894686086,28.493864962317655,2.4342636482111413,4.790787155192131,3.0404751058872717
15.633592166709313,212.28758019536687,74.47871348844366,19.15913617182007,7.319146174514034,6.3347158753771735
4.7778490478134295,40.99848279476771,16.933126148532807,2.8991165969792534,7.903979191177412,4.848589869623826
8.237757202943998,30.60434686453897,2.392427841185307,4.6111830860350125,12.453787664259394,7.666417014063285
14.054559432078028,19.576396589764045,4.70182297944082,1.4492004225309345,19.85570102685721,14.592974806669531
33.302795324851154,37.42385815015355,10.757153337779293,4.928065961151009,48.02219519740543,34.86273880290251
9.898246919745677,21.798479825518392,18.27940570937246,5.904296564038959,43.60684488201697,41.628851004698255
2.712731062948893,14.163885537258809,8.267120463467913,4.485989859358086,7.937956119499911,10.077843758582866
3.6621918754271006,12.07623992882688,16.536882876525567,2.460908590991705,8.499796839764475,9.114282798443078
4.8113331254857945,28.090956563258413,31.72182040207545,5.3847463374270585,4.23479474629218,4.100780234875924
16.280868691316787,67.47131005467504,95.98415987836903,18.029730941521645,4.3088839822238185,0.19578378527884938
18.44857207012142,38.59101214450236,48.91882891503513,13.42561254791831,4.545643162592676,4.848643948836119
9.151555208789866,11.599034354176037,10.925593147798166,3.4688203523883665,4.028429451038622,1.7710493236475224
7.03370628930874,9.157270005586243,9.11544572051866,2.912245108497179,5.229383438720924,5.987076761285061
6.867345623699793,7.196894440668178,9.038183162482346,4.725528204204193,6.712753347853063,2.7040255749342874
20.119046752377308,20.75649126378799,12.26478601207263,4.881742112102455,8.11336490607619,28.53870840652889
8.971891992543746,4.877109309017458,14.273723014883142,2.915025005650894,7.146535009859732,6.445317698734345
3.4733219206986266,16.54003392126753,7.270993666171525,6.118140864973827,8.772866699668741,3.7648479475824077
7.667362404407738,8.929178205583481,12.767399129317171,1.3628369637898963,3.572781983786693,4.594611481551032
6.753312717652454,18.20575727619048,4.35408177359512,5.462508404343151,7.921404755814104,6.60833100016027
2.0617008089083075,31.953414399063195,39.73492403516716,12.99884568357328,7.5445826128071785,4.878461559886707
8.991202873286742,14.596596471326121,6.122842456261156,4.389481248004182,5.670114649242649,4.40616871923474
8.743356762431489,10.31778838974827,6.018839262661311,6.871293233911192,6.163905608621665,2.7442700832264997
14.669642796389029,14.317876283966783,4.868384725527643,4.591265292620482,16.259580915413288,6.855281163697239
17.59056322943403,12.277398956584305,7.788787371497054,3.4208104320194717,20.953258412956668,11.998208068988921
22.026295086115493,6.032189883481209,5.268084891810103,5.337468770135828,24.349859874429793,13.120762233804198
5.274565561908325,18.07352495278785,9.243955218762263,7.9182526499891885,9.392343062771783,3.614458012652434
6.115081147853526,3.7294433508243787,0.5940466739187145,1.9063180897371619,3.200684819321772,3.762027486104638
1.8591860826733693,10.214268309222978,14.613443647095403,1.9518390744060174,4.8812947695403395,3.2532676530007576
8.995926466366761,7.564085117086668,17.721182010256236,10.124011790327627,7.695631319909437,2.920787816321058
6.7211384372715,24.114291266932618,29.275387964411433,6.959190440061367,2.7219065641601174,4.565386303293762
9.461035065548648,10.703658239398429,5.967541101057947,11.059452778306696,2.784340146386766,1.9566361091552542
3.491728725620593,4.576312645954887,6.635963674790868,6.106409291656042,1.940284738107376,2.0509175017421235
4.3791714981128695,9.052127691255258,4.957350706361459,7.605643430063599,3.0708756165782702,4.602175475019753
9.08919430003773,17.310059656157335,3.5478208515870224,11.195265151821793,12.996315603627387,16.30746863202221
0.931104703176269,7.9976942698578855,3.1112334755665714,8.677610804935156,9.270821685382327,10.133136083359805
7.542304743579495,8.558080795101205,14.200089570780301,3.356571891954476,1.845410852262576,2.773581155783633
2.7738146263220913,1.51138610589849,11.033504639442167,1.8886449084219927,2.9256035747900206,1.0857394136115794
2.176826751083733,4.746813559593524,3.9617711061381864,5.379453016751723,2.8314116010422765,2.090742422564909
15.521158218265398,12.73275083113545,30.129092972580693,6.690289793157002,3.103792624924004,6.092543861801623
12.780885140948051,12.676985645742533,20.69768279467506,3.774786467978991,3.8131045900326415,4.87422092577122
8.4269401003498,10.274403998664223,3.866399232676435,10.47949293435452,8.552075842138866,4.661251641506623
6.773837554867984,1.0252074874887416,4.382343675106509,2.4609048463791243,16.806540068887593,7.837295612030371
8.816728078578327,4.634542051537176,5.841343094867478,4.825139631164506,12.159260880229006,6.203562283317489
10.240223476058347,14.420572804278839,8.039490227349466,11.511254924440204,25.163648906105756,12.046243477067131
6.955536169616659,7.863685104496061,8.757454461254342,5.273671716081488,11.260957116963528,6.885720980707723
5.409600341802444,4.392632042230392,5.661826697084851,3.5204644199253927,7.947420091822478,2.5534867787127506
2.8785431933286607,4.596076454707213,5.356474396321931,6.885375844560804,2.4355731977211192,1.8436352591524807
1.3479508315754878,7.525969383865519,11.565241436100369,6.854991140197223,6.079657791030342,1.4817587564733683
7.7964611085886375,5.725027658270323,10.237407392929361,6.909658031281142,6.682269527700674,5.169881562324524
4.911963926534452,4.30221745613808,5.767862947919609,3.1949329216625255,7.473291261943299,2.761438337234447
1.7895963136098536,3.643748383482546,3.515414235257594,1.7965707600517709,2.885003495316437,1.8543500007460756
16.56753585450709,2.391903635126911,1.8038391148692403,2.321072215517009,12.583784522008546,5.990909133708978
18.53045006394606,2.7381232408725023,4.252408326169078,5.66691761971683,17.37253999481759,8.202624069739214
15.943932040160112,5.280131563591447,3.166247347073163,7.329293083999871,15.972995421112708,7.018558952449984
1.633365114661888,4.875651499384995,3.3378126181927033,8.358469916732064,5.3183274688439575,2.886487359351936
3.005409611466836,1.5175288427541853,1.4564426950368372,5.760630695927676,0.41975235546846484,1.4437438368848388
2.333892434140335,0.7392688359442546,3.604897587405532,3.6324397342757893,4.716872935671485,1.326318522831936
2.5192487006360786,1.4979670987710452,2.3455640603264087,10.313508915738712,1.0497591006219025,2.7274857066813176
7.728183619043316,4.726761613274934,5.806243517555548,7.035846091849788,4.45402962507958,0.707564554011001
6.904504503095217,2.3122025293735677,1.6890124036302039,2.071952377209032,5.525912715515059,3.942926280133629
9.738608198293297,1.9395088415236312,2.189451209582237,0.7204501993133908,4.790501017264471,4.339090540266908
6.302248959006115,3.8623170096196557,0.8549380355493904,2.078402840521565,2.3335655854420922,2.680349225627385
13.376587693656948,1.9016079090797633,4.547046646045673,5.428089825361101,7.864467273944469,5.52867633322973
6.794580378479241,2.727898458022819,3.5188851483315475,0.6767105111411187,3.3344709213052632,1.8211028190559853
4.376691581581805,2.834392027685459,0.27537176629863147,0.915443093073422,0.6231464196593813,0.8660518243729918
1.9898520571668104,2.0764505384157017,1.091559309961322,4.487187857606973,1.7996048980331163,0.8072001098206748
2.1561503386889993,2.5264213409165572,0.6879575786312778,4.256057032027576,1.691590007659563,1.025707659462603
5.978149954482353,3.1015901335207388,0.6621778672803001,6.2881751667825805,3.2559905470442336,2.596460865830611
3.6980179608654766,1.7623551382223324,2.7083989477025825,0.7755739953344666,1.402117606714066,2.733870812491214
3.3295862008742514,1.1407348289187762,1.204779746406554,1.0488819519893917,1.97755469565102,1.4414116743244336
3.160549469007883,0.624283522008864,1.75212980900552,0.6056288994463184,4.951559269246381,0.3972658192020036
3.8934427795008304,2.5558711457173104,0.23261453986243652,0.3037405870431837,2.3516132467228728,2.4337001554532947
7.114726529263137,1.2017623307054455,1.908241110582542,3.5009237365829686,5.944983850454267,1.515819249846999
2.883101365361613,2.188470528944806,2.1518125966251236,1.0327590091406171,2.8286794228222036,1.0703214038716244
1.4808625074392037,2.4109798705076506,1.223860277850573,0.7585802907884841,3.6604616915453234,1.4813459580847976
2.6433107704617824,1.3033129988628107,1.440550021432885,0.9851531000165772,1.382330086714135,0.45457077960654807
3.008658367577486,1.2831024381656522,3.154518307163632,1.1335469748332339,1.8699643324564958,0.5007571602053271
1.0933382167230323,3.2089203580452574,4.916262579136536,1.480757666923218,2.697397469201225,0.8308972158747886
1.0905914966291324,1.2552385295842405,2.179512609146343,2.227217285553482,2.3588635405778837,0.5762757659714391
2.401385256513049,1.7701684231068122,0.9996760858378422,1.4621409859786456,0.8017427248160368,0.9344921594341093
1.4150494454383136,1.6486925993221215,1.8139829802358025,1.5504659599388977,2.0900020830495913,1.1695482749709185
1.771368528034678,4.160596591354221,0.7485989335576669,2.5172769178574557,2.785583650190412,1.0354848758982416
2.8263324481926024,2.467347309762867,1.790720931361404,0.8482470169144581,0.6622972265413125,1.3476473566875236
2.65244988643876,1.9758790555080392,0.8267811099860959,0.6643267348796958,1.562632195284622,1.5115796240393287
0.37473332928328185,0.47637008009466025,1.1799191846610555,1.6745204108212333,2.6345354884840524,0.37323147469884926
3.11460275442866,1.8840022133335943,1.4261652618040745,0.946080416643219,1.5362950195164065,1.2930511031619996
1.6992057626683006,1.407956018603683,3.324766772232565,2.712609353582837,1.8385092737004858,1.2890774551683999
1.8331613420799662,1.8634037695673529,3.9693332428790544,1.286717572744525,1.4514146131207666,0.8899091464889614
1.7081531158078977,1.18359620054837,0.8437847751940226,1.4836437515903689,1.1387723836548582,1.3685004056853851
1.4160354843294913,1.8236925797558985,0.7789296988043337,0.104718382177417,1.5433352386110066,0.880355062950144
2.3437001066238117,0.4416454869964194,0.5636540360139024,0.8463310455930513,1.4684049109059867,0.7295019993576214
2.622953341822335,3.540252094215113,1.4156192189147523,2.4672367795292276,2.9444706584426457,1.0715177265339382
2.050952664935109,2.13838551651778,2.0484883703671413,1.1125809450166966,1.2227387413441972,0.9387710068346415
2.7521846840744244,1.3235262533432417,1.4070111254047069,0.8921390537170876,2.1226633768501584,0.37132298864130037
