Gx,Gy,Gz,Ax,Ay,Az
4.214131999999996,20.917183000000005,1.3527380000000027,13.858,468.91200000000003,53.532
8.141161253177804,5.530374113609759,5.314455866444518,6.340868502637949,1.4614800365845175,7.7613463989224645
6.292378382044932,18.348391619953148,11.487129565524656,0.9180433868195886,0.8571845575417254,5.169932248816103
7.523407903306568,19.03814357297001,14.25941980991583,1.427648744291002,0.6756100302094286,1.0846923981961571
17.803900338956808,54.23852740476953,31.42756988190617,5.661682208765517,1.2039848020682111,4.484558845574205
13.04507508012815,63.2046723809285,45.9081572008126,6.936803293141607,4.269393348660761,5.667472985796963
6.7270353849706375,29.695786546598278,17.591087425886364,5.512011839174303,2.344104281663224,7.398263698750458
24.163362281408464,40.90032406255567,13.407619258397164,1.6019225158460375,6.603340619573777,6.3308703312289065
14.024031276761773,4.772043254782383,3.8147226821546,3.0021726964789313,13.102082633402691,9.317476207073593
57.45974706750529,22.66958167487882,11.973122958013278,1.8558935072107934,73.26645533930503,41.219036472578765
8.767073390461542,12.429745918270177,9.988463180119131,4.598244315076013,18.313035213277185,11.314623084006675
17.682539450807766,31.703197809517384,20.63225014325815,3.9606665956178775,8.239082089426917,5.744642985291094
5.63094112311045,12.03134918842815,29.991249196896334,2.4619989106455193,5.097603048467076,0.6774408485844596
6.417513739821079,2.585132367349354,15.59395458374218,4.505966491161477,2.1705097430358067,5.944173128396145
17.660783381351763,38.53867069099404,59.01815605168505,26.32714337157894,7.404053623439169,2.948051446315735
8.01382953985543,47.82676598874258,7.611826466754621,12.441668225663317,3.920281415229962,3.4144814238456553
18.52044126191304,13.36698773741045,12.85826550526745,5.807216128641577,15.392674899416802,11.281536718147343
5.298327752133181,46.8581253246965,4.2894992809671155,13.649677334260918,4.368196270190573,3.6273347690584807
17.069973064140537,28.49198911646608,17.866892479864816,16.826440675411824,30.652363824580526,24.85904591048423
33.450170879088354,33.32240448452984,17.284177890136803,14.637326717981388,12.749691747986766,18.164255877108367
10.291458954186844,14.518253793444977,10.895948922867367,6.643137715895392,20.341207744635337,8.557661306194168
7.701210836423992,31.75513079461634,9.331033935328772,12.387816400820421,1.6705132775378402,1.3910517333860408
11.615177346671262,25.93239621589946,5.972196929605691,17.19782640231691,8.928158005354542,5.020270044093104
4.121476305102203,18.477819343107175,28.77557961658285,36.00225254062842,5.763521377646431,3.7657686267871777
17.238849493823103,12.131017354092506,12.12334017351669,3.227931198162271,10.859805365973658,5.333813099030082
11.922700526445361,7.676544728762732,1.7957249826071122,7.0976945073394875,13.121388765551389,8.67684830688124
3.3513572057616257,15.528195289142563,12.950510736473156,7.839308848331205,15.09728915680077,10.94432351269803
10.18498404141466,14.997463007318776,6.874651583116921,6.396262392788931,24.747091154738502,15.338878675944654
17.189238532431077,33.07764019416639,15.397607909395813,16.6044583008919,42.206030650988616,21.852108491787416
24.074891597802,5.789582743383419,8.987732050250177,4.421418560375257,18.223558485943467,9.038194321920285
15.964522065713457,0.7179717007290092,12.603220847786904,10.177595650644196,17.66857639236241,7.03917074330849
7.361790728818061,1.2618557454634256,4.8498663719397195,1.8513459407066764,4.116226922171657,2.3695986535110922
19.437119177693383,21.995473779348934,15.627119316127917,28.03364728620017,7.865152876100678,1.7925851764699603
5.9823638875136655,15.278679205015424,16.05812909804597,10.985752234563916,6.200833168390989,3.7051025830978643
10.66376576836843,14.247726759660592,15.072022055140197,11.107051165458865,10.847075626112588,7.749832610607704
9.963894841562519,8.784601836557519,9.672672532016112,4.75070847502149,8.401200024967501,0.6541635928692952
6.564571013695219,7.822531718509517,10.142791614609978,9.165684064565928,12.4233721286651,7.218743516016578
9.062577695095333,6.10015858569293,3.9268573515479717,23.58424822918869,18.936421025375083,17.42868172663297
2.7659134555417584,8.622160538755157,5.00769758136399,3.427784969384064,15.277018800041061,13.00578004819015
3.8188899191733467,12.619525528594437,8.439875207169052,9.301908604212326,11.32946459959428,6.535714396402054
9.207516541959187,12.863263358407638,3.1877960808984653,14.719073315410064,8.771041840079791,1.547757852397684
6.974244647378857,4.522530752348514,2.3937906709066175,11.444491225213241,2.3139525096251616,6.837226421861874
6.130646964732566,9.579699389117614,3.3526109764599625,12.098720655632544,6.092858404503701,5.2688413734176125
3.7120521437585188,6.051308260160418,6.2710980847777105,9.151105005645098,5.881298297862069,2.415460783542821
6.9138163998356506,1.6612718737748446,9.847485966655062,5.242752040180427,3.158055656681134,1.4450333249160299
11.252172733427793,4.314364259183658,2.601043424623896,2.9643302330595294,9.989304846468206,4.002424908831059
2.877275334361169,3.561647257893108,1.5968034097241748,13.336230959242036,12.819652875532375,8.104217280480245
2.1665211884378293,1.7195049271496294,5.116860575242962,1.0558119723376846,10.924912607512766,9.595204240722882
3.135679489359326,4.428743248429098,6.10220531674722,4.758166689209721,4.890622985279774,6.0435198423535095
11.173623205518021,6.321864782709422,6.001242025017045,2.2638832141363276,6.394194782093426,5.6384510526024965
7.129663821185941,8.998576635750478,6.492564336312956,2.7591315855334586,2.2206908699363312,4.9363154614423435
6.688923107000375,8.61176857743955,3.915040611085031,7.049382393338136,2.3896398795390916,6.406978152463784
4.192984270702247,4.754040767269638,2.085539676778759,3.3032724428090354,2.8355229759270215,0.10929854317066921
7.232855971699596,4.940230942705999,5.736101244300363,3.588769640732776,3.9494516702091365,4.527558767632938
9.73051766476471,5.8131432293833845,5.105752563775028,1.130890331492064,2.008382814432086,6.927673402602165
12.703152587281373,12.19123948024862,7.039444215114394,4.933136175993301,4.427852906199264,6.220277606846401
8.069294081539873,1.3011221993698767,5.797930848227113,2.5207623291271797,4.033491845977981,9.624016210586065
8.283024605592487,2.1618078968752603,4.987203465490519,4.170538650675114,3.326403367019462,6.694227982659976
4.01420304379346,3.452237479434099,1.4133844151952375,1.0616120787089838,3.3937146687124193,5.998040994667841
11.495671542955906,2.695221034961144,4.016753168064089,1.4480929207568676,2.3587861639983716,5.279708280782498
6.422593923678313,7.879744335843742,2.769382580495865,2.354660778929368,2.8520646738238726,6.330796000939006
3.565631822455059,2.6107417552810284,1.463001039533409,6.243048801935585,3.387597889579898,0.6061600532433534
10.291301419654852,2.556703653102917,3.352428901799186,3.2965668253041014,1.4567057702072606,5.44449095013459
10.198481954761467,1.9741933314428843,2.809883724247272,2.110549475971306,1.0860521803137382,5.982892093229992
7.773163253336252,3.7910910787017773,4.175741169695675,3.1393237537953858,1.7572808008744805,3.086302032357253
7.581102631661207,4.205812165955833,3.932909451617596,2.5539340114444284,2.0653620756860303,4.421365299232722
11.019791038956711,2.577291223760791,3.831289416705793,0.047768811228818396,2.782703107354975,6.904160457503935
9.006917479172614,3.904785757575672,4.304188758570669,3.1340412169184084,0.9734976220063394,5.635438512144938
7.557875797056239,4.409217044098404,0.9241761404515265,1.6325862844096117,2.4471800829660917,3.1192172261950146
1.6566627724335736,4.959013746220303,0.5695502041732935,1.277323968060425,0.6763006431375211,3.1253808567590773
4.216427588073841,3.732449442958605,2.7947857325483825,3.73599648571779,2.4211313844822,1.6759238231583522
7.457870619350247,0.35283597476136425,1.1870187186265595,1.2045700138496642,2.2877189601480277,3.6277388519248235
8.402642610029277,2.221783394996812,1.565244879399441,0.8376146172640564,2.479894419264064,2.5865922553653786
5.791468866835259,2.704911581672672,0.5892197764894213,0.5070256012952612,1.9207478540330787,1.4575226827825416
4.631382748276782,0.5539043471673468,2.3077438318559955,0.44722405959465505,2.658371987053665,2.0734157588374034
7.975778427561774,4.046423722836182,4.556161455487604,1.091680316409214,2.369453481590048,5.282593825499609
7.192932530301396,3.7619963549309294,2.0474927243244796,1.626908256312485,2.7482146605828426,3.495539242295453
1.3868688911392908,4.928277616700345,0.3215356425918261,0.2693102872222997,1.5244729682475768,2.0885092127330767
3.8648284928400747,0.8664827041423078,0.9690079656441624,1.4863449542795852,1.3174008109440318,1.1483903853469242
2.7181749970086275,2.541270531870949,2.09053868375303,2.8029463587675765,0.4393691865158471,1.9284679177856259
3.862774894422262,3.136031113885579,0.8642746649952352,1.7557206915401495,2.744885454950783,2.1756304490234553
5.649966251380874,2.960388916357429,0.53702327781234,1.6138192661643596,2.170510398649258,2.097258548327037
4.302297273938083,2.2533196971171026,1.5136523331830694,0.6395418604732086,0.6757305778948567,0.8870074710222089
2.820750934534033,4.703910915156163,0.8030176988228384,1.6100586626701343,2.2528983110480723,1.512209245204375
5.488784726929228,1.2896761189989423,2.3563810081388286,0.5776401423804681,1.7572558361981019,2.915692292453302
3.5192387920744816,2.290559959642184,1.1144230090265324,0.43067221843911213,1.0137081717448762,1.474442300682363
3.2077252972377472,0.9166469782771232,1.5767617914127157,0.056246556544989744,0.8523152666436579,1.5656567479432888
1.5265082197499198,3.299817492496532,0.6835322509200917,0.15538818160586343,0.773283352479631,0.3487217057215551
1.2037792487490135,1.1277466816185815,2.825920170517897,2.309680054315909,0.3419229071964348,1.202032174509906
5.623468907108211,4.024657960023311,1.8468386689880194,1.0039018059914275,1.9334770779251853,0.43351932925819486
0.8822946213874215,4.301211311754139,0.40770606653133135,0.33236616180445827,1.7566987815596418,0.29788518915532364
2.580804869220452,1.9968473999860827,0.6752682432450077,0.8304648220869271,0.489992640174594,0.4301141716391428
4.056797249853943,2.076285014859112,0.5295418315686976,1.3867447548995446,1.0596380023077352,0.2307690904131922
5.677392941697687,3.442888715677344,1.1716800898949622,0.31437250728060323,1.4125290478531558,2.066325421908113
0.619252360081696,3.364652752390143,1.0283241735169726,0.5847552304406735,0.5157060497402146,1.2490412875992456
1.4515466394448875,3.1537188025487226,0.8038359803857376,0.9585200692362416,0.5633151687120802,0.9219555949134284
2.2660726195612297,1.6935426302064829,0.7940213763984283,0.8673069714875232,0.055936254895596546,0.6667732506673468
3.245733427013545,2.3616468852135006,0.524007879052437,1.1451303546401468,1.787614061271485,1.778128179337145
5.193487262269676,0.44514702845326276,1.4013397397498002,1.2152011415898156,1.5825873649940356,0.5760428986558562
