Gx,Gy,Gz,Ax,Ay,Az
13.347298000000002,10.648408000000002,6.1982529999999985,12.118,552.714,90.59
16.419211752055077,5.3225123982707885,5.730569745358949,2.83769880556976,0.2922150184043578,2.2128239141242334
3.499545768524512,24.38136516467575,9.355394805538392,5.683680658793827,1.7424298909345006,6.538281484003072
22.774769019216112,29.698565671118644,9.384247818651748,3.855125755558477,2.6666386769483075,8.671322031949583
8.845024904487671,25.95870486140376,14.785510928269362,5.621200584381436,1.7052261442628152,5.94365039416375
21.246978777373965,36.19242666894995,10.269157400319884,5.524848108522805,2.8661363803301896,2.1752756032106553
16.517032300194003,4.9891804973297775,16.503816287134363,5.9035502728320814,2.5311117334851585,4.324319009994919
19.85878906286988,232.19899678510913,104.93561634176079,24.178103697709595,2.495597195988949,3.622638784458521
6.358135601978088,73.50778818397794,25.880725312549252,9.770069193316452,1.6050642644862823,2.4107748047173243
5.250395659983967,49.446456673817075,19.757484207381772,3.715743473538072,3.5212939807138377,5.004622983568845
6.111885690264641,38.485396255180596,9.234045475691344,6.017599450895073,2.775625421450607,0.43852178215650817
7.421188642831504,51.57918850719292,6.159695395494767,9.614745097098604,7.652760348947358,1.1248219060936313
1.8528162664605436,20.609394852082502,9.81421922057419,5.586844948088651,11.631226375517564,4.291731847886668
18.356820863351047,12.345000106536597,5.427740133806815,1.6422100165884395,25.38154268257589,23.731781350182583
63.24099528081586,18.12827924235913,8.49954934991205,7.963054259862563,116.6544476906106,75.06313994976102
18.751280732924453,6.006546991101987,18.33455415365245,2.592252398421037,39.26973473090188,28.315734871082775
21.33142494145761,14.52781567463125,5.798515554264606,3.513314390309552,13.03703709752055,3.817449214929511
6.070074907316928,12.828430422112138,11.821557192620217,2.5256000207978935,7.402290247561794,5.296532627581126
6.970518154208069,26.258538663519136,5.114138310707402,3.8947421954668804,11.208063768920477,3.121769612339456
9.904417004480544,15.68642555442866,14.764386116458887,5.264174464319976,9.578896981917891,2.3042766973119715
9.446150731617239,29.745389816731407,70.11706873647198,5.985934245491385,12.438484354333582,2.8455856877546597
15.664285258266068,44.870616352418956,149.8029169260444,8.196104044003695,20.944977649237636,6.453463746525365
10.905654303290847,71.97397342312873,128.1963746540489,23.613131746235133,5.576213769831474,1.8495514732087897
6.2945263708578745,36.26458179224051,4.982560259616547,10.221914967977614,5.001439469610224,4.818689652080834
3.0134008472949434,10.950764086770965,9.883114452434322,3.9820493918487165,7.697025466047771,1.2381962553572388
8.618313295836181,16.829026598195377,7.642842776819618,3.0099694461862483,8.247251701532106,3.6248382926284037
3.2540986738782034,19.944355222004923,7.102473302847991,3.3302859411897234,8.909203684824224,3.239231082770292
13.984534096257171,19.047512157934246,12.713539344141152,4.187314221603984,16.026403160162843,21.89550664645751
21.63904782341713,24.93924988732593,6.6380315654801425,8.20101442267829,13.540793773908767,27.516248693702295
38.86327299308013,50.48488101072407,16.40286784055642,20.59848703314035,12.193652869465808,29.817396884807962
6.433272396055211,3.8873178852401677,4.930353926408721,1.4740156269051627,6.219555114976458,3.905559518280898
7.543403179518941,31.598546052024606,23.045520211345142,14.57074207743219,6.476652997416116,3.030718513527227
5.482693955444711,18.103021259335684,16.429708257244755,6.818493978239119,6.045071900220037,3.477929603206152
1.7059857512941001,3.492523616699057,15.980346527683329,3.187035208176446,1.8631539103276153,2.184843669698062
3.581955958166297,16.71214687690599,23.77762818524927,18.24844804319376,1.1813150161467556,4.842603243097287
5.336453321285258,32.116645999465945,18.694468183816834,22.377061539509462,3.6604728241799287,1.7389295281054475
15.369239972408979,51.264221952567105,33.79980970945189,49.1049687483516,2.893444904222295,8.372687609236497
6.481179067690487,11.390402379321513,15.943796862384632,7.391333734742062,4.3752254938202935,2.2673733369363025
9.469216085980817,1.414469267009124,5.531406809176398,6.546388576320569,8.298657902387383,2.274642433397148
1.1378557486150827,14.213313587732825,5.237148296998802,6.225135660510078,2.9157305233178183,4.939509773234293
5.636218393741422,9.502839135925704,7.086660250623616,10.390568732017966,10.345669690219305,7.423242326328996
9.334020254881885,9.026187808752354,10.664335057026715,1.2707353861894082,13.77567190230918,11.02787931605164
8.126401058071158,8.72245190879673,12.18460649626552,12.242545579841396,4.236157608089054,4.577363798166653
26.83988174999311,17.9830518023113,7.928237648655688,22.04345924442612,41.62189760048255,7.097125665948407
9.847750232272286,3.5515022626978294,3.792190352650529,7.579279969181557,17.655633612541727,4.769106973758549
6.5073290844321425,6.4310458003780795,7.980529476119133,3.030772207327501,10.92033795210346,4.075524320301124
1.7936385309116245,0.8224392344940217,14.014843386506701,11.251483651000429,2.766826972734232,3.9865427625255747
5.151962444488135,0.6065209998362469,17.187281240483447,4.648130660568582,10.234256280223901,3.752480581478158
5.175263210997307,5.415990806484481,11.156782500688882,10.375302937166618,4.093493313105743,4.324273546110244
3.948323086836749,3.5576660818166115,2.5404117070422116,1.9600007655680582,4.483846018094848,2.564906036505299
12.780966197361197,9.61840464043949,25.99422330324156,23.969399416154776,18.765786861691407,3.8586314537786968
4.956586885278692,8.025860166980607,12.044965883475834,6.229483371554621,10.901702635685124,0.8875124124724427
6.450246389690505,4.55526664010777,2.443698214195892,8.212885004051888,2.5401719728437886,1.463503486259329
2.701419814586361,1.212560927858556,10.501242949120726,7.304953133112505,2.589153761011333,4.931019470211085
8.272531471872123,12.876545202703129,8.412546036375678,10.546394436707281,3.3621584869666545,6.72150593972693
7.275905698866227,7.618800036622392,13.221831097575908,11.055488002076984,8.12377651347944,7.444979527185852
3.8613230537205783,0.5565549950250086,2.8773521867395324,6.853494375574695,3.5861560727606214,3.195050357450949
9.740557865259401,4.377206089011728,7.893303369364077,10.586995742588503,10.04020272350939,8.531484297257744
10.270225741552801,2.1658921000499634,1.114337309220311,7.309490903175345,5.693017202303244,4.961632819143283
11.244672439121166,4.544943542244282,6.296986122815368,2.028483866816778,6.631163808723604,6.595083045748181
5.902838062001881,6.707961896367263,2.2934048236983835,5.486705041426984,4.394938379703741,4.753126479635601
9.100651063358766,4.152968870240245,11.656424499639627,3.675392267628393,5.9582046424200685,9.158449042690796
6.307880277752624,2.321497022148211,8.75029556300919,7.205828053244181,5.362956204046255,6.638946125994842
2.6492974053334026,3.2487833053986153,7.318792788315737,7.416214234827575,2.793661523120941,1.1135345717012861
5.374033228394896,2.610554633301206,3.358913458079858,9.89186480338338,3.6714483676251106,1.2589454692368793
4.657013203354246,4.08849069130279,6.95607397503245,3.667558967693338,5.254765188482418,0.7320399254351774
1.8876231445807092,1.57866821992907,4.418635975803012,2.5832232080790294,1.9452701507013948,1.2569570703900481
2.3639952270331497,1.9485074382416725,2.083411237406212,4.306921594199353,2.737558481689106,6.138201055397229
3.848997325729205,3.4382242596078574,3.556767590681617,11.563071807568585,2.1867569926683617,6.749410076108041
3.0180403935905846,2.317870110266884,2.546000471806174,5.635115168497771,1.091048387652673,3.4162679350839795
4.2082445887648765,5.289447124896119,4.8540770224235175,1.1390131721833214,2.3185492130410026,10.620311278172725
6.6096270154004,2.2060369831263658,5.526389910062186,1.6337583322621636,4.168333741596312,8.623645802034329
9.190144088968445,2.569047572980423,7.155406092942014,2.881333831395408,4.1206701781938975,9.626167033465615
8.846434866368355,1.6608407083072092,2.0303190923385905,1.9559885718640722,7.96271210413286,7.804647774148941
6.969191859048424,2.238801137291534,4.554506302892816,2.889892256800155,6.6989465928545915,5.359241421763715
10.498671401213013,0.4126296486998427,3.0560995743450876,4.256260221114338,7.114733773945115,11.829711403830173
1.6390885827779293,1.7614875157057284,2.3791616251676855,2.5199803959728055,3.807937058190376,2.931678348693371
3.0596481828871886,5.803063739044206,9.219992059465424,5.5498292665224245,2.41956577293644,3.909818425384817
1.6973846915961182,3.758803396406944,9.622373475938986,2.2363078197277138,1.9709118000631145,1.2916546137547604
6.964846386485376,0.054794982315331295,9.490165083391648,3.894173910054239,5.341392895939597,3.4476918211673624
2.2188859777145775,0.8725573317786082,3.5185419474921846,2.5654724968813576,1.9014539044978354,1.6291516198827147
2.159183841423317,3.0641040663666943,1.0699073272094277,2.953532760532617,3.3344852439709998,3.860187617193588
2.0711310161919934,2.1898835010210522,1.9940707348502593,6.0654980931080456,2.1963203388364545,5.391142706926194
4.154767072448167,0.903860078157558,3.2816529603209124,2.598023165284642,2.139053689333289,1.6410593889058729
5.438016371676644,3.959220137132976,5.137405382426176,2.0542407572404535,5.195492023774748,10.836205272303275
4.175984445534244,1.6557353325732977,1.9667011707408175,1.8432608289714854,0.6614078643953066,2.597966770814651
7.726219007631593,2.815576624514329,2.678027280628692,2.7753581084157086,3.277825381012364,7.272775639009733
7.313387321296096,2.425996747244296,0.8855515697145508,1.2925605873993191,2.808636192041631,6.920270294315228
6.063668489535689,1.2827429309717253,1.6464825144451676,2.0517326182679096,5.071958539619706,6.073087911758491
6.098315394371823,3.095352138179567,0.9883596865148816,2.3155195637341603,3.996175097765746,7.781969754087521
3.46697222719823,1.4916016703718673,3.041004422222297,1.2943655101343299,1.988691852898259,3.930108164855101
3.2983167403241267,3.193193336962597,2.486741700296288,0.5790509645156703,2.5079727117771777,4.053586158107988
2.736795681974215,2.3598499668310953,3.456302279693815,1.573842830428882,1.3340791937016134,1.3422618386735699
5.091891148441873,3.696429455873458,4.985363427558186,0.0438841281017934,1.7620504020240275,3.99790698200589
2.9873089567725275,3.8897921372818125,3.8268765823031368,2.5963538593005984,1.0147989511069824,1.8079566345375302
2.643113447419656,3.8587716542375827,1.776806653486653,3.516001327326831,1.786136611741881,3.376408843647526
2.5886644802317638,3.201382405027277,2.5081619511096345,1.8210657599272673,1.029657053378906,3.3792711301025977
3.824987134330502,1.2346108386966237,1.8063323075281534,1.8176747546603473,3.218211486625786,4.6455466734886715
1.3374431098966828,0.3534287526019045,2.7231836029093808,1.712684212046859,3.3560726854695386,6.9031437942565095
