Gx,Gy,Gz,Ax,Ay,Az
10.222554999999996,22.162957999999996,1.940268999999999,9.886000000000001,619.5219999999999,53.211999999999996
4.320913865832738,18.737670400631476,0.8248938855732836,1.2038330794482301,1.1603804331403538,3.774162942566707
7.596690222244989,11.104692856942478,1.73475613995039,3.0944743109231556,1.189561425409772,8.009177980168012
6.835390068472737,12.110258521816412,10.824730835310138,7.9466039656249885,1.7315824242435176,6.364431446143179
13.587906829417028,49.046660399611405,6.612073213237044,2.439582200421117,3.0149174338642313,2.341596362756985
1.5067734732503304,50.34159339162204,10.190291705218606,3.599882741455464,3.148322864879718,7.143302943764176
22.120820427361206,123.52384281176651,18.05243347280733,17.809258438001322,3.5441014916478624,7.019820591754688
20.231845178252165,39.60459328876651,28.041689271829615,5.132631985071661,3.5475584211932865,8.05420417438665
8.38679134611985,16.140434179509413,2.911022959987305,3.1060376622879082,4.873562057387626,6.180202671761247
32.33212435902582,39.516917547672826,12.796754869133968,1.915021146212166,12.523866963311848,5.579343369949209
23.64479456954554,21.00072483999291,8.909511448691626,4.38949134478702,10.473296803145354,14.013564352116225
13.1587998826532,25.502984139380292,9.742274033735022,3.3117380857590977,19.812178948878916,19.843267604333604
45.886961395250474,50.16496638492183,17.866009611053183,14.274293751188495,48.16669004211426,37.84278738818677
43.087380137348156,42.933324851743556,23.03578714296801,8.487250678608948,73.08065568900778,51.874097847745595
37.33719034483211,48.892635932873766,9.084700365536358,3.2315422270974605,26.311193587644357,14.01248348494906
19.338084996008213,20.326049791849446,13.499619996154808,8.431312127187207,21.98079166666944,8.440545569231176
12.95867275286809,56.23058782627553,4.831058669714518,17.449593441820927,20.079344326976212,5.815828816028521
4.683038954985747,24.40957558169015,12.542490581799303,7.717743917167505,6.43873016781551,4.130953647204204
19.825154970306258,60.37858595104504,44.216255439454116,16.42784687414773,12.292342408559772,2.2667616439812956
31.56864989297251,64.87854607501501,87.59092391379814,18.678495890163447,7.1414078189211905,10.387351292864565
25.627233433394736,26.609203021479264,39.305378576465515,8.61747317414461,5.036821468848179,1.2773879468574734
14.961867474840727,40.95875808193236,30.844128140983088,12.61345226668308,3.9271911026850312,6.8698674716204025
13.658994217277602,19.261614237614964,25.98463110796416,7.774679045953539,9.740724346118819,6.324365857592463
3.512864661809819,16.94215251090253,11.828192680648092,8.986806696137007,9.648316404692265,10.877020544405015
6.170265780628298,28.793948102900103,11.865944626734048,11.70614406316216,8.815200468212046,10.911714778865102
18.61393334866437,29.35353066547291,10.861774675795889,8.9518475192251,11.70389068451929,20.41761208394035
16.72507396867921,23.593038621459417,11.181331546348543,4.649404541845537,10.307473338685817,16.306816398885218
7.942032905193783,37.62203544149885,1.1046757314529805,14.369367173378599,10.063854981269172,7.944949763921438
5.47700895671166,41.16254842122392,18.335635116814085,16.0675668218353,6.1395121667943044,6.194860113848032
10.194184959398253,17.89735824982279,12.000199794339194,14.943719887289362,2.9488978931010377,7.638415558517266
5.628809037870189,30.1476108451147,10.965944871744249,19.694196480269685,8.054788359898085,3.073915287910247
8.475933446679946,31.74232384611625,15.272214124526531,23.531134609556315,2.364275313980591,5.168228656597595
5.7455556008321995,37.92520230125033,18.602331314198683,27.855943314320367,4.67695837909762,8.417764390283928
3.9053031954833206,24.403811414785363,13.723618250764092,12.554126018553003,7.024290275826642,0.5463525183304107
6.986133039760553,25.58369428584008,12.848126977192093,6.875960665951983,11.395952240894689,2.489126689221664
5.258259418311624,18.972901744552935,1.4195128913240904,7.826408102281369,6.356700093517004,3.8392800143971977
9.223464832188219,10.711975444271014,7.672472516771364,5.06900774446144,8.209116699034254,13.212120353264845
3.361280262692644,17.378591475930406,4.858836995671978,8.195200297872294,8.390706030027312,7.588982532870862
15.742267507545462,23.69946857098945,7.590025588697964,7.571826906376193,15.93414669052381,4.464688310110499
10.018970665282016,17.118608167275575,10.243891019884323,12.353387273029503,11.006522875490624,4.96302335973273
14.111110762943657,12.801309461421516,7.240559193268948,7.140926647532747,4.033361801865056,0.31533982023063833
9.111436927976428,18.356526044020185,8.512047768698741,11.40588349958641,9.096050697018779,3.4219107765668384
10.446724817476072,6.880620725429695,9.817955060936004,6.981104830873043,3.954623466293837,3.098568229518355
4.154153279428533,10.186153997212918,5.924388412942339,4.00525690311444,5.057650396484581,1.3921010451521802
5.196271173831107,7.280908976117248,5.8666008560310425,4.54184327576371,4.867189668330219,2.741422118285028
3.817906714839218,15.390773826650749,13.421859094632103,4.993122750837955,3.8625726406246663,3.402101412646172
4.833069783344515,9.583999557720091,6.459484574594475,7.971122588062946,4.337462561168727,3.17256060706995
2.672856606902573,11.3448513499974,8.242137840513065,3.5363780588253677,4.762895637362438,7.789508412645409
3.1508142514247295,4.147477210238421,2.1153788313434716,4.329746851110278,1.4655400446151092,5.810204192292083
9.08134747064226,7.602344471609421,3.9943784741768287,4.849927505107897,1.8550473985491143,4.099203823584382
5.180763409601003,14.533179240046756,4.550670214175683,2.394321500523503,2.5677047073244648,1.7764665200640297
14.947528382991369,19.39214604406919,10.316455185340304,13.751428287040628,4.746916202400292,4.508179641796479
7.128583359354805,3.4800668676930138,0.7157239593474246,4.055489193916082,2.9629153789649822,1.4423261822030404
2.1433311360548326,10.33489519993137,3.045117516961753,12.208230110571707,2.205919102345608,4.074114880063182
1.7562450775273366,9.25993764651385,6.935734643566508,3.475565617995378,3.5411407218820306,1.0617767724444112
3.94289247795052,11.382567808743241,4.359569092439643,4.40249990890665,4.686036578812098,4.4997995082077455
5.175207515115696,2.3977888648081005,4.645112116752795,1.187079090691509,2.1858342043029104,2.608227920708585
2.848286274289311,15.402260337504423,7.327612337440064,7.426350671621983,6.276874512715833,7.789051010972541
5.56973910653263,18.773435225085667,5.220758645129447,9.839383709001513,7.002653756079991,4.648929839047966
7.785622842587537,5.672496184210135,11.515684207778278,4.766093653730183,11.509458545915994,7.240864302820258
4.045825746480498,9.580162409602687,8.45304029171109,1.545645099696282,6.279607793073913,1.7922617370370044
4.493115749179487,4.9843619868498354,1.6431474033276092,1.7814225236548835,4.791805911723145,3.7893972350397362
3.223173961003913,10.43750868442411,7.370133444297548,2.983648112409971,2.369981085743869,0.9619248696193189
10.12560522738257,2.6796918712712716,6.419368424560214,5.887854059996939,6.480819402357308,7.389663506665761
4.180978941713073,2.319380937072267,9.375704269893143,14.126197200531752,1.4527520543516572,3.506759701783431
5.209733906065923,3.5974016860482965,2.9320817346567005,4.214212392116978,2.8061852945931895,4.351891712244541
5.442522748842697,2.6461586419496186,3.2376115028236847,1.706462214415073,6.055217409695286,1.1560408729498495
1.3454309350229492,1.6887712277578786,3.1225129895603687,2.9322879226178027,2.249914692706266,1.2664339760316592
3.207494887127715,4.975646173115893,2.9492851774162414,4.705529172317268,1.4542140873006595,1.6159945811954877
11.348822828448663,3.8018611705087553,7.84784086593792,9.46661958615458,5.557556422717666,8.89525385531622
10.205970548534236,6.421973729914853,4.442087935853482,3.766890770258736,6.689019376108685,8.822277466276574
6.145735616585998,10.800644115614464,5.97995657051905,7.842523427331807,2.3450825275398315,2.724925472206723
2.6785439505692854,8.69196517297398,6.488760199035924,2.108172444840844,4.785127355559587,1.3220888722520368
1.3755105555295601,1.7548129698902337,1.3236311665657536,3.388166582725457,1.1614989672248661,2.1366644361119147
4.310331971609612,3.9789772608476857,1.9533748776897673,2.9717735704595007,2.174623172073801,3.4109052327221288
5.162399251453469,3.462369550477699,1.085275042250137,6.360057039827722,6.1488829410759225,6.3744094949336505
10.15559112922258,7.3827334611606945,7.883639479843349,5.9198372777025225,4.502838825857629,8.812448462292146
6.796068807549925,1.9434840999392364,4.792243810547534,6.811489743849639,4.774302219796118,5.62183601897094
1.3080979928329812,5.3033903081291,2.4372983880113983,1.7956733533568376,3.2393091752620684,1.8027133468744923
1.2063576040345643,1.9128129528705151,3.790141108150288,3.851989562897582,2.3066321858290424,3.3243044420524104
4.368491136245304,2.1146454970551694,1.8893857747861669,3.0681584440605225,2.2247413792196724,4.6310770388091855
4.676248993443486,4.337017922449806,2.3786637499271324,5.150002180823907,1.8697217355993092,4.682969251343218
8.801740146082425,1.3150365789413863,4.48626970258652,6.135539393919562,3.125189084408351,4.572311295469959
6.318493687289817,7.021058193137964,3.0057899221645465,5.094400528145965,2.0289472731810614,6.158012075269154
5.127330166873322,3.283053968612465,5.980322956441409,5.794398583434734,1.5964789132518296,2.488462259528038
4.300692267497187,4.2897793127512225,2.4407990736880585,2.9321460462974183,4.258875352780068,2.672492935506181
4.053301242646171,4.502216749737625,2.0586482891114257,0.259525667988312,3.42908339237008,0.7324649616488647
2.8991065817660955,2.508493298359678,3.3261037630336276,2.219202767546519,2.7625394516826662,3.204794375754594
2.8064860921992523,6.484610668187871,3.093629498387003,4.8684534193805575,2.48690352236959,5.655532695797333
4.793780083791578,3.6562880468662264,1.3948092078644914,4.5172006650344905,1.0749129976124836,4.688915526158674
3.844383026472761,4.326057212457959,2.5184611656851104,4.734127564740667,4.020180030441322,3.951040178402104
2.016632731798375,1.0648886562872433,2.797751512021223,4.000083079659068,2.230686177439537,1.556643317181757
3.310937653498179,1.8970798925896415,0.4178798825394192,0.4400993323729459,2.415044504203792,1.2944149521270976
3.9851184050079094,2.678895636094602,0.9626471326494297,3.638805680556231,0.6268480084927078,3.450590077948589
6.551551523781668,6.047714454803318,1.7685428712891877,3.2604597987881148,3.116967819993639,5.897314460157267
2.7735648092933665,2.380355431740073,4.9599511737249005,1.1834468771733175,2.217685843638429,2.62338150725095
3.446247886585891,7.300745019310839,2.1469463173694483,3.1849319140175454,1.0193503577520937,3.21947879178437
2.3020090995865456,2.927595280525553,0.6289249659667248,2.861302907717294,1.2939260983940593,1.6662499887775988
1.3420983333208099,3.1626354334243367,3.3536807648712355,3.333525330534804,1.4763911509847,1.396766873754361
3.6343474476900126,1.7938768026541512,2.7890051111890073,3.3443430600936717,2.4399578857704354,1.8713798205278036
1.5476320314340193,4.066200228696235,0.22440726600073144,2.1291565661776732,3.6644202624983286,2.1373197622585014
1.708194116362018,4.432700685548296,2.0763556900762303,1.748588860009417,2.0099562094484176,2.635554974791805
4.798973328192582,3.315365253191505,2.5325835282694826,2.7777881598806173,3.565802323960468,3.2792679918685965
4.226389155457608,4.745113630570351,1.7064799422155839,1.371731482512552,1.436844928089522,2.641659216701157
3.283129365265714,3.726101476886481,0.28439927743546306,3.3972080827901987,0.3355676171823245,1.9212888434816544
1.3037150000005697,1.8851185057235802,1.2473790616128484,4.436889735130522,1.3261267387569218,1.5037166654779635
3.5073401343721735,1.5601526527370508,2.0739906396705767,1.1826145639178822,1.2677148135677552,1.1793846312122465
5.126222723875428,5.065489276797971,1.7507669047654921,0.5260220878504769,2.9297846896821116,3.816056646174055
1.3542178417111634,3.7191633813670104,1.2417994176969918,1.4842541258845374,0.3257017248514402,0.8460407660772065
3.190016975170497,2.1681286672748725,0.6852123741905813,2.2869196533783507,0.9830944883837344,2.5590252977350074
3.571309828734527,2.0112526808467788,0.4259291933640271,0.23734761046838654,2.8133297573398792,3.4332823693181562
1.5239762011747202,2.368314145233042,1.3114369297743649,0.8841733735177844,3.562137701277411,2.3094513378324
0.9765999513395354,5.282525852544673,0.7413634672364002,2.7274449158934866,1.9004413684026298,0.9989004520702229
1.232892694400081,4.750147180945994,1.0953328614641893,2.3438450536339523,0.7868968622135614,1.531704462990829
2.865982695200032,4.6943575935455515,1.5993448149407887,0.65154911061676,0.5669838901068326,2.0051476206927576
4.3719521809972965,4.364356331692739,2.6078239753637105,3.372691804181796,1.517658320114769,1.9228407197152517
2.6927103515494575,0.8137439198067339,1.3574883392515182,2.341656821072479,0.5835530426869501,0.8910031699644799
4.285806570174774,3.068599919341115,0.5580225712802628,1.3357003518466197,0.20894479475073993,1.8769318473625656
5.564389157064015,1.850230137461888,1.1383197815352712,1.925302528769049,1.8909033113985005,3.8173458443746036
2.2513022884060185,1.5804418450148128,0.39641234589157864,2.5665575560197054,2.0635169573284564,1.9294895003253492
