Gx,Gy,Gz,Ax,Ay,Az
18.971637000000005,13.099039,6.380986999999999,26.322000000000003,492.14,63.275999999999996
4.698488262959497,14.730166868224407,4.898344472778958,2.3355194021340933,0.132486145751855,2.2753685597969064
5.1265860857139645,10.066280139522487,2.4270772802519542,0.715783529516428,0.12950012116449744,1.0909259463716183
3.2448572706836862,3.004073263351097,3.0681502138254557,0.9640004283403565,0.49927236780950424,0.34086153737860075
5.128687998526029,11.485601495230567,2.0754807492576477,2.0720204496492634,0.2207215600782784,1.3363278272056573
38.964841475156724,55.00922466910242,55.57981905178939,5.487145343376248,3.586456230018345,2.954147850795036
0.7738987198201223,12.844862710759486,6.171918152073374,1.1655593599462266,1.301753289446148,4.320011060904989
3.522624896845377,5.243721479442481,2.6632217821128203,0.9723151437133215,0.987501733790271,2.7450328183832884
3.443159875243343,12.866777255110266,3.2185997554762458,1.4625535628830988,3.0474403461560744,5.791899981098438
6.862496733540013,5.784676388674583,4.228223207988881,1.848661813657635,9.922638405336247,6.676497555531973
72.94501625023426,9.119093624164234,13.055623756254047,5.319286319994358,100.24098063055861,48.33409118920759
11.355520935446636,15.952696712779883,5.105804377329863,3.0563072648662417,24.002997237921956,12.295171303185688
3.544671318035546,19.27776132785379,1.3110884422004478,4.655350048407287,4.801632011855344,4.789148343417728
6.42819528650313,18.728411236436433,10.53093548536285,6.563414466068035,2.99154328901261,2.4545135923859345
6.650996246632134,16.062259238558397,19.940742994367838,3.4458383940332458,0.5949653598903366,1.4951857131255506
8.525812253963712,53.90659516952421,112.49046592173701,16.47554801441594,3.6865805632387048,3.23084010374173
8.988988037610374,24.815269584730114,42.15350362093674,6.997691600556486,5.940522097942233,2.5172902187584123
5.102137110338896,4.936086602501407,8.033247558442682,2.251498074268044,1.271846500518143,3.5432920775422634
3.197336011358824,9.294467145592407,8.435746173766415,2.5580457009753217,1.877655619062966,6.880228624312242
10.352086217057039,7.682151140745718,6.402711915561552,1.616690622702774,4.282369818537012,10.608604416121771
29.52302869753502,7.841758454697706,7.267354115330364,2.2493939667434195,15.276358905533668,33.238997963991785
14.172981564831595,6.071285473634866,9.829507732402126,2.982853370423168,12.555960508506365,17.745815597342
1.5091180359030785,9.18755309505225,4.265721144919375,5.548042289905812,4.094717158376933,4.773129598893559
5.609732320171765,23.551886973451616,8.461267882587268,10.611569185756782,1.5133427543288753,1.8651886134359785
5.0806882482897375,12.572978021378256,9.348317232529542,6.516393908496364,4.826507886258278,0.5401761316658661
21.754874801258897,32.329056483732174,9.714295255296395,20.597137812718067,5.054246334119353,4.290771776718577
9.857166969125247,30.177934014015868,7.5520088546532484,19.490468363447633,7.067266161829974,8.202936117504034
6.572501760903483,5.78717856399006,1.1748931405111265,3.6871013442088145,7.858851948417574,5.8459167529907905
5.175936826875496,4.152956252519669,2.999339160524058,0.9957254620531577,9.031238107617142,4.599973342789517
3.339778734910197,9.309981010137687,4.732518873009507,3.044820429148897,12.846871948602443,10.017418329997128
15.756335444010691,8.311395060150975,4.061002811604222,1.1380373327705902,31.33001412270089,22.85496618829407
11.400140674099484,8.27337284845717,2.783062110873309,2.437360083740336,27.090252622168418,16.68726760823089
4.182353846291175,1.9948036493340418,2.391924780261782,3.670542306157819,5.47242277448582,3.8811214836292116
2.010409398330531,9.74260370294029,5.092734765490725,10.605107018579094,2.0282337298852697,3.960858302412744
7.633335266160629,7.819921654259352,4.605514000262641,3.942244864607165,1.2544831105631398,1.3254325319453186
7.904437404179779,11.639040687530775,5.446602865285941,13.101867144469962,1.7571184256758567,3.7314503784059685
16.414773164824247,13.669047728170597,3.6800322716167324,14.999220078928388,7.146076571858506,8.15568731266377
9.506800139678772,2.704965972123712,2.2707269393561824,3.347241188804383,3.7520992204350128,2.5521761483788654
10.591743619995123,5.383229042498941,1.4017638553819665,2.540462079483114,8.231714389237487,2.991059850173782
9.614377372689695,4.498446956120659,3.5100073688350513,4.518099621249717,7.760323577593523,5.7352889790680806
15.677239826521834,8.820524375831193,4.504116913645052,5.908129441285964,16.612680214652336,12.46907509759338
28.782187915940252,3.216156149144282,3.2935473445861563,4.784790648879568,20.797649431300947,8.698869657772578
5.152282818505943,2.3975030828533934,3.8313674493296093,2.973469896305973,2.3080668584870927,1.5274247595783519
4.052208351003338,8.468207887830404,6.979510351483778,9.904304348822858,2.58322493756793,4.352573052800379
6.819316562664133,4.929981981951761,1.0313070927406411,5.812818170198349,0.12427921473838016,1.7863556103019091
5.610395199281971,8.164888761434813,4.88492108820429,15.805308993897434,0.943905353683613,2.2886047584670237
22.74858084411247,6.307370858454841,8.374731891302288,14.135208410985316,1.3014278244338267,8.633623345463084
5.234517758305664,1.9690517209722043,1.074399684276335,3.959987737695086,2.9621002577166085,0.4686528046419129
5.998580986814779,4.323419636032624,1.788012638873036,4.129768992368013,6.979644883811332,2.7142984215201356
3.809656950962737,4.651972865450283,3.0914629504006412,3.6760249358185204,2.3860641318980025,5.257247699626573
10.147137382876766,9.073138581212797,1.6039795183263286,6.020582149925879,7.5071386391649675,8.384399463716267
3.3880859262643965,19.466020232314833,5.457662215166071,15.028031685828779,22.186990836292445,7.5323747990339065
9.226935325034928,2.9497660373339163,4.441860185424787,5.502109551782509,4.040182463464253,0.9354709104101429
6.1940127080559195,6.378736309172718,7.09414344850077,6.2433149211096115,0.6426723910106019,3.893901187947455
6.87682047906369,7.4993956086366085,2.996580060468298,9.014439375403592,1.0762783813019574,4.6602658467939895
10.028857364360196,4.949865105265215,2.5061910497882653,9.747778090542903,1.9245107813089872,2.624997776895832
25.57221003075755,6.307787921729057,15.480600987284435,15.379568036410896,5.881739641756132,11.261895436268219
3.8928385892534547,3.8805261056104268,3.06315324095604,3.225638742887543,5.869132911853882,0.7189547703355508
3.984253991837447,3.139438260910133,2.2585169804061844,6.926874328683904,7.07069381056827,2.7800012985776354
7.688943947117723,4.086949515024712,2.6329522974696644,5.139950622015968,1.2292998696276127,5.20469159411774
7.145863864982926,2.547797035598436,2.6379661704565613,2.269978779214403,2.4959312119596735,4.546958577133805
27.165363441373128,17.757558783080214,11.26455949249556,13.476366519300822,22.092555608532408,13.999704274806456
1.6295346084134352,1.6962678779743248,6.1131705226150626,3.1759444201343983,2.4375497148894074,2.480556599687745
4.966685094134779,2.1336580406275285,4.818041258960791,1.9685184598261731,3.0134539004440204,4.149856081172674
5.08356695694973,5.6431904812301195,2.467119068266205,4.517287698301279,1.4672600827099609,4.845414223828198
8.64788712007879,4.140521913153652,2.442988096585015,3.3402194665919716,0.8567021852480514,1.1401890502395184
18.799090096674632,3.7520331461624514,15.929641524254311,8.228683845230517,8.066046773785127,10.221175462190486
5.008014356469165,2.514644742569799,6.277833537153612,1.4831966629246789,6.392743520230323,1.5662426670075154
4.187065315048156,1.2761104666919225,1.7966419544736054,3.084046204412438,6.961108536803206,1.9372940765010356
5.1781241824008575,2.3381755867241747,3.072122477166116,2.5276510631014455,2.118223350335621,3.0827172874262994
2.8207765041200186,0.7556825100355169,3.6166767832766045,0.4902208414039153,0.5616680032063404,3.013306888518494
23.729170720174398,9.908569991958299,5.306379578308027,9.004776671872621,12.036988876905795,11.984838135731977
6.99953118728734,2.793163235057345,5.708914172065774,2.9405225279112512,4.7506074893397825,4.238563295791833
5.062276170745194,1.4559953557057963,1.9046374318518702,1.412915488089736,0.8518769858957318,3.2078331671189333
0.38319992940761477,2.6366584772306005,0.278604614815204,3.3682494560723195,2.4912890102793037,2.7915803268265624
5.061407592382829,2.839412751905205,1.3408077586475156,2.6274595810300867,2.1625117222761507,0.8090285989173432
11.945223938250793,3.9654939514595435,8.21373405129054,5.526069074556514,1.44000745149586,7.891583338061928
4.703928103772389,3.1279945955786865,5.648563755586698,4.344580299688043,2.338971770621624,3.8583670785364688
0.4205177799232544,1.2431040398612105,0.5325198070549991,2.641954131477107,3.640715001384192,0.5682538942243682
1.1446323667479734,1.7182289648624887,1.6764144416483324,2.135010060966105,2.687807816057309,2.8951470301973132
1.5554822603301293,1.9670566725226137,1.1590777719360428,2.3903280384354715,2.936925223786576,2.975242658975236
10.386569076388174,2.67731988256275,1.692252060721089,5.600421099462139,7.332642876233448,5.315829897329944
5.543438292493356,0.4550534848715446,2.847333925835855,3.2552175307609703,1.8544794110177105,3.525395490542229
0.7439701447844349,2.1736276980629823,0.7251900391136162,0.47920379887775166,2.4885995680065283,1.1475140029181248
1.3746329047329018,1.4968383400843304,0.30180630363789857,1.8704148275589538,2.835643759220134,0.8033825991012918
0.6701589183418023,2.788893367179244,1.7308831694301243,1.8311709043333855,2.274689554341593,1.5842027391831601
6.263521158956821,3.563190265284896,3.02381016760712,2.72993897759311,0.7656191035106434,5.331297841164787
3.0046276515389825,1.576481265087405,2.609972159700067,4.508628658311254,4.149223044667819,3.214428776956481
1.5836530558138082,2.3862679847821324,1.2494481566794284,0.5152468622504232,4.12053216357202,0.982185474426595
2.0545180840622406,0.557174196733343,0.740094892455681,1.3415835277645725,1.6276786104663332,2.638025100196541
3.2762075906943298,3.5459606848212486,0.7138282897682776,1.5920757826633987,1.63659830102253,1.389890377128927
6.442727508401636,1.0102385421844353,0.7398925651418666,1.6894003318626252,5.77388861449278,0.9645926388023954
1.8657260763812031,3.3276146503400343,0.6946745979782062,0.8664213137098266,6.290760931872713,0.46006897925876705
3.7077397307139357,1.5987882338233408,1.1269070944371034,1.4537420921169395,1.6721557738505972,1.18464133176624
1.948626150109929,3.3971353985511907,0.7810216853582649,1.3013914789083423,2.1972735154837495,0.6849777388073437
2.6650502518257326,1.6466565989275903,0.8643775160523964,0.31921471024785225,1.0969767964151018,2.0003772795870605
4.127223656182069,0.9943664930427427,0.32695082566331085,0.9577596010145812,2.681592269875642,3.1906396179317205
2.9818959895650177,4.0108782460416945,1.6900435932985283,0.9925831678015408,2.228958459195207,0.6984346984789492
0.9694055130631883,0.9338131195272763,0.928489454140373,0.8563725294499551,2.4615072725580873,0.38448995179032
