Gx,Gy,Gz,Ax,Ay,Az
16.095347999999998,20.995865,5.2194970000000005,40.199999999999996,473.54999999999995,96.34999999999998
19.521369802628662,21.257746608672573,4.194686212173736,3.1201635727167893,4.65499822716296,9.28313711056892
2.426898617580741,30.053125597701438,16.80507038615124,2.4196371255769566,1.500456282759312,8.260692031386668
5.450709345081582,19.139158518179915,18.468752841431538,2.762476512821244,4.0490246424065175,7.307914855442309
23.795723112657374,91.95469009808514,28.496655311653765,9.171400987639991,5.093140427045172,8.634718948926155
36.41148259262913,200.02976412326424,20.12694299846292,17.668197044217457,10.296460154356376,9.957837812931514
19.53974313973792,53.54653966960473,3.0190563769682552,6.197616264123333,8.135271462166957,3.899683981414615
25.012447599320648,34.74754274286193,15.451817040248587,5.313119837043664,12.064476472473249,13.09714794557841
22.650386558524506,59.644986873214236,18.964132415577904,9.64189731693505,23.663450546924928,18.47390605183784
90.50838668958852,35.0533465913023,8.932433839749448,7.8115607096764546,78.79956697012392,39.79572474893201
121.96847210786233,57.50914277572409,15.665239985699644,11.712130626060352,116.80553891950501,66.13643129936416
22.410968113334,42.29866265100577,18.95923138036967,8.737204536017988,33.58336075436941,17.34060846330005
15.798742379070626,23.07627576744568,30.969816205888645,4.379868871775135,23.62262265881535,13.807403711379314
4.277324538487482,42.58038714398655,21.74262907592416,11.082995719114175,11.547906429124192,7.086268294522747
14.938188248825801,43.85671593693556,49.84225707701637,23.07728280175087,11.370554828933198,3.9566984880556415
26.179973606861008,120.52838198491244,23.550416609278326,32.770565826611126,14.450472093469186,7.886131035236605
14.076463069089105,33.70690501907484,10.681707906511097,12.259915363023593,14.661911290780258,0.7685742531340731
13.641844455293207,8.816965639501838,18.493179446720227,0.9526023799189255,6.323015157809218,15.875797894086631
17.967566062834717,31.97391256710361,13.104577535081749,7.504668570407173,15.72290995608823,16.384163236122877
24.878265507454934,34.9221479027906,15.493650282109197,11.118272931865423,23.269837867407006,44.78536926569117
9.094142200072024,60.773534665669864,5.038622663011795,17.763641449175648,12.043502109500002,21.541094363906822
3.351489422144932,8.998804702036594,17.800390573348455,5.782953446298936,9.607458762269506,12.303249846256998
8.22971595432895,5.02679835536796,8.499935131658033,6.089352024290182,16.507059152916387,12.097398039041732
5.998425239897586,45.8708447047525,12.565955847844085,20.992480363954947,6.902144407540238,4.772310494010145
1.5911212780581752,21.094391797856346,16.37067329343298,13.662466827339108,3.272898313194557,3.1093635777162083
2.165121355409564,10.47097859617497,6.5774332596801,1.6270148739016643,8.460492324269804,3.2753401709658716
8.949980184290407,10.10443314378577,5.001733198031012,7.267371026515858,4.525875930587583,2.242614821987268
5.484506091682414,2.5476481785929677,6.8197098753366285,3.455920108119411,8.677549795580743,3.677923907296437
15.807992039089488,31.61146652862525,3.4799371314439846,13.902684868263549,21.296416197372196,18.690301081144913
33.14959461500039,24.176470413542383,4.801008809030846,10.82183321630401,17.415373913348926,28.345528559880442
14.801146402919791,31.573099389122454,9.448239482549285,21.384111920787614,17.954085673038676,11.243614459084727
6.864767873628839,19.827853977351598,23.658148554933277,10.915980410298742,11.194119886013999,2.9166920242944196
6.971165230573942,26.967017654822303,9.614465214331982,10.131808100734768,6.645599927863887,4.311096516009624
6.563778215106422,10.677144945838231,4.961493675745891,22.4573852421865,9.344255298864507,5.06871413419356
13.40066103432667,20.043434705353867,10.208086149811379,13.735228110208073,6.1223779008262715,5.073554785394858
2.423278722108719,20.968630474798076,9.466615856743989,22.768489618574346,13.850554997799792,6.00178285966353
8.865341226744423,3.3913755308458526,12.561828882399611,5.640711181251908,12.438301330058966,6.775293050511319
21.03519969862869,16.1538406998126,3.429390517132849,8.914751711116676,16.77730427714027,9.358763852237306
24.50149186136507,8.456908488982636,5.658401719441636,4.922376637270534,12.192721057171354,9.22476669343381
28.351939748858996,21.467367239719827,7.003543987193085,4.880734661325127,17.837779965169123,12.061533658965576
35.39475341789497,23.357613947625737,7.411441966144237,13.810027973823376,31.149720433361082,16.680810683116547
21.410080631300605,13.114144774783558,5.3405672381835485,13.493071581316926,17.429819154777178,10.575928573980978
5.2407510738752014,35.52310823136728,4.60637542624712,17.910771375306346,10.065504084189948,5.131829435887361
13.143916939721151,9.04440166785751,11.514993199553034,10.876854504120516,9.747463546282066,5.9219650336865675
6.643044048873153,20.07792790282531,10.959668877700478,14.430733054750288,11.81628217169437,5.084100247798811
24.704643276774775,9.900586932264135,6.9398866262000025,17.39928738290464,14.542151425988683,10.325160218586193
22.304017014888295,5.02642436908839,6.625301426999307,14.838445120274356,26.810282133680143,9.088344529386085
30.83631483491434,17.491648116039,1.9222993757127382,3.3073630223114683,28.837385513819854,11.202100887838435
12.953135469379225,22.660042099813793,6.831879235193142,6.564921608660048,4.841029532254564,4.787798828847427
30.70761924627068,12.838700746574455,0.3345257261098292,4.741874680327795,27.766218992102004,15.088764740697204
9.817579650464603,14.683598054782976,2.6870153985508254,10.138604125761676,18.83714435130822,8.77837714761804
23.6391309219371,17.552004703619964,1.6771314869857594,6.445651995413935,27.363014424904673,11.89777959176057
4.002091369428522,11.210226328562483,3.88510219251151,11.706808602748088,7.955199992678207,3.799090513142477
3.280384712068312,3.36791239171274,3.7756469440957474,4.4563178511319785,3.160513394202764,0.8926232863295792
9.170727573282631,17.19989145863321,6.691466496749661,20.53286464039472,14.587569271588139,8.426727656377917
15.706150765534046,4.1635299386606395,3.3664673256308304,7.811683436175749,2.5780652880041877,6.238904847969976
23.754487573998933,11.369879677261626,3.134505780491881,6.847598821622249,16.262447723258568,9.75208044912356
17.25040175230302,7.511601709430914,2.4279913798897605,3.5641782270479174,17.88241000453097,8.86462902907267
5.501242109152385,5.58184855063876,2.759242915651114,4.7187840927722835,1.6199334374698633,6.864116397734079
28.358806784622576,13.233657943294178,0.3621348622490874,7.54769100992599,31.316127480281335,15.678380242124835
11.997612990223269,7.269855515911737,6.129622286939419,6.952353215531305,12.26422329731499,5.309510745266457
10.626939926176119,13.325226643732671,5.649036678549896,3.6155770862482037,16.914158895597467,12.020054653155185
5.892669880278357,4.513533298996851,2.605375841589879,3.4982300389536243,4.55623533704198,1.3009122225525656
8.650888913223358,2.3816544339844876,3.5424666760496186,8.408069111383709,4.0479456868082595,3.73748008047358
16.368073342632915,8.87834255202015,3.194768603541299,11.077377075995745,11.617273140225699,9.246905248497267
11.54872030066599,4.459750683717387,4.074714408331646,6.035435011312624,6.909348400728691,4.552835655120293
11.217985881485923,9.657360828064704,5.783989422489128,7.601077534523544,4.766885277593427,4.553640831770655
1.9264896174559976,5.730844356153383,7.385643824850384,4.8307985299606075,3.8690440101298105,4.447662972586408
12.744185905522317,2.6827999449479756,2.1783610400497673,8.048852155408264,6.133293690710491,9.787085894937583
15.299936380988505,9.935544632190359,3.6836953886231187,5.710636760169411,12.298344381638275,14.26592897019862
7.50612836965421,1.2716036523866918,1.6305525427460237,6.578516658693011,7.497988429755843,5.973219813581672
14.666980518665211,11.019696391105821,2.429997744399211,2.554770608924675,8.714596606066232,10.674981835396787
5.6353479881579664,1.968855750071353,6.704736081452273,1.9457815149464035,4.859797244825477,1.5858058954179115
9.356967235937994,4.198133490888346,3.5229692424809076,6.522943141680314,3.5776564243531257,7.439549498812743
15.575436992474938,12.814104185919476,3.888237896954463,7.222600090717672,6.142418345649864,6.543700250321284
12.706894203404373,10.343217928392958,8.094448710039451,7.815342849638444,2.714517250520696,7.712559378638293
0.7153215628114803,5.642760177497523,2.25779159339557,5.411802352658915,0.5141691773994964,3.872390332423774
15.303443242914147,4.116610428291413,3.3348928289599997,7.02415348415853,1.6917073116259034,12.202047763051317
11.387479262847217,6.544346868773496,3.6793594814454607,7.459507587707693,4.2551262947923805,8.88695772436247
11.13731898724772,9.917563593258512,3.3363173037628915,2.9604619258952356,3.5934062082396863,9.23054021292083
8.681644572296776,11.724375230650017,1.8180504410138765,5.364366622848598,2.318652646119791,11.128063966054627
9.394603931645621,3.160639800328734,4.537794898698069,0.6952944181403151,1.3515163091252325,6.730860668254797
10.798561234240447,6.755080637608429,4.899932936576882,3.887536455119382,1.9195090186438117,7.263813320627056
12.018995914238902,8.618739093834563,5.160623772813894,5.501985463987961,4.64067552902625,6.432135951914829
6.745119596099396,4.180976141231842,0.449522542787027,5.131318721482725,4.402339205709095,0.65321037997919
4.327872283924322,14.70640386440982,4.23712607417593,6.54207463488944,1.8031280511470367,2.9808520076562317
6.004302331642182,2.8655013444430555,2.672946524283603,5.474887234220966,1.963769153686608,4.770818284449742
16.382717890974163,4.2178151937760076,2.4650796974231537,6.175525851562772,9.331387282394978,13.128567572792015
3.8373486871338707,8.58574268889644,3.852628801992557,5.206387276990418,1.9661513606550929,6.440027149931741
7.251869215755811,0.9564932237062923,3.9717084893135435,0.781077729111224,1.6478632365738568,4.710782249465948
13.03192305356091,7.658480050754286,1.8334379669545495,2.4731152920028814,2.455039294705187,9.877612236990455
8.461172707576436,5.810179287524512,4.938471546567083,2.8982947100458802,3.093695613937112,8.999580679807055
9.40775934661496,6.642726021251118,5.100080109473685,4.564615696918323,1.7423536810976235,5.616006840092237
7.304501374091133,3.771967655252072,4.524946506812584,3.3501200635555475,3.37080646824865,1.6331387170550948
2.7369147717673057,3.007828154942918,2.3670337393522782,4.078316663309986,1.176585730869403,1.938439554575692
7.30713384456187,7.860130046844894,1.3914030815372975,3.3184836030640845,1.6425797939030762,5.651399999318813
9.62629706399132,4.739853024640447,1.5549271760671666,6.419364439468421,5.335099704360722,5.494462144953237
8.181749946462894,8.075253313702142,1.6177327950392317,5.3066547703272935,5.761930017980479,9.978067141236675
4.354870656310463,5.782703673000226,2.8240971699605812,0.965262810715563,2.878106695206154,6.172956767219618
