Gx,Gy,Gz,Ax,Ay,Az
7.740032000000001,29.092979999999994,2.8121540000000005,52.36199999999999,530.0699999999999,11.018
9.270562759593282,20.010324393653274,5.247742438750197,3.5199749501373754,2.0688124459445025,6.158405952465361
4.188945488208753,2.467380869767323,8.155424059880518,4.08204462712961,1.255170658958165,2.331420872749796
9.001679871625097,18.714456435401402,8.977801456597463,3.037163760837403,2.4840454888993446,4.7600860549917945
9.574648336935617,65.76000416271013,22.612562229215808,5.337328025621886,2.3065781211486693,5.581104126126559
30.87594788891361,115.7125294026275,23.74276455923775,21.45735617470778,5.036483953037463,7.008150564286841
11.852359360311919,49.23240771018477,4.625628108413189,2.2205643641344612,3.9492788046769287,1.1623798881037448
10.25217938994989,26.81502139988142,3.9052196443313756,3.9556236545640204,7.759425936363927,7.852526721551908
20.360019510690403,8.135012253141086,5.955945750622067,1.0643971920597286,24.39304854127079,14.34242060461161
41.78725300867251,30.241299094893723,14.730800987939263,8.548306824368547,85.81734840801194,46.52547020772662
24.26736561122722,57.073220200266896,7.437544141408668,4.035083749073744,50.745827867493745,30.165043281622797
10.22236833999812,30.652389526674998,16.22594850455853,1.6614563569070586,4.687616838973819,8.816440077033107
8.07905410393508,24.255325273857547,8.506959135191964,4.249508312394998,11.24711585068407,7.553783409789246
6.662896122797748,7.491626620788941,12.511279336890421,3.525293277315191,5.349168124078297,2.4137761629636962
15.254459144974376,66.61301674293873,89.77275559418986,21.191120746197683,11.172956686136452,2.8338775121273625
6.752518104669147,42.42153772947738,32.08577660337226,12.545981732235806,3.8835855265616988,5.353968164007496
3.539111979150407,32.236720118054734,7.280101427071432,4.939264874216436,2.6135206990229323,10.362333488941228
3.3066750439719264,26.44550995258018,4.917925743646061,0.8816873698167461,5.9876019456031555,12.018375785647317
3.7266432691786933,22.73944883363789,12.342674790395895,4.946836706675913,9.475313396733002,13.212692807493982
4.713274091287687,30.5001379389504,12.86783735494792,5.674386877287774,7.8903020832416875,35.406696444655736
1.9921109069625251,12.936990534023352,3.799588894196168,0.7590181089184576,3.1922602948699357,8.800392910270777
4.180092457091279,30.229579313531065,2.111126120543987,11.473135080990643,3.7868948700051828,1.8272768304769753
7.932274463413858,34.97814128538907,11.139908781942225,20.370285375788058,5.297498707883975,3.426743838390691
18.256521844079373,30.523502077366583,16.3927460141753,21.057680438246067,5.938166198613973,3.4449805989979043
15.28753366942128,22.776040966023302,8.925170005120009,16.811749793156636,8.942307867912962,2.2338823128781944
2.246708263434585,11.551954250060001,6.417758227318366,3.9951789607022024,3.7132430660409925,5.563165994378098
5.621351869029089,7.177001647145144,3.932415073578233,0.89103864813151,5.151321579236782,4.197794213458962
5.756600320082861,15.74168027201118,0.9111688575945825,5.625726323155273,2.2264814689196033,6.10856603351701
12.559090505923402,2.8897321178761475,7.822872059346298,6.321292355104636,8.59856395575057,22.48165711211485
9.25148562262252,34.42638176459773,8.985391808001934,18.457058838471944,2.218250456603146,12.092204515972302
8.86925586464849,19.880659712052562,7.18139354027556,10.728233457881155,3.6652605880915137,1.0836397070026496
1.4727378713003987,12.788007719156909,8.84004827096461,7.810377439672532,6.800700412425748,2.151628671419359
5.243170828426951,4.853234806949034,9.046363433235204,5.939796419129409,6.0098334405719305,1.8166394318336614
13.277376287160978,45.814107313267016,18.46950871618651,27.015235986041954,12.30059188142957,2.2291203341991896
2.6709909023133243,14.73774717290368,10.911263432919549,7.335569467002198,4.206693426568252,0.7761342333102034
6.162420487784683,7.937540662974893,0.9182829248870582,2.103980210580595,7.745593359945172,5.198577296804535
11.034411529757651,11.245625699182977,6.8774728622750025,5.264864961233999,19.315032717277887,8.381072335594267
13.247241658010738,3.039458918667521,3.2795722205205653,5.751886713281678,17.6519628811004,9.913515953620708
12.196633416214526,12.604695342953226,15.168339088392859,11.584241161279033,16.125603486535738,12.463649169858694
4.650343966305574,12.231560461164385,7.240881159369712,5.409383291549017,5.035793646295701,2.0115820715531068
2.9229909892136154,12.017943379020481,8.036917169672886,3.893913304027425,3.673504010470902,0.6960139311836002
5.044578957155478,5.847198549138242,5.614885531684544,5.40810889452824,6.496779629419785,2.1463921649660036
11.347640880542569,12.27945000729399,17.576046319423057,10.392415178736286,6.171324054436501,0.8858019571496315
4.584133465258257,13.914343854128303,15.651971089614094,9.86649695390447,15.721852984429988,7.533834149957176
8.08609348024107,4.805742322368231,3.2973930768982966,1.6685392749087524,16.640869543744504,4.8888595075055195
8.151129108958154,3.1903286686519214,3.2554416308285,1.5551776593414972,16.01710658991849,6.452794766895773
6.384907138990257,5.3840578915776405,6.286160161442566,4.319136041656787,9.06302409303966,4.179192708378989
10.820337384811086,3.2606292595998827,10.839409677421923,6.418454448338167,24.91772104407137,12.621026589998824
5.19868020301762,2.306453850659932,8.007756160038639,1.5115439259514436,16.48828755902666,8.304733928889249
3.8186377744850226,7.192653550079765,6.158593014609731,3.400070579774005,7.27769593870547,1.2518748635800752
4.91275498734182,11.956640273271722,14.165186791051234,5.401661743203645,4.76592250771144,1.7038595210587537
7.209593413826718,3.6202376603259223,7.911953892033105,0.6669820491642587,12.648836168034684,5.831592851922094
9.37793956192466,12.200111730329285,17.34810327877486,8.52326941571223,19.604821608192047,8.651943462462347
6.335813178556845,2.1733722426362148,10.396836532153586,2.608536484306148,9.208101302331281,3.3820237235853954
4.631601547589405,5.872104058429977,3.472626969015641,1.9150594158763972,5.854593545306606,3.0259392642296077
5.571874149927952,7.389917242589646,10.171485230199613,5.29440506018093,12.177202452106114,5.258562614919363
9.115273944126722,4.3843643619648285,5.316520280518511,3.1543090060009056,16.576651396031117,8.244792030410377
5.678662653116812,1.726067648394549,12.15567809206293,3.8728212751819004,24.03727248756038,11.832920838563409
4.557829841927323,3.424416816272331,5.040268864564105,5.595747594609346,10.646554383054452,3.6266769605590357
1.2283112874152347,5.290589875120558,7.253115265213679,1.9520630289555188,3.8222706069564336,1.973183624084479
4.991741957392534,3.5319794871908963,3.6047349474822825,3.8656116226148742,12.95508085565465,6.188307967945861
6.560832772297368,2.5972410083237296,9.425969912757623,4.531492863601126,12.557377337301045,6.2335097736870555
3.2023925755690534,5.2020974723181315,9.440025807022362,5.104826261000687,0.8732083736541266,3.1252475453663795
4.457189101403072,3.7328648354205445,7.161276754881992,3.1624951521244453,6.464007587727682,2.6332980114928843
5.93980112653464,2.038392289430494,5.004271826990735,2.5117941144685965,10.062961321595434,3.442024021066519
2.6173028217654943,4.142532591194968,2.686285435449383,3.967546460918102,6.371525308858687,3.096128841869009
7.08750545173038,3.9913161464715836,8.743926309320011,4.650810232755959,18.615078349914484,8.752337549470276
3.8519759961122633,2.808490356836807,2.7851472157048853,3.1591972960738026,10.333337610775473,5.9689843137687655
3.2199482284576297,3.648183827192045,2.8787471223353736,2.3956747212230227,5.758797140144732,2.7392087901752973
5.144188608194407,5.366598533039371,4.391857770662846,3.840724665467201,11.194471982934326,4.335616669911148
3.4736102028784765,3.201646108933897,1.9233327806442928,3.1746682779921787,6.968982524130045,3.178951705909063
3.2034823372865406,4.771353079950747,8.050777004454755,3.3187168890891368,5.620016031562739,4.154015634893327
5.209984045025122,0.8049476305647082,7.379383031400518,3.0935738638059176,7.948934181412758,1.8194390651307037
3.8619117120565103,2.9229940810490334,1.3198894316234984,0.4903442229408541,4.093555231126419,0.39094308658964827
2.006973768835069,4.526891753114754,6.0134134613854355,3.847531837099091,11.223652226195979,4.014664119828616
5.13914924463715,3.9965603873590476,3.8287192223430715,0.20458068199824717,9.671105127709623,3.079354632592926
4.778385496257933,1.6227014678314289,3.7950608250512077,2.4086724821486514,10.75179142038341,5.043559279416929
5.211996792769359,2.5078385180293776,3.1580184151391246,1.385492144409539,10.757606848737877,3.8360177900218027
4.023628148431618,2.0529105409253026,2.159681364318045,0.6513727580357078,7.525255285476428,1.837553552967471
4.597953759079294,2.3667571657200486,1.8653333567310169,2.3207012222454693,6.971585098755998,2.0114149963004957
3.3264282688609943,1.452358363879143,3.6194974759634144,3.1027793312676972,2.9058782496296547,1.0152957251017798
2.6606894461519848,3.7364034690748915,7.210401822230571,3.4439930203182882,4.790025683215743,0.9622974466000622
2.0535932942097825,3.657822834754868,2.714588146063691,1.5773506145950198,3.3887699592725506,1.6064647525157614
5.059544133682287,2.479526934850426,4.672314405641488,1.7961187023451577,9.292065252837874,1.9957126645340977
1.935496329138836,2.0624992091382093,0.9492141924382677,1.6145597241922311,4.985920125940748,2.8401700366847513
4.1420340761785415,2.062504473599489,2.8185011190935363,1.0547715369228305,7.812271186705774,2.229687044142573
5.523147265308397,3.430479692202579,3.3640186189532666,1.2595164092312676,11.638619005322713,3.9820100296175873
0.41995198467509454,2.376288878343719,1.2200440229817735,1.20686014047357,2.972985176586894,1.4755489702975026
6.499426063197549,2.358330879819331,2.4978954942907676,2.2462083459915663,6.740717680530094,1.722068152114796
2.736349908351195,1.5070569448858653,0.4386388371203366,1.0398327593044896,1.6207416109708608,0.8370907612667511
1.3352302497693185,3.4581167013110594,4.889891186864219,2.1759250897064866,3.0803384620857686,1.6162814137658514
2.5624191456324827,0.7940817864022716,2.6007195237313114,1.9869492799661652,5.415422073378316,1.4969713366001396
2.8078701665738697,1.5585689225802681,0.7783920210085234,1.108031515159754,4.018185691253736,0.6663838281915476
1.8576788762725294,2.509372151527331,1.2398783513042841,2.2321729499787226,6.478898336794049,2.202165253313147
2.8142003994326403,1.953218388663259,0.7813698991085568,0.6622623384712761,3.09410273093881,1.4526415534223451
5.055036684873671,2.187133947588473,3.1348097921592024,0.5269351633076239,8.479993631031041,2.8580479734836457
2.5503984583760495,1.5376194995416943,1.9858927808172981,1.0053793470734584,1.1565328559048895,1.3348747057340815
5.109901099676192,1.761018119553995,1.8999983350898317,1.4844067223890498,5.264842485567865,1.4198282566039206
2.868154537626033,2.755640083787734,0.9160529830644272,1.2212558142854906,1.3877417200678466,1.5213094210383062
