Gx,Gy,Gz,Ax,Ay,Az
20.838367,7.553830999999999,1.2824019999999998,15.120000000000001,646.27,37.879999999999995
8.18588733742713,4.090429434833609,5.441587050363862,1.6925417470591468,0.7191975836787341,5.712787452014924
10.00177163525375,17.595621637593634,3.3591916759595692,3.0455722942946153,0.3546051802530991,4.092809031266509
3.296160841752145,13.780707527333242,2.5815737683025692,1.6926581194488473,0.6424176953086481,2.2411516570727708
6.7318596131102115,10.818382046924407,10.15077386534813,3.019785311592663,1.2341093095156195,0.2501325204099088
6.9005539663805235,26.44574946893534,12.488320294957507,5.5610345813309445,1.1708618787561977,2.3424057719442026
17.89291403625586,104.92246890137584,69.06135871741539,29.25922644641955,2.1691978672292733,3.415537633381961
9.666714687954451,23.758597797502482,5.46196786701996,2.4156589815199774,2.9457099374573152,3.738085548776077
5.392541574213542,8.109285168984696,5.196473968842114,2.2350062108080637,2.0856212758607025,1.3288238062746565
16.709253715462108,15.529529572632764,5.655520594969104,1.740203741624077,5.138747194452686,1.8242148151768567
14.525114529730342,29.628157247830252,4.402860414805505,3.8809476332174064,5.666391571091274,4.19165023790743
16.170119225671563,24.327846185284656,7.740898969887194,3.1300174024442344,5.242347559478198,6.276149764996453
74.365511705611,22.280361092673374,9.341060503975532,3.652601633214238,68.18763005056674,53.51208884601716
8.913271678643206,19.981923480263895,9.980417574615606,5.360224732651866,12.267647725166198,8.629121476928724
7.983656923088502,14.088762527584493,5.075304923294968,2.9215517224891787,3.825077094084965,3.818828948340288
8.032645849373356,15.714191591994558,2.384361675971369,2.9078741301050397,2.063380001457925,3.71539624410802
4.595233287156304,15.329858634476787,2.667786933131203,2.721494234911699,2.982239681872665,2.2475864768398357
5.925560579802369,23.06750664855399,8.676780399678456,4.549896341412718,4.4631556600335465,2.433303403705986
10.817514971384622,125.88738027366186,53.6482203020626,27.495487763427896,9.717509117901006,2.825419922530416
6.713427551657183,38.862172756762845,15.261031167716508,8.710672044543685,2.869711832572984,5.602810247757911
3.2851128414265784,1.1076578371919974,7.371336341679695,0.6292237801665232,7.173742231151614,3.4607428045951227
8.019402718450499,7.176827368347255,5.266764624654068,0.9433080876201838,8.070443031500616,4.027772350910152
4.410941254352743,13.715763997546883,2.2244436631497804,4.187701571246301,3.936939692560134,7.377660882453599
8.82061709070171,10.82104052623704,2.136165188494355,2.9717602029647816,4.103385091772165,6.931261821196164
10.249323282439276,23.251886345118496,5.931664185794611,10.114785823097314,15.749343374792112,31.55864331744267
7.234912737358362,11.347958511480272,2.0072478327101977,3.48531155037441,7.434079212011428,6.730779665105245
3.5110551514909134,10.861089566392538,8.584287019526148,4.337669801956762,5.95607115845541,3.415207092297152
5.834254754354215,9.954237292198606,1.2477404871424655,1.8393461801938142,3.7952693201337,4.060896735177585
11.30787485378024,8.594979362938169,2.0786720721707392,6.017156578318833,4.649376614328669,2.461338152659454
5.769090070098803,24.158759126793687,9.536426466921835,11.86432648757781,3.744489976719394,2.1203484752088015
10.584616111422008,60.25712965178153,24.21914805260287,34.36968514750189,12.583270074313557,2.53825107061316
2.85555521907663,30.511626033575418,14.95366507377751,20.788425928000592,0.7379321829283283,4.8132315883762
9.67843288003285,16.31053299047605,8.022073330724307,7.873303059325217,4.546251960936521,5.525640397719562
5.471203759267299,10.141594343361719,3.265689095819451,6.366616671801002,1.3693335444100292,6.036978248532674
8.478484797899906,5.446755839884433,0.6103584485158995,2.244836056112879,2.466710892653096,8.42710837806798
3.518662620637899,7.218705689214901,1.708771937074787,4.5011226703603935,2.8834191783586713,6.10086517473858
8.983538560010286,13.475214047106961,5.376007104650938,11.462683405957106,7.218155515129164,19.87571996034087
13.559085980412144,7.924443063304233,2.174169304057276,8.81473276767482,0.9446916470885554,10.043351641353324
7.9068856522959265,5.098224176478035,3.1026056089992307,2.0264025726248893,0.8913217345990541,6.097752518350811
6.667134116424141,3.756851234734696,4.539652484498417,4.426905054227918,0.6158033783355895,2.4752236185529646
5.695475912128338,9.94838997883175,5.189532522598608,13.799803669798509,4.847290479679474,3.0708125372096857
4.9594233062730115,10.068672479433408,1.6639583214396862,14.562220557758156,2.21739992961249,0.5320843266696846
12.81861961070282,16.503248485437663,14.197518778827558,29.9374040056029,3.517718295766448,1.1209154306452573
3.966257824646635,11.526501232087616,13.496695926912896,18.050111097832318,2.827534733415801,5.29902092317542
1.3033438750052508,1.9086504661393746,3.1580328551545485,4.8348796034053505,2.900037998432234,3.3831185459293858
2.7490466473811135,5.9147908218411365,2.2110250585347115,6.0662588229805365,6.49274079195144,3.5289516613037413
4.532940573737934,3.7189689495405935,8.45318877109841,2.027678657291001,4.3198828820652935,2.9303434799281782
8.309746662926612,6.140447640531845,2.1994313547022224,1.549954235835214,7.015943223312415,2.852928077746495
12.150126252203375,2.0362120167432196,10.080943020228688,4.247708296281915,12.425815721042781,7.143332520435294
10.720296945192027,6.812025152856176,3.4619443044601397,6.481923579104139,10.87370469161595,4.017708534891056
8.033008342862928,4.458791419285377,4.239854250894586,7.819090714432501,5.629561024411636,3.5255590987855876
0.7567058552134474,1.9889191951011813,6.1824577127538225,2.871594664203339,3.8174808974635805,3.0631421875464997
2.7531188357476264,1.4345317853718396,2.8039768696337526,5.325528634321133,1.632300279973886,3.8816521900222236
4.423878979708152,3.889826006909364,3.423211840219018,8.086897372820893,2.570001744623264,1.4599104849783882
1.9579690482512178,1.7449302465538525,11.120172974071425,12.154329375103528,8.041607051350848,3.3586166478516586
4.323159549997126,1.526423383739686,14.872223131053,13.581369069961701,5.613576503572426,4.600834810192125
9.241682331594719,1.7680122240463323,4.737323168797217,3.361943678716683,10.18522478853979,2.8596258575281293
4.641140183988041,2.714501467167139,2.8703113341188145,3.8125250985012022,7.894439268798822,1.8262556481412529
2.9645948693492246,2.461017093325135,5.598898862942882,3.720688285789858,1.6995449293313056,3.0754377742380297
9.735976648057957,7.065105623755059,1.6218065965507447,2.1962308923215015,9.97044320586233,0.5377531807315309
20.257417312424618,7.718189752134168,6.466767684222554,3.218296142228026,19.6213160770312,6.656452328535386
13.527833589232475,6.387442907568748,1.7304582042751346,6.305490853430088,14.496038276766324,4.918716114217674
6.334624505658782,1.388513709731968,4.263057493738306,5.820041702230597,4.10136081235484,2.6099396821416185
8.421895036541725,4.6687768026933485,2.505699779815559,1.1841230454131833,4.607662028070455,3.7170159500635953
6.519826719938965,3.0937555592282484,1.2848789958996998,4.114487267303681,4.953943292728276,4.4346888942948794
3.653572003426497,3.6617534221758485,2.7648226405629677,2.8510874553361036,1.5990016441825916,2.505537562280676
6.18916422749045,2.694323774480081,5.459574645078756,6.234674882052876,5.644887528477165,3.9861630865925832
5.481165453825367,4.96013339641711,5.960616198179195,9.183400305104362,1.9588897874145141,3.191108049893
6.199369146020706,1.5529664342901548,2.086457307600228,1.8656889107251216,5.5381732948949525,2.974732441611834
1.7130702479822784,2.9976903687588248,3.2634954234815003,0.8791914160079415,2.7389619361081956,1.005329987864689
2.4996467666067566,2.235841441857817,3.851572119459967,2.9667258584804355,1.8827776341019267,1.6897075044985892
8.986390998712846,1.8893607027932986,4.087552788657423,1.375224563509263,5.479707614849466,1.8042628479977052
11.952571279671494,4.3533806836229285,4.711989793336885,0.7859324408268082,8.41031763639132,4.577372186253408
8.847424080150489,1.977234288465416,3.5489358356556227,3.707399425035433,7.876343337266867,5.5411012541245475
4.721322829762567,4.334762484389937,2.0386689006538097,3.900472532762752,2.3621575189698487,3.3509650002536793
6.504705329160825,3.3970189058757168,2.4068686676035433,1.7882036449041876,2.5171292858795065,3.0052854881635698
2.2718930854626023,3.16236820993977,2.691990795414988,2.657315122229784,0.4449576464967063,1.6883545000535531
0.4055688900441632,2.674438244892968,3.8065887863535655,0.6763741998287996,3.9087322737138903,2.0158848561801173
2.341941845820876,4.026989482293586,1.9331254178669635,3.074079319596284,3.292254155157616,4.279866789456894
1.5072802821405675,4.403972835697137,4.108539183925385,5.442858593639228,3.1626602631145078,2.8089190652729488
2.5270093111646132,4.308475348688538,2.397122226380264,1.5763682678389888,2.351002123966856,1.0888290720840055
1.3175161038718062,2.366668943754737,4.021092370844775,0.33806323864737675,1.6568654429428422,1.320662312420537
0.32666091498656036,0.5087917754389717,2.671314390001958,1.647542338929175,1.2217520974152922,2.465591573244431
7.794480681120663,2.0156191055549746,4.976226816028175,0.4984589231368523,2.495250769690815,2.7919379693484228
11.860161391161558,1.478431506079332,3.0612193780849806,0.5339863388733065,3.285136514673248,3.5532111182687682
8.33832400894421,1.6432480189658647,2.6858191718763123,2.485671397309291,4.556788714793656,4.654890962740605
2.136021135468174,1.4091539388573366,0.7926570920616614,1.1660333407846688,2.643026608883901,2.5047338149100167
2.8317614363100088,0.508621901039897,0.15432357663326257,0.24166067255887458,1.7229092896686247,1.5738851935511862
1.8011707422846046,1.3017098217315675,0.15401239479767392,2.0193189383122383,2.447116966014891,0.7311635446562506
3.3896810937341058,3.345344863395927,0.7309440425980402,0.6763549220608367,2.93497195470173,2.368801659409593
3.2355151196162506,3.2639915062894302,0.9485977307566966,3.0441367536153408,0.07160942279258245,2.390464113460605
0.9447907572787397,0.5180892809270684,2.1874786566756126,3.2991252384935534,2.7825001547489023,1.8516182532082706
2.5888432412066544,1.5792260059167953,0.8876007001818685,1.1909109365226078,1.6298591079936244,2.0320702086453495
1.7652740158234876,3.505657844609911,0.6409443010535991,1.142435226050493,1.8678590814474056,0.8877368973938606
3.4908717952034816,1.4967659224179393,2.8000805189083176,0.7187927511626401,1.329580831573114,1.6848767002771474
6.283466581865166,2.443363831996222,1.200124902793256,0.7865269158160784,0.29605340860857826,2.002695233526942
5.035268324157789,2.3352615245375774,1.7759188328261968,0.4295960952204288,2.093391931494371,2.455490640289329
8.015838201174189,1.1407683295441884,1.7649152568260782,2.174790538551533,2.5596874293023246,4.176224595148059
1.276076558030412,2.1014334491131454,1.0969911147921694,1.3692777262284825,2.3284527793275336,1.6113510702328189
