Gx,Gy,Gz,Ax,Ay,Az
13.742618999999998,11.524794999999997,5.787369999999999,13.768,620.3080000000001,100.15999999999998
3.348506407849575,5.459574781916415,0.13697166840823757,2.299515580687015,0.6837388039974693,2.923071544959994
7.364180789125056,10.05542801383746,4.541195287128501,4.786576182351873,1.4496865667726122,5.665972032507466
19.905126450048197,12.894886349094612,4.732949336835571,2.083111616236794,2.852295725248322,5.841017788982884
6.553377354970107,17.654175856036584,5.875511234012742,4.511092047922079,1.7606710492953137,2.2902324018247775
9.145370693206809,77.76513019418884,33.44081770953172,17.035980741603083,3.8740626141448047,1.730067400531205
11.069864671195726,42.04711451269418,13.791702976754266,6.485472762459901,3.147003088940317,5.6881403940802215
7.507303258397293,21.34408800891602,3.5421759030104987,4.963941911938095,5.294745396639166,3.8653291536688545
11.930646892613613,8.440524287871368,9.875947097168558,3.378509850311515,8.484679118722559,6.735207929823679
22.821860618893012,8.341295784469153,4.346877975861974,1.5713372626592714,14.859701955395819,9.268696490267821
37.51191042617589,11.955379099096616,6.427618084512798,2.3012593576303724,36.51655063517227,25.583128451131675
39.13359057388858,15.683104682895133,5.186761276460189,3.0528081988432287,42.39231348138973,32.078906566920374
9.903489008885348,12.583099609643265,6.5055995254790915,2.230816161150865,10.150811937208317,7.743278172191778
7.935800276768306,1.170939754452849,6.9928322946219135,1.9698603941418344,6.264098072145614,7.726757304381202
4.511109961327626,7.172562286943854,11.79515507144739,2.3435575995841034,6.669403382875327,4.440735318932414
5.534166375418329,7.0132436158791185,17.953471591268777,1.9810561281805739,6.124535656986456,2.635024863158237
11.3455053447306,30.403490094570596,77.61672267314992,8.492752574479463,7.7409802775508965,2.9446851807448455
4.66198160445909,11.376576842084523,7.194967563910055,4.38304510114041,4.8377597294575825,3.6288672860140414
1.8186752826948265,14.974927159188947,12.3754457376396,4.162809959028037,2.5529297976104677,2.224759652009955
2.0821449372335437,6.569644356714516,5.908020065175951,0.34741142310779677,3.9088539232788597,2.1448902435924673
1.92638597736703,8.797617968264563,7.7493734516739226,4.100041589893115,4.757034688957474,2.4468984472104487
8.587790535777595,20.218568941806268,9.843484658724364,5.417335958089166,9.34730350569858,15.962684046274582
3.9749894124229037,6.5881803262719645,5.859698750532161,2.3285295631006813,4.688862865260906,2.666624860817394
8.198019705539052,9.903085843512883,3.2098189245691984,2.874393664881002,4.472688976615268,1.6269758967493362
8.18820512691867,7.326534169061257,5.610976384872685,2.9951734879723615,2.882390957868766,2.273536226964328
1.0720864789425841,12.492018590296045,5.896140515879477,6.075143177871635,1.9307678914348299,1.484235380320399
9.654475821911674,41.15517339720947,14.198666351499503,13.317837939446996,1.7419471000921845,2.9528293206106704
2.5376815410304014,23.251955151242917,5.582006053905709,8.997111700372576,6.4224321341797745,1.3496147660522289
5.466242373915819,9.870813657754423,2.69504229453365,4.782116673769373,2.9748569703345864,3.02238991987333
1.7694660254407946,3.1086828763411023,8.621701825632996,1.6064641500389643,0.47260546486614685,3.497208703766257
2.0142801263678303,1.919279483478922,3.468602920583491,3.268889469681323,6.902216486523683,2.5992057295886433
13.94150922279036,10.890286200572083,8.045157551235778,7.310201422603052,8.548783790841878,7.58588747375072
17.2992709397316,4.317413626858915,5.734565772347072,2.1999139541556003,17.267268021062332,10.940883121274018
9.05798944715664,6.891741137362008,6.0898706301981305,5.8698483068810265,3.0127414713742255,2.812504771725389
5.41855097639695,4.101236433374602,10.09282314437056,6.010513420991817,6.6613203080990235,2.2907581280333145
0.6823475774038603,8.01373463489637,1.9214642114967624,7.697266149611072,2.4137702921427646,1.1484726483391796
4.636740777314856,2.3684399936513967,0.6259892051041057,2.246751089115802,2.162701151481566,1.3368659163158616
8.033612044774552,9.96269459614001,14.167158492136803,6.233825800063451,2.3095585956980846,1.8445898245734749
2.5583980568682647,7.612570874814104,9.954387294796765,4.038926706716996,2.9191721699202042,1.124284943665904
8.740646167318502,5.782010318997507,2.2144891290665965,4.581551693983563,2.6681858432877488,1.4183704383466944
4.6817049234487165,2.2382739113852304,4.891992266345852,0.22416487669964108,2.3404579660290166,4.361576045593809
5.584217548079123,2.6708998152554266,3.9835534607372423,1.786998293289106,3.2094069479956677,1.935065650126429
12.402535051369078,8.60195797462328,8.027961996668163,11.539684940451655,5.5430117305427995,9.351061931841654
2.213114605248744,1.4867001829455875,5.410251753833011,2.5283929507464,3.0893920388286307,2.816230908141437
2.606046728122277,3.3666850398795516,1.0211508855928206,4.699216566084706,3.907443678596299,1.5444081634778666
5.062295451219203,2.3732068330871057,0.22097351166034734,6.3706061339414815,1.3992828196305367,1.0410799466374534
3.71144025882941,3.8569207608943343,4.893525207060141,4.699498617803075,0.21861985165443643,1.2976706195428769
1.9101938279918056,4.257246026345313,3.7768688676594966,6.994468460085065,3.236131476043384,1.4215859472025798
2.1126126940889134,1.9592443530474184,4.282784064498889,3.022956078564921,3.3439881024476907,1.3253756332565785
1.7937159740661779,2.917542891386196,5.017006540434475,1.4489369197625652,4.667812183234297,1.426011257653749
2.8310174605794187,3.4638765044679727,2.9604707141452944,0.3425603116520141,1.1632473936754528,1.6056547434247361
1.299974383083988,3.449450830883424,1.0309902413583028,2.063445894373735,7.865646742853302,3.445061571896122
2.9241328109891307,0.3995732346218837,2.036570763786146,3.527364444162551,8.645833620049238,2.2072465271660637
6.311921650378404,2.7059033760055313,4.29287209017745,2.8916486200497578,16.76159870656772,3.801768785602918
0.9452320063810871,0.9060319223709261,2.339271583729782,2.8530058683012087,5.050771746305622,0.5945761916786058
2.6053877717821674,1.9296654522333068,2.8927882330921695,2.6526340580588443,7.108902144349798,2.457559254400448
2.41273727835503,0.8903589824246596,0.7738251192902058,3.567241103765371,1.9109714304934966,1.8460499864646993
1.6007279471333857,0.3276924903397698,0.5512536005239688,4.573155225689984,2.8356620445562393,0.3371585958274623
10.341121695622418,2.4484834673328457,6.310190729188497,4.99048150113863,3.385174857857917,2.6720730243873
0.3917699466422055,1.9147202230957288,3.3350702099962546,1.0209972363084954,0.816386287502668,1.257929872808311
3.4041332921841403,0.5446300688224756,3.8227501405296045,0.9160518469419021,4.1468270751510925,1.5065970621289655
3.059604690471329,0.9580359443015686,3.652512852285494,1.208969701110298,5.852274846562776,2.029966279507852
3.5425230528297758,1.1022465480414598,1.114398799439805,1.8987547034948253,2.8220061567517725,2.7460828799595722
9.480681359217142,2.335119269774058,1.382640624332331,2.532475490337272,4.827331498277166,2.425900480973076
2.5405712700027405,1.1118007321730015,2.367067309335379,2.1697140612496897,3.7751948871776126,1.902504725790292
1.5353818963249781,0.9146598071803245,1.4086774043450765,2.135711759054381,4.225070430292287,1.8555320433282287
3.0551750707499554,1.7464995833408368,3.1516393581850815,0.6745985246325921,5.051771076298303,2.779575760304859
2.291175401020772,0.6345006112436302,1.5708104340212778,2.872314548597474,0.7347607452759048,0.37583461144273017
2.711453745633415,2.0046826279762704,1.5742522863655852,1.2949357567585469,1.7572399738347568,0.8644949621137317
3.076935058224001,1.9797955322414866,0.6453939559915963,3.7870859340284473,1.0032457593317,0.4949121263980224
2.3393996862644277,1.3768188358533666,3.504307953096057,1.6192572212515746,1.7680277319624913,0.9337187997387785
3.330554729669113,1.5818379736270882,2.071185902166428,1.9583408683461623,3.708776978191747,1.2725281808947295
4.548259926047111,1.1442493770108146,2.1031242704025437,1.8156167946170632,0.828026071727479,1.8555057151293364
0.836140929449803,0.8760105066392081,0.2619224465611068,2.0666595926856046,1.8211789924062223,0.4555016786952684
7.388741973907649,1.774996416823628,1.0267364050720313,2.0028368776257217,2.8150869287801683,3.2306521806002118
3.5933714103679066,0.2978487844589417,1.5082273098287684,2.127247930081999,2.5294826855783232,1.4137407531640753
2.6844022091033253,0.4718688797436352,0.6081331045498226,1.567134727540963,1.6164613168124229,1.5514136946846504
2.665423656494766,0.8897282261040452,2.101625811635827,1.4623347087315433,1.5279622819238112,1.3497548627957592
1.6294741945985192,0.4022549242162376,1.4516336883783116,0.7523100329899155,2.0569949810700776,0.5027566406725936
1.0313057509006185,2.1670763398378368,3.8486770198928273,4.0759629039160545,1.9882019337874626,0.32333438760540867
1.6818714877203762,0.5122561409897051,1.9383668698332204,0.5896689116466711,0.8993726476652462,0.5792613027110904
2.6789052976832037,1.319541005083369,2.1483009593799958,1.7381749758110296,2.311525709641309,1.0738215508452227
1.3760958045103988,0.5519489162349248,0.9044677855345561,1.3288681982555979,2.8680287857628026,1.3006571543882994
1.3293096157564481,0.3723682397200286,1.3495806189104687,0.7452375039467753,3.988934041851053,0.33786763151989985
3.293611476251192,0.0300541257058979,0.901897660170703,1.3120642450394255,2.776708542558692,0.9766010327829727
2.351120436698069,0.705075672911736,0.4794435547914244,0.8330539504718796,1.3401876954367695,0.0766642436312983
2.9742094684065425,0.3409335274221362,0.3714841060453423,0.41179406204445146,2.3234526318409383,1.1887012994302812
3.7136370623486963,1.2273562533909834,0.7851425924241515,0.23525111473430205,2.493514746598814,1.4225824560407352
1.4988382321162261,0.21533824361967557,0.7767111911701297,0.3995830416074817,0.8790615327601251,0.6054954781676496
1.8190847439604882,0.11305539414388989,0.9390741576081346,0.7863603381393576,1.8681972877870412,0.284228079578605
1.5944320316430955,0.3004784378925425,1.739978017981176,0.8899440595180991,1.5417165320860766,1.2067202135421315
3.991966740404202,1.0413247109870585,1.2363970119653611,1.1242364966782779,1.2512787812782338,1.777510343038284
1.3075438229517797,0.41339439778311815,0.5375628346377739,0.8879593218833718,0.70844148556967,0.3333327873528393
2.369159311480297,0.5024672255626523,0.358336319935798,0.30764043345517117,0.19123920539486192,1.2532723519109212
0.7714715108337546,0.5443832970363471,0.5128979857546296,0.797124862139274,2.057513555252199,0.7993454809251787
3.3617350971964886,0.5458695241107969,0.5999955632261952,1.9919283655847404,1.3372330666845678,1.413993957448299
0.21897716752862337,1.3989801314894337,0.7116978377245183,1.0890129601235086,1.185927962603221,0.5069404885447318
1.6008330143022023,0.05975805237615458,0.6847076296570925,0.5335928277189665,0.5747385558226177,1.44330285993272
1.040314820385662,0.41834926700101116,1.0594070731496583,1.0445668422446472,1.3257386639975821,0.22489480892101624
