Gx,Gy,Gz,Ax,Ay,Az
10.248418,4.768692,6.724134,1.3980000000000001,552.21,45.042
3.159209216447559,5.455231721076034,2.0671059687104467,2.6646437018499345,1.397153808626306,3.861325457360114
1.7455250164103582,16.211101611334286,1.6946563627069113,0.5687860784433936,0.11896717860712751,1.4816345770022148
8.149533426914504,10.282551561651008,4.117287122495084,0.7702172939436696,2.218074553404075,2.3623542017034276
7.416479760596989,25.19892109453183,5.850875216513632,3.9910582122163047,1.9050874617105784,0.18160402872599912
46.336761673506864,70.9578574022181,31.17033338986491,24.253992920162386,5.814785237179606,9.18263500025197
4.3396775190726835,14.197636529079478,2.771161016258771,2.8873498420398054,1.1996278482595077,4.126621338724704
10.115568880957335,29.387778466107783,1.4528429736503377,2.28897830312963,5.2991215518251185,4.40173507414382
6.5467271281085395,18.271162297159997,9.571430237753754,2.0983857243452655,4.993388644316949,5.344462851179532
13.800684649677061,14.691123575073298,4.032930448758795,2.09558441665942,4.5511556130251325,5.4326258365190885
43.12549870066385,39.299769831424456,5.476526211431083,9.56905353953415,79.67959299067232,45.73692389866544
11.018695360440049,8.072901302342096,4.042307876160108,5.764781233529726,15.435048130528195,7.564230605195377
5.054996640178653,11.031032441244518,6.7160627758848515,3.5408682318084694,2.641655853548596,3.3583599886442808
4.736760840587233,5.947722143028544,16.879367401420055,0.9591159864030079,9.631965949952793,1.4095303775947077
0.4829242464336325,10.277765913644277,11.386209865257614,0.8060438860104363,1.5915951807619668,0.5047988663579337
15.574295090488683,27.09004011818771,80.94537887563764,16.160272618839116,5.669488612283853,3.8682660147298744
2.7405513078329276,8.517288038657636,14.52727849338617,5.763907694498693,10.171887758350783,3.0501190608928486
4.672661252977026,7.602582338782845,9.54499555869403,2.894290703962492,11.56468781345215,6.932352389374502
4.470662414464386,7.668862564008807,5.55594544118647,2.4188802441514845,4.362193201891258,5.924700035479894
1.241872660784258,6.823418667005063,0.962719591625194,1.3715554782613388,6.560001237259694,5.529412605764229
18.476907546736122,13.2905327042408,8.864012908737827,3.917016159169413,29.149123670886713,26.58771436081595
4.969671850335866,4.420233776304927,6.604035518965642,2.490598108317086,12.90894900534533,11.615410377038998
2.2024027945849483,6.4769214308159,8.663673807293444,1.610059930417285,2.7939654266177176,0.6358008870054634
3.122121825933442,8.45871229175525,9.117930593475359,5.268621957056519,6.3928797131563515,2.936230662220984
5.116652230131227,12.540571784085909,8.266231769882141,6.570026358983498,3.5310025711276465,2.8268459603512768
3.257724832808527,19.312861645010013,26.045734930466217,9.192581018499087,0.9542405113901873,4.5142665210612885
3.900314810095926,14.447051236402181,7.534400104378582,5.870029448759638,2.9125312444804647,2.194185750201258
8.318932816853302,3.8694002532770804,6.0088400751892275,2.547490886806377,3.512920674398275,7.725119332855368
1.8413236599006217,3.283736498704363,2.3753555791735375,2.5240363969863964,2.752145733583263,4.54112250470088
2.920679106082551,4.711877183189819,3.479676436375667,1.7157114257229928,2.8161542870130507,2.8106538794982794
7.88337067623132,0.9532669234358997,7.717550838352264,3.0517741436698445,1.1797226118210118,8.897084787392082
5.439769162997375,2.7194115655696005,2.707545515698377,5.101421392736514,6.2576848568815775,5.220556699966855
4.645749745457307,1.8196703683619941,6.607178584915331,3.347197560078612,0.10785688042878169,2.7341140786530613
1.1167074503921834,3.3338045366771696,3.3660124883030527,2.7650538014684494,3.508189167936038,1.7824401180357514
3.494418874268485,5.4451155362631845,1.8460652175582821,3.3236083938960297,1.4753372347183449,1.1845104445315524
3.5167415093546395,8.860824632630743,10.900974906504947,10.287869158031093,3.976871869178484,5.977207384552674
6.466114654810322,5.531432333511004,1.1782310773572964,4.3484322964912305,2.01362173960287,2.5870259986915736
3.346417770651154,1.3679956404021958,5.076831196814945,3.4971025210461355,2.904214730245403,7.250194448660929
2.952283342149505,0.792304164361424,2.3007809028476833,3.4406548594879363,1.261622507421903,5.169092546683802
2.2334165022139962,5.075110641335717,5.35223669508812,4.04200894372742,2.167934088701928,1.8678536367387564
2.8443604882516755,3.1746989510662535,6.358324083598796,2.822493660471502,6.495233502200534,6.837247380142188
3.5658016111933875,7.7223810629770515,0.5520052203610748,4.35358361304273,4.704312818746516,6.384306854077082
4.463133704078441,5.336674422765315,2.9714070915092465,2.5507368446583207,0.5265761907184587,1.727590571670111
4.516753354490286,1.841053254903004,6.185103575005499,4.2316174180565005,2.542782995857538,3.891847740432401
3.226459079371742,2.4429701780046247,1.229189577157211,1.8650310101349175,3.4915872598687754,3.930145641738142
4.048931906091733,7.190026899487179,3.7798131468781175,3.571430467415715,6.219057544021453,4.75343290324812
3.5618569008778973,5.835456164182255,3.655535086863079,7.114375984135185,3.6525548073061747,3.934495695992252
2.7499853215019834,3.870783047035951,1.0749670179415354,5.695506667418047,6.684263808342402,6.885567042299219
3.2650797495064454,2.2817476145338103,1.3957371695748366,4.438897320137912,2.21575189511079,3.175993634938657
3.9986850786198613,2.499856380429898,2.6589283070278924,3.0866704853674167,1.2241738561632616,1.2566765151108834
9.001124110131713,1.8479834836054758,2.7002015046302903,4.305911666291195,8.137991250804468,7.5931062602701855
6.442183534925494,7.3398661700384755,3.6905831999850474,3.857083260578781,3.633828679414884,1.957483569566497
4.742305793086801,5.490894518019275,5.036092286668789,6.205495484819561,1.9608704082152213,0.6511710075362398
1.4456967957895945,2.1488857543272277,2.7936574955237887,2.6137163679692326,3.564402041285774,4.853990581535453
4.708100464300537,4.0042607821221115,2.6771097864215867,1.4149722785104932,2.3816206800699433,4.3752490494521705
1.8268682462470895,8.98843693383214,7.050227927241404,7.598303605547544,1.6475526153041335,1.68274347911226
7.034450793945011,8.016090700624192,4.379929145244344,4.616535265717115,3.4570875800539165,5.288431958698514
5.1601264392196615,4.36978226389607,0.6451791213140309,3.5535111748683983,7.198495156701656,7.938488504848691
1.3231467507495807,1.282952414925599,0.5217423611689398,4.708211413741323,2.8554542872301347,1.343072037363585
3.4538911553586065,2.2644569270661163,2.6151215000645487,2.429075221649979,2.8000364898707746,3.304744804574991
8.226713157006337,2.195730206788772,1.1011347149691013,2.1582415032900046,9.003899094564545,8.285813902842197
6.0303812794396086,4.141629577182881,2.385105048565039,1.9330572222197453,2.9990501761982147,4.984295407378061
2.812051348894651,2.6654721095620366,2.864790617437103,6.399464804958807,2.155175563385261,2.380239386875838
1.7708697711145513,1.9749639797151648,0.6573444378510903,1.3184377193719823,3.0612379707225426,4.165089254302582
2.292786065509643,3.002517566675785,2.295123762163705,3.0074439999489,1.4765398313501108,3.7459524036367187
2.246083154299589,7.321525527211116,3.4445775177171822,7.353266795809019,2.683235978676362,2.293795643146544
6.98327580309896,5.896487926492641,2.2168998264633264,4.546628245528342,1.4577709411605864,4.226492332942009
5.402521759290064,0.8260159713349573,2.472238285910541,2.2184894386533744,6.235132932997275,6.675699766246665
1.3287092394442113,2.69330534124324,1.3025017852082068,2.1943372270539143,0.9089219832005065,1.9391988819319324
3.5364947293133473,0.6917853505925035,3.307239157743017,1.9781423261239353,3.384016788848691,4.302950854320636
6.733191682133713,1.7368366959583146,1.5038813045118167,1.2108686382752243,5.721276800654666,6.1461897678198305
9.160839090617527,3.2409558372658243,2.866832031976532,3.447235852366458,4.297639161675927,7.018213829818483
2.603362377556161,3.493111769454635,2.728057191728954,5.042144645674428,2.6579827082908696,3.7351147720093394
2.269218160765071,0.7650623526613046,1.4119773207692523,1.7888874913593396,3.279761188980371,1.9559606557635332
2.1829674374004506,1.4025666274472648,0.2251544965982823,2.819861768459509,2.4444542152542015,3.724090547733166
2.0453843025194383,3.4882884884729677,2.9854935867461223,4.592091948644207,1.7438706543473745,2.4488367405241296
5.189853419315812,5.287451628884146,1.5468296810430686,5.142164748798123,3.090049209073195,2.0281537519266886
6.2672700458625386,0.32784416049868076,1.8205581173387573,0.22978231665498478,3.1885817594652615,6.401743828148524
1.8246015778900453,0.12491660578017733,1.7888855728371424,1.9827753316105092,1.6930450585385861,3.008249098494536
3.677786611153083,2.536604178676716,2.521406577677173,0.6965176253779229,1.9972808002711737,4.119124756519616
4.1562452970156425,1.341265351486027,1.0019608170446976,2.1066732635807948,3.5535243995787456,4.390612005806436
8.296089195340596,0.5040330618240666,3.342232434341946,3.937567667445106,3.9476898917243934,6.154979177232319
2.804571248172581,4.272356701550936,3.1196687590139023,4.496829471528373,0.7515253889239848,3.8729380288507564
2.020138280460439,0.7617520875885604,1.364252530578913,2.473414914778657,3.048314391246556,1.7104254253163909
2.7989447627705197,2.0712869489897257,0.7294171646960146,2.5569676073001757,1.397221730987792,4.639231310761065
1.0896938450371036,2.7869263359932988,2.5883023864402497,2.9669222110531988,0.5295727334038433,1.9147700426065077
1.9890073271212694,3.462634412588725,1.7844727878961382,5.277992507955142,2.74115317732489,1.1500472149300394
4.902534700683196,0.5172527098504756,0.440579552109602,1.1981195133424327,1.9468192319492357,5.6208839742486125
3.2287585123412943,0.9126643486388946,1.6448449665075273,0.5481511727034785,1.5514058983323862,3.995584321094584
3.261139123011365,2.1649823044410246,2.054034429616334,1.2370008179439145,1.5140267936802825,3.8668959319913707
3.551051799741559,0.7573875605037059,0.6615478543306665,1.3991305947987291,2.0146841852578574,2.755591111677304
4.945891889165896,2.097996482778033,2.7653534740347387,2.225913744959584,3.019719854556047,4.323228423296645
2.7121138796015143,1.6477796086999545,1.97004317074172,4.385994133625525,0.6705274089627279,2.668227995236885
1.3260892752326405,1.3379412495173801,1.3264697252685593,2.525151406958078,1.8124546982257244,2.0153616735400606
3.304295858529259,2.1232706121812064,2.1529151660262595,1.8796288759218922,1.3032060578798805,4.242774618000314
0.6147897426779905,1.9792731242939552,1.6995802894817333,1.6474538030395718,1.086390151781753,1.4000720126626343
1.659786867788182,1.9203092664091064,1.8503294092130116,3.8479190990099696,2.6979529385226106,1.3059759330736032
2.743089796710376,0.2827998957824292,0.6629928402848763,0.9963426267826292,3.282572471325506,3.1942777569557963
4.410952419737511,0.6577254506962638,0.7986055189019406,0.8395563947532688,1.1194222351424792,4.079270543626449
1.7955613358339573,1.6214323605470478,1.5170834951551573,1.1961536228401342,1.9184263480963155,3.055802162859459
1.7724253898332285,1.3911615478051382,1.155137991322278,0.5743690267558156,1.502616415217308,1.5177944597698247
3.5621133267734537,1.1897136900027978,1.6943512911735452,1.6174639332542107,3.016558597510556,2.630766309508081
1.8711231179426948,0.7889809302519718,1.5489444136934345,4.195000776162657,0.6091929992334708,1.4561739479868234
0.15446547960954615,0.9457565765379564,0.8460627775187626,1.8186038309431962,1.5308827234871347,1.6889287570358185
3.0431158290965947,0.45555807201843207,1.7029660708011638,1.5266328322431495,1.9481996988337937,3.1726260569295515
1.0106359557073261,0.39922851853251845,1.3575977632211351,0.7209466947251048,1.3548150834315849,1.163627146657616
1.1861135596456536,1.859276640277785,1.193009651472628,1.9543680833035664,0.3036992953403219,0.6858995068514834
0.21905758521288785,0.5997237741954835,0.8795644634950363,0.37741555939517263,4.1560165932670206,1.4307507576632026
3.2319742213059484,1.234509214493965,0.29710144538866756,1.5778813925134585,1.2480362622919934,2.975657126518858
0.7334957808219547,1.2395209482656608,1.82467954556352,1.456744198956207,2.2761325255794755,2.0107507285114385
1.8359938753663037,0.853007190621951,0.840820033467975,0.5536860499273024,0.9024109477405506,0.929566599499489
2.5129739662506405,0.47547373578125074,0.8571552198678838,0.46727067215474716,0.8491365065213698,0.9355910309627009
2.1358817939705084,0.4147059400741354,1.0943025256538021,3.1450551791014436,0.2623557392133626,0.7508240482326235
0.592834725340758,0.47595154929963496,1.0141814023817246,1.8723120448124997,1.736670324830905,1.8651247222713254
2.558405034771134,2.1641513975686575,1.1777405398094245,1.2822384414703494,1.3404936339581546,2.303413325541628
1.140057648846982,0.8792079040047401,0.7363690729100731,0.9857903416165409,0.7331799088916515,0.9591076719078963
0.6479512269178024,0.8392100798417561,1.3503731955116742,0.7559566373354967,0.9844779121555362,0.45576421248641025
1.1226947313995037,0.3684334317819021,0.5661687575374207,0.536747126120958,2.0556610482794184,0.9339389088703381
3.4991722784712542,1.290753632422592,1.469431690752875,1.6226130553977165,1.285904583462083,1.7345090842698083
0.5390794683038435,0.4103150431093014,0.5003447722655902,1.0911384280338061,0.9338483777396893,1.456220169250058
