Gx,Gy,Gz,Ax,Ay,Az
10.001904999999997,11.438539999999993,8.264594000000002,30.913999999999998,657.1839999999999,150.75399999999996
2.299978830962644,24.189457192595352,9.184875282670184,2.3334302484066676,1.3044991872156766,6.425071447942589
6.589314945844456,20.269590758854374,15.117048600250348,2.85930930877068,2.0498763756933363,5.925265836108232
18.130670137946478,24.761600292834498,4.837879613178815,5.26871872196274,1.6663409740009238,6.582313668595734
4.125514839261498,14.800037766119953,11.172242646383438,0.31801760106060334,1.7852117545773398,3.5520950882360682
15.10361202046473,34.704153424786476,10.269441221136116,4.588321750090232,4.190723214485961,1.1102619600897716
41.55379456300314,181.8347996119012,104.20452091232492,23.421640317514814,6.672142906820116,6.778773292423925
13.47365932179758,32.51914102971954,24.9727344447424,4.2780204179949815,7.028554218930951,6.044473041955707
6.301027662138591,33.44262508384831,11.977644676297984,5.041591025270333,4.6784683305606505,5.356639049414279
17.21256857292217,63.405076212144344,7.612813995212605,6.7770438795947365,4.84821959364343,6.797941036724936
16.180745672267225,8.682481314093858,14.131645550840052,2.9151845497239157,21.704430618188116,12.637530033330473
13.822830603864768,12.99140643967512,12.223357541237329,1.7596560085417903,25.284856355766525,23.310334430205163
72.18169701703495,17.913660071443278,4.386158279341897,0.8392504153062399,75.57776909842215,62.94001931017503
16.635326079379272,8.40972936671625,12.333626601117468,0.4428275975246351,34.423603062917095,24.01492920397494
3.921307463562547,22.208383009355416,9.968305236151355,4.227657409545824,14.30213159209684,9.535123098649951
10.330960542331571,38.27763277135753,12.942062151603528,6.156994375488466,7.188695180232547,7.461967370120983
12.547243870694194,33.91571539701246,31.192468098173926,4.4811802766744,4.637905529323905,3.8851656764156988
1.991361045691424,55.79444203420933,25.684197423191762,8.391803903679437,9.470850541177848,1.1589264154584724
1.3234487104779853,126.54276919983556,75.76371780416062,23.53350455773162,6.514199617661115,5.616917876330009
12.413296384344703,77.11756472914608,36.76207853871905,15.699871869311416,7.85407043591433,10.080407346266414
1.6009766558056344,18.352396096612676,9.03337589046241,4.445779969544385,6.078443242490452,4.629315344362226
4.767994865998118,35.51702759994941,8.743257431174003,9.208381224618805,12.521609539846414,11.377174727597954
7.822661758403065,4.809560703068859,2.8397169283190835,2.8454213635914836,16.989753314631695,14.13156185949518
1.8810660991104229,17.872740295171322,18.115952520194863,7.824927185770284,10.662083463086853,17.29231364728469
15.743258233497778,7.973527528416723,13.742827991740711,1.3029329881154583,15.630656758609135,25.34598786756853
15.181369895333175,24.27352302364463,6.989846620483869,7.003873717778549,3.1621157881635242,16.908560197328267
11.0071277961488,39.3634056109509,6.695787933429041,13.170150889262247,3.626944847960917,7.745415454582358
5.362147868652004,15.439452643880951,8.028886141882948,5.80602343336209,4.821472270928131,6.555700125451144
3.3809859632987727,37.808916846753576,7.582530713584495,13.262249098020071,4.540435180248513,0.6060903736817018
7.039528149553866,18.46314034750658,13.8335413850417,12.537592557929207,4.051985489322163,0.5190612204852032
4.916597587389962,58.29988570382491,9.577934258616567,24.676506436104216,8.421259348599252,5.595771918195832
12.809217882613714,44.56998724147563,6.73201849816987,19.931857563379225,8.175567513683587,3.1864422156506924
9.35810418666029,11.543902264310688,5.85122864089638,7.294976149512388,3.2130305458005832,11.540040791292821
6.121454649017563,28.896329504287884,22.18522364647583,11.461673437434781,9.2426328204299,9.73315417248791
11.703975887090238,24.767460207420584,13.522649194017452,13.157254253695818,6.178758492690102,6.004564987781484
8.573744176824613,24.367069336406335,1.0310904307410198,10.855423851405797,10.91765940255458,9.239134657649359
7.949285799326456,13.642853542461582,5.903136106055402,10.586452821117694,21.90598902007334,17.6153582090414
5.1548764888281795,11.793446231131583,13.85388990330591,6.36172368258349,15.60796069510558,11.419597114843503
0.757277611031737,22.638758634268186,9.124781673768656,14.826316748204917,5.116998802732411,4.2465983118582145
3.0755625179318296,7.785559235245658,9.006557518727035,2.7724154198564115,5.383619739241468,9.12167325130593
7.6984905600680875,26.606777848843105,9.015725085572543,12.965323428647556,5.204905873759038,4.814294658203983
11.407444269891084,22.862408573177902,10.23240079946935,12.595436908371862,5.084126596129088,1.9618737042744183
2.523484781844777,21.48186332940548,14.321823530663945,15.475994094410373,3.8520913216563657,3.0271326751659227
10.626659902406109,15.50665439172285,8.649443914252966,17.83158863241499,6.4933832986637166,0.9592379974801015
8.278500999995961,7.334734648479334,9.339982714638813,9.102487360286483,10.750770492148403,7.511367519975336
7.023872775201869,20.727577334417184,15.19036272297657,13.053219006936212,5.714746532388387,4.518470031160991
3.2286057818326586,8.286545219715247,5.367033311571413,7.765820976613046,12.026759363236966,5.515958498263321
3.9341500807349594,17.094116419626143,4.085979362104161,5.0752707581296965,8.048951076895012,3.4069045595009633
11.62653722478635,12.759594399670554,2.1889330986009616,7.154175734635236,11.061752709674256,7.709269782877152
10.75755244137922,7.281402492644612,8.448041683556978,5.211344209933923,10.501907630845254,6.375401741182192
11.556384805273254,15.328725396236212,2.9544988316494316,13.233987017630952,8.689213047638797,7.523782332333803
3.049253200569119,13.388415355541825,3.1683041557767426,7.774325300809235,9.583408049913373,8.170785079301606
3.6046198869843655,15.428335380166649,8.344728329156668,10.246061516114228,4.9577814373598015,3.5470108690621927
16.64202777576714,5.635076690986199,12.140203739856373,6.682841505778565,13.726393304953513,8.78024043796626
2.973833120390204,13.70488757999045,6.021198937404377,12.42577273494155,2.921091953281774,1.4373091862822962
8.765762727787672,5.650697598772766,4.583985854981178,7.9123222670755915,11.026729256487467,7.414004307288727
7.4305334416980555,9.481686841832527,4.293748643967766,5.627767134305725,10.634387931159763,6.313209201646761
7.607026094013381,5.030035733242863,6.9459339083931395,8.567867760247072,10.287750476274086,6.7077976252939076
9.10367754192814,0.9346572127547466,8.053878975183059,0.9356550524935427,11.294703131865319,6.1742599035155825
2.650618308376298,6.747500123244972,2.685488176547662,2.995202013721355,1.7817203026383996,1.7704447071352831
11.450125989540771,4.021789832318815,6.5360933219827,3.062476955002274,14.211629419998639,8.845639848651007
7.032639618766417,4.545955633305098,7.770085829821662,4.112920501670142,9.255104519784677,8.12972186534101
7.14707501020724,6.6034617265306315,1.179010753554887,5.654761611714301,8.853321784618393,3.9174477090863355
1.5715025713013657,4.9167330506358935,6.8815136307188896,4.4682681669339175,5.711672815321931,2.2354688190435934
8.22548092545996,2.168364454913322,6.185468997582034,1.8510879291808862,4.655422354880018,4.253434080441557
8.856495383772547,3.492276735448804,5.51818486062104,3.059622492421129,3.8879431328739615,5.144233398264014
2.097517445966775,2.6034719388603222,7.565602105709306,4.082108662976747,1.5779998543151956,2.18170645251982
9.358337611564009,8.469948715771979,4.596359953481992,2.500427463010746,8.874107872664425,7.131434303348521
9.967969891493544,2.366401184027848,2.9676761748665283,2.5695127539817446,5.686566239391135,4.997512377686444
11.030233303803735,6.861590992224409,7.745278943936117,0.5421773722817799,8.243520593859499,6.886385266414551
5.084060200957449,5.501510517025438,4.728213421875659,4.406917415078585,4.8851638492981975,2.4375518197713926
7.674269750446089,2.5848697194555115,7.064292460746182,1.3426863050110356,8.380412418339246,6.619700819906014
12.46384569332156,3.261202870519819,3.8426510695011507,3.6157679592370164,5.356302728916199,5.721678053458157
11.96098678708056,6.827757297271588,8.077922762920418,4.351332304952957,10.780882471878398,10.899458549429605
4.970999517876697,2.4569193149328723,5.7005988831687935,1.1366271059397146,7.042068240802074,4.126189903618579
5.310578593056232,2.020682684601908,4.582646430435433,2.70979974103918,4.442633342401065,1.9886731882622037
9.801682040035375,4.12911062480418,1.8925375209797755,2.2825730217454177,4.18646006419585,4.621097692586877
2.1251937810329085,2.687520180463279,1.0856226086846932,4.707403712535327,2.804181216393299,2.7658404161263874
5.772533940778605,1.3328585610646622,4.081981107419748,3.0162166030891666,4.192562750489696,4.1148365343286235
9.631708455986058,0.10433130897431882,5.936305608081265,6.330535776950389,5.8108616340642305,6.228555754457646
3.2388965991851517,2.832515166815419,2.9079841100370856,4.336292216420194,3.180923888424104,1.8822367130208888
3.4507478051108014,1.2515127555176608,4.022597169849618,0.27525840849276484,4.527673163550015,3.6012148005584192
2.2300650144738996,3.337157699478721,2.6223513567671537,2.5182173557954157,1.8201324497312892,2.3502369768591684
7.594562785446603,3.2760355790255984,3.361622495475027,0.8791443175952031,4.722905104205399,6.195868412301843
6.282292380812035,3.434191505333351,1.9421673039239757,3.925033692215922,1.163245008674532,2.9640177212130476
9.095100282757143,2.6850254647648897,7.380973492263934,1.7348750664371575,4.9620458470038145,9.770148754293718
6.871302633553584,3.190629341902781,4.689457724111376,1.5440379595968041,6.290358462321839,7.075936355688016
1.8171549064485624,1.292421330657707,3.7484789142921784,1.3741337655760137,4.252742947945234,2.0127638618096744
9.649529984618553,1.1373885684842007,1.5589965216843815,0.8073797871460681,3.2389097384449084,5.516425287941333
2.733247997126595,2.290540233488646,0.6447845651298334,1.121830037077391,2.4222434353017195,1.7356256482389716
9.134868130017002,3.1516500718449656,4.037445622232049,0.7357257989957455,2.383039333070984,5.423354636270273
8.178063260058412,3.548755847987315,0.10205355067297435,3.8896701912585825,3.1929975328062468,3.2310526500173498
5.781830366690939,4.9622291990830965,2.3215670539649125,3.9617162455558415,2.4314267582699434,1.149329973834686
3.6674286254345696,2.2808456578602434,2.9789287842214747,1.6846259241025705,2.816059878580391,4.12676578490837
3.898236596037871,2.6906031789574816,0.16729407778820762,1.3984039503185348,2.7621832090722576,2.0855836286684943
5.93815070445384,1.3612365440009233,0.3847818620237518,1.2184501981521867,1.258668894609427,1.7446158378618437
5.579463932488799,3.963949845749737,1.8346122798905002,2.813040605006464,1.6300934342000757,2.32096899657598
8.932032656908804,2.1589791736489468,3.6732834219724744,0.7044974378345545,1.0682223326736944,6.002960969167157
5.779218101544845,0.6354739367483422,2.488917876944384,0.45257898478094205,3.794945566794614,6.219470751903734
