Gx,Gy,Gz,Ax,Ay,Az
5.2061280000000005,33.789548,1.2711239999999997,17.798,474.2320000000001,84.69999999999999
7.886878618653425,28.674679325078294,4.256268369965891,1.905860626062262,2.617176755673741,5.9267818663568015
6.440046011270055,36.39506366765359,2.3868913719267826,0.9970496951806321,2.7928221572673695,6.253302966315961
7.386030413665978,38.642738293710764,14.429246836211055,2.391081675913829,1.9506714096935074,5.421232374054207
24.920059206861712,96.83561709004977,52.031866262868164,8.618618199715701,3.22155911399666,6.703798228265131
2.3316777734874172,59.77468094789075,34.53796331473626,5.779190971235232,4.534187461014011,4.1641259872786796
8.845469124954743,23.346022020702037,15.811391635953566,1.6598466303126622,5.125251072140788,6.939527328457114
8.928014679443992,32.365342918513335,8.65642908767144,4.682585900135033,14.456991479448503,11.952254858409852
11.276714648806918,13.031157452182969,6.160354123100899,2.1092096112916727,24.789154475247578,17.68450616218549
22.489332784575442,27.36858406477413,15.86053687021627,9.13314326389129,56.08814395106794,55.63901317044377
3.802920189992149,10.002052731570936,7.021485098272644,1.3902382814623562,2.8426468187120464,5.119035915578576
16.35491269955295,12.92625742215976,15.756148384544826,3.6991562229934747,2.374932161957592,6.099383888737531
2.746515972191018,7.681616963091939,21.03082346109205,3.30575648050205,2.3530347024403926,4.453386815823477
6.638741754633259,47.06655465474112,74.48765810047354,10.58560969051199,3.4988298517819794,4.563691956255554
4.2153633287569265,13.056166573929126,19.317069774074902,3.1855644388000166,2.9418294790263713,4.293928834641656
5.02869740901076,12.55025438671246,10.720394955968766,4.149288567368031,4.313217037986327,4.913916397069273
2.3226378673857875,6.956173346045895,2.3686597211518223,3.7522655730930623,8.214468435191085,12.644844731264138
3.1034770250913004,8.511993126976208,7.439650778866158,5.436895653174025,10.5594342517238,19.640260071040142
12.286022984479853,20.275687938597027,8.328523317696375,5.207075322687097,4.50477543850041,25.05191063291094
7.106632294204236,16.792833443395864,5.112782224877285,5.363470900989754,3.1986469175824306,1.6720130252426746
6.673596215587842,13.658463500654756,1.8074180419204358,3.0420588850333923,1.6295747289880107,3.341641202338506
4.328150757098303,10.307870256577239,6.91975369061972,3.773129481398872,5.097680604132004,3.6958028269044
17.365123492186143,20.785371317475235,12.888907673359824,17.47256295998444,7.452308767001122,1.8809564237584955
3.351549595979022,12.062934196153153,3.0181208398588044,2.986258207762,3.0297017406388584,4.025447888841687
4.679972622575911,4.095910578866939,3.8532853686581343,6.530272782623494,4.733345778690166,3.4836056714095447
1.4477535411258156,4.660001496990517,7.193871270073185,1.8656876735417587,10.524194373828397,8.107758268012303
2.8764308975343877,10.606357171905456,12.224957388297565,8.781556509100144,21.75663865019088,15.18538459221906
8.183568369497127,7.1445038369019755,1.7823878497933938,6.29499379029867,6.133196425878528,9.868657497119768
2.274370888309648,4.200457225574928,6.62004644517166,1.0849009014376494,4.162809008642824,1.4966003099721517
6.476285737930791,7.923719725102336,7.143360541139737,1.3547715406619547,5.853256826941111,2.3077677839718898
7.538130950013928,7.890836606690299,8.649526878822684,3.2334764583167765,4.069208777850051,1.1315437033636004
3.251362284900946,13.956605658105635,19.214940233516725,4.4930556668093615,4.398899943857507,2.062877358386379
2.574803158311634,6.152173044145077,4.51555946236596,4.565283249676755,2.959444354534554,2.221277655922612
6.748900755331311,2.451083462472044,6.935325800341698,1.9097078291805338,6.8486295266007655,3.332494625710028
2.926816550200761,4.15011030423109,3.8776991010253967,3.331887302745618,8.363907431890834,2.7025078022805675
6.5133722245447485,2.9469508959446253,5.035790009004564,3.5315295335941363,24.746619835722484,11.543038146620733
3.132622573873046,4.069637599468649,3.8381112597333757,1.7870933960660274,6.055342966615736,3.458749542221321
6.985219609133091,4.8490943748362385,3.437557447813071,2.9785016885502764,11.721435955015313,0.9545332292010323
6.137246777795669,5.51533976242845,5.81757699917207,3.3406487093935358,2.3558112057628873,1.0126139441562134
10.82865263684468,10.343509370049594,7.040977501320422,2.543499547503182,4.619464210740519,1.6224708470123639
5.897161297139506,7.394772861665001,7.40443828360823,2.554652274128384,3.8065916338623915,3.70994474105324
3.4820974344880105,3.8839258234511327,3.181102587293305,2.9606311669284464,6.68652165485691,0.7416724496195145
7.14554251685834,2.469636649758632,2.610732156466947,2.2298587984631206,8.379516675325535,0.6704518105240178
6.6740557001215715,0.8061157933316003,4.053110484008913,0.38599665218041596,1.6310539785745788,1.3556963527208785
9.994738445625174,1.1463474575156414,5.127070008054302,2.8520717621010943,20.591089568301708,3.3795963851610216
5.673603053237457,1.3162069047458171,1.8380450980275886,1.4976936190486285,8.695849586882114,1.446750702488374
6.911035964970605,1.3605717939298518,0.7756421114160945,1.207961716588207,6.326771697425151,1.4843308208643433
3.0956808967979743,3.2571603211789464,3.5498366683398768,1.2184142133776306,2.1275912346140786,1.3124601838497896
3.558901898313126,7.952996543168054,5.2145836196695665,4.63797127412151,6.679531470550635,2.248736478080369
7.811957475611808,3.4410223948697376,5.2924966916934,1.5637005777087274,3.670556679286059,1.3359898127770684
5.0193855088179475,2.036513152986086,1.3993123409898907,2.718645600355732,6.1540977829458505,1.9414298835404606
9.11371583446749,2.112187627866557,1.51223129483674,2.67249164858513,7.601263708957357,2.260436423444151
8.202105684187053,2.446341337561253,1.6994828765001744,2.483284602147679,5.37506163459785,2.279590927724337
11.158087596362735,3.4383246676644106,0.54144846578937,0.8332360605847815,13.431357525790698,2.6241622277198577
10.129740344716375,3.3874746429239235,2.7728223494753332,1.1253639626302256,3.4032362210118507,3.147156669760024
10.73810579175666,3.963270797372295,2.614247553122813,1.3954849501727131,3.28767794441107,2.504254481199811
4.042985661716438,1.3022320562848475,2.870365608716944,1.3289865220759967,1.8335210305949459,1.188233621405941
7.59067154232129,3.9958095762079835,9.144660635212654,4.071735366279094,4.1442737444196,2.4703461410578234
13.397822002875683,2.918744518791499,6.355539198932462,3.252379673064865,4.093371331785262,2.2675464908290563
2.8865914855172017,1.1644634912646201,2.6111230189951593,1.316485490414353,2.3511557337234517,1.9893459874376358
9.454777821998267,1.6569413582628034,0.813935684263191,1.0479414445793034,3.4147448237135913,2.6349494017644037
9.017455208707116,1.2683559661325665,1.2742680288563348,1.5619954318539386,2.3244888281490894,3.310121926277249
11.102147899191044,1.1522459085551333,0.4437608887498987,0.8062088502065766,3.8723448443179684,6.7165854847463855
7.7248237045592,1.9111781625532458,4.450484059597689,1.476254653707752,0.737924417164879,2.8655980361985525
8.95285666467707,2.0105374813857217,3.3620694286678696,2.4225992652161312,2.557613326963181,1.4645134447671138
5.247175786322485,2.0316442208019323,1.252214911636701,0.46484580035469963,1.559301812384561,0.9021375581199353
7.107016772400399,0.3981923382603858,9.18437768150539,2.6802995463543526,1.7350628742943741,2.805957723542769
10.83703512528552,3.7128116362240293,3.731329814758667,2.414888240326358,4.253907631429715,1.0187411814382135
3.5511294575971393,1.3405491652498585,2.235591971842711,0.6727875318574322,1.2640029781564075,2.256268398501027
4.690973108322241,0.31628064983318344,1.3793492498823292,0.6610869841055914,3.6889699955615014,2.931531345994614
8.748407826189753,1.4694741094059707,1.3447905440327297,0.6591751244923523,3.598162155332243,5.243273314697571
9.242108173206805,2.5674403567934116,1.7872752319043297,1.0534872943831068,3.7998696632655027,6.4982528207687125
5.3147632466627135,1.6051214838203267,3.2864850076450938,0.4008508033406403,2.704822997356976,2.7461589541724196
5.6680224378955,0.25582716884457907,3.4810748140775285,1.5161886484950513,4.060665144773042,1.3371513456290143
5.009319153909737,1.0243719511597458,2.541020829606057,0.33644177898359146,1.1623044809658833,0.14815123011371154
6.245094149015864,0.6788471535539727,4.487385886870185,1.135745557594024,2.8804248411237476,1.9576466862539
8.635307536759944,1.4471922854743973,2.0284596042509806,1.2009000958229765,1.7445158711073203,0.8704285772323531
3.799650918790109,2.0788089560971645,1.2441515762137476,0.900919614506853,0.7230277293556207,2.3119755032127274
3.849125853054825,0.8331004659825478,0.5932347770577515,1.1863721098343207,2.3788997077916525,1.303028760782584
6.910141934487533,1.063223042343588,1.51318409204351,0.8324062425254393,4.1599530756107015,4.710643679321865
6.546026521232029,3.088178179202878,1.0308866186129706,0.5380871355255793,3.585327147550843,3.59158064261901
4.3552539552604905,1.3624295300678197,1.3250539799312957,0.6014659504048235,2.7414008950223607,2.909240556252502
4.252136502020772,1.145380843211059,2.067474572984003,1.239732953037465,3.266938587613584,1.3149055211571838
3.917744616983137,0.6196334296641255,1.850349087584191,0.8392796331135611,1.2641933302369086,0.5532201736133734
6.513865540754697,0.8891566754907485,2.3901449815906357,0.19966412584746307,2.9703390303658366,0.9004235572778974
5.546643150613874,0.17549333411275678,1.1887946509316167,0.75794946344285,0.629459283948463,0.36434414895901784
0.6884017167352159,1.6059183394911825,0.8818201098174757,0.3518529394435961,1.1199161109921714,1.1852480404044279
5.232970477129019,0.564079140979619,0.4985912504646834,1.046774851963425,2.169904592547025,0.5646249170560919
1.7618809069989028,2.5142852450731294,0.2603411575946696,0.9209799081698014,3.820326581751345,2.546808318586942
5.057180768395981,2.3209677888166107,0.7212791565784042,0.7066169067640223,1.0232707169800421,2.0261504430411534
4.112781640090279,1.101778604555822,1.013982825194259,0.5667556128529354,3.0509136089858875,2.0137416301112685
2.2688648609687183,0.7524464407752403,1.758794484258094,0.13799774082738084,1.3145822008509405,0.6176317426224441
3.552917258778141,1.1683203838925242,1.5887118271194998,0.30318647420984984,0.8726917254111887,0.21540513387030483
5.015799166613637,1.5209157157268127,1.2395830299263477,0.488093041490507,3.058987939122797,1.4088557998612483
3.60468253019136,1.360835154884708,0.6038412965606373,0.5743950451219775,0.6063339550350653,0.6680139061034016
1.4400503924304622,0.3289466676336253,0.6941856169054835,0.518050997283351,1.331346155938848,0.3490676331073377
3.1374131408351986,1.3348759836940516,0.7768364654543307,0.33440652522492037,0.9552152491706541,0.5599996271886465
2.9909891740387726,1.5523716700692025,1.1300269220197752,1.5204143214699368,1.3339809666699654,0.5452943655529928
2.9390905452408607,0.4279924988038689,0.7046936855545355,0.39449136192951,0.49305431750632656,0.5144785356301971
