Gx,Gy,Gz,Ax,Ay,Az
2.815919000000002,19.009738000000006,6.3259839999999965,22.108,-373.282,-32.022
7.615057487990911,22.035453090041788,4.641485510504109,2.851827322780377,-3.674318872363932,0.6024923631461667
1.4761983914360202,19.00994954905809,4.819164033149786,1.2586352170913904,-3.5479490656160917,1.9514851127567696
1.1912040936884856,0.5681678606842231,5.903187385533159,1.9949913765779237,-4.559873202420488,1.1497519036959662
18.58932794859158,85.61329765690594,-27.43945282989855,10.64535979777325,-2.4045075770534234,1.3149696735269738
-0.3168144628904259,4.528744394462367,-2.1677416477456437,0.41130832248576826,-2.5647932301845793,0.9048263377727752
5.062855291679213,3.0719663100733383,0.03431729045616572,-0.7895265841560805,-2.9358733423258303,1.4524646400042016
3.461809814774668,6.9393383870615395,-2.3963838635087837,2.2947935149539918,-7.366321016231359,2.0886430442330353
-33.44382198979797,6.333828904920674,-6.2183943253496485,0.6258391003261993,20.450612552456505,-33.1096539300588
-3.2546809350927344,6.686942137081196,-2.066863694562412,0.1034848740599425,4.364082552749247,-1.2533844977827608
0.9271907872230531,-7.869078131399845,-4.519466226924759,-0.764734615454643,5.327749979960412,-0.7565773393599098
-3.4297334829420634,4.4022077479186095,-9.93989645182101,-0.9843019255553681,2.154428439580795,-2.8681451664788455
-1.7311266826561278,33.44572868580408,55.043229562181494,0.10274977359741655,2.2244036836652463,-0.10982058603956846
-0.9268854665434894,-2.281710668118075,0.9928170888877441,-0.37735897146781566,-4.685760460891025,-2.5812928277940235
-3.283670662264158,-2.6323278388297737,1.4225929994486275,0.256396260184461,-2.89495078754143,-0.6149766842387444
0.08504248872882492,-9.271152163482139,3.1390079805150655,-0.3626390591527999,-1.907292421124064,-2.2313590474465395
4.234640476561672,-6.890702536864188,-2.7780901105312212,-2.6599802865760256,7.589729061967106,6.627585415657459
2.3498818644701345,4.095667672065585,2.423932898235066,-2.1989073211231718,2.573738275048595,3.986250762451605
-0.4931774270640583,-5.301764730663008,-2.9118331171216703,-1.9107125713405586,2.9605810052653574,3.34750890734978
-1.574666345546768,-5.229836636511294,4.966857801096784,0.44874530123529055,0.8586314538701738,1.1768492225615421
12.218711559902296,7.226772128653838,-11.403113619075697,9.205118385419699,-1.5636053268405037,3.206225453210009
2.223729020734949,4.71839654035039,-2.892677210881777,0.788272681500628,-0.30569360468039997,1.090485612281984
2.7710118935510857,-0.15113319281638438,-2.359199756921065,-1.807388035041293,-2.6273028606418145,-1.3808233639369938
2.3375592147613227,2.1433165820574023,-1.392198685032702,-0.4847382359473998,-6.011189522905025,-2.4218367706196604
-5.207576002655305,7.23814937433528,-6.2344319356684945,-4.616578067549742,13.207378282454004,11.910406635243588
-3.5594573525374047,6.423063346088027,-0.883758177780415,1.8375547991346628,1.8789864515965786,0.6352334045329019
-4.66623052508341,0.10752304190198281,-2.1814831598151443,1.5665889099525006,-0.040632718813916835,0.7487266867504806
-7.382005257507842,1.3123913128813338,-8.665858829935615,4.03340812859168,1.7375408308747156,0.3678800001139235
4.513779017435364,0.2584401538235501,17.413022694768795,-7.811950671684079,-1.2031341855755788,-0.32040581157117887
-3.007989417539374,2.168018279127886,-0.020626309180910463,-0.15425351267052456,1.652958524417146,0.5615419229063027
-0.039684620245165614,3.4697531567392055,1.41325420429209,-0.17899917042773916,2.268399412575352,1.630855753931589
3.2674578433305226,0.5705221254537871,5.167730159395079,-0.34114541702725787,1.3497927625573585,2.59885905456973
5.030456504809115,-6.725090459856777,5.929866902577375,6.9896964262177725,-3.6676465969905734,-1.9420651960976039
2.962131817158307,-1.893246645808643,1.2874613319530763,3.1457076967378526,-0.7313767670730099,0.1754382951786471
1.0406330454701254,-1.6137223461700456,0.8047440546735418,1.4610521713112865,-1.5136728555616035,0.18396428018390948
0.002129570069487663,0.7764921197240058,2.1334312327292757,0.5572081995920073,-0.2042440871861515,0.4895709454790155
-1.8509946320161794,-6.541568246336613,-0.5270449364869281,-1.2141695161655557,3.6122372599904566,-0.3540686514442519
-2.006755735712802,-1.930706273924065,0.7223553803492204,0.4007361682520184,2.4337222253018034,-0.953625324656613
-0.7092981761267539,-3.1061813978812394,0.4977596491896476,1.990453614413046,-0.5786989980744051,-0.5617812955994725
-5.6037834762813095,-2.785392973566675,1.134740592856234,1.917349861332839,-2.445685461217135,-1.1807169983381804
5.389116861638327,2.0979208610300653,-6.1448858137408715,-3.6479844547954796,8.600377962363865,3.090630039323166
-0.7240825225327305,-1.8493492256766613,1.0696967073165373,-1.6395580831856131,1.4963549650165437,-0.6168021137987152
0.27217550610357755,-0.6473285771852134,2.9593214320639047,-3.702092610032776,2.610512364681654,0.28942383287206297
1.2314374371069712,-0.47872589892720613,3.8117297144345645,-2.16235436033509,1.5262430987117046,-0.256845727682021
-1.9288806542453938,-4.216245545002608,-8.762833578549827,0.7123125650389139,-3.4724881945993005,-0.3369281127104128
0.08195292471752813,0.6609722135860594,-1.9376379547163118,-0.37498777739597067,0.42211367772578456,1.0644844072798196
-0.24729810652884793,-1.1077014631744573,-3.115555901947711,0.131732044851266,-2.1193047777381793,1.3729959220600434
4.492823654686752,-0.7527229351949879,-4.239969683667241,0.18014690850967796,2.3428616531587694,2.5222484958610547
-10.59781559672187,-4.723562456609617,-0.7510112356804899,0.1646895309182671,-4.1726042680041,-2.1245595272559656
-3.8525905250264456,-1.0590637773309166,0.6236012178064698,1.1916114037230112,-1.3887200696170199,-0.2795700342030637
-3.3123690163927377,-0.7624242334792489,0.6336338936878723,2.7362951937408924,-1.8881508265445457,-1.045029873674337
-5.966751821594178,-3.5048878150711276,2.8205580520634363,2.120592706508622,-2.2528425813390527,-0.6610129064799053
2.3003989051784703,1.3808394334943852,-4.154027049284191,1.3064199586470187,-1.7764719244731273,1.1690171670382417
1.76184374985051,0.041304105735509716,1.2538202328795705,0.49550598062613616,-2.2929320767911987,0.5092592564154284
1.8897478072011107,-0.38345940367436016,0.43170679040442983,-0.9856899213448049,0.9876148831985482,0.31270831749519523
0.5323050595226633,2.575578269422855,-2.7940297739265687,0.2885691760992585,3.53911045708995,-0.3737189528977647
1.1756103169603382,0.9085441653821335,3.97878384568402,-0.2767969355670382,-2.913614536486916,1.754400163172642
1.6950922574560576,-0.4512467449089841,-0.5417504344260625,0.2381276705718697,-1.2249881799547588,0.9686207860299274
1.6070080719981281,-2.570821360167009,-0.6590289437513942,-0.9399438200563286,-1.4075987314392513,0.5170753008560223
-0.3181300880388451,-5.238348104489022,-0.4303566166789279,-2.1178835777522416,-1.60126531238752,0.6516831650704472
3.3115651807634254,3.995986544514805,1.0178963228760858,1.3392911445064333,0.5554387938003876,-0.5035447824223862
-1.288171410904513,-0.3605201587804928,-0.08219097395524151,-0.37172480515925505,-0.373018161902088,0.13484336318803888
-0.8371236258816377,-0.6919585107533612,0.7434211048502645,0.7382382817542039,1.188532847018919,-0.2803444925363825
-8.0876166860417,0.6749785219569873,1.7890006678340344,1.9541652952691184,-1.7780259352101304,0.627570236685064
4.2935364604760125,-5.709233924099188,-0.9801927654830779,-0.17171134617373146,-0.262677085693487,-1.0089051796455761
-0.1319736892157549,-0.7636074327208328,-1.1313268355574342,0.8464868146536613,-0.34773566511104026,-0.4501477357561943
-1.0409960622996524,0.05039433317305464,-0.5762216079554494,0.19954293038180304,1.046018926401043,-0.23340586292362756
5.470046863094836,5.838428789095822,-0.20039496123868442,0.5649248796965322,0.3058498012630292,0.6402912122844634
0.16637770724982004,-4.661277679543776,-1.1697895137940646,0.9681351493362776,1.2794144221315273,0.03865152458114903
2.3170090992248715,-1.6394700832955784,-0.508986022650534,0.8255843604258207,0.0854468540969433,0.32365659885044723
-0.4972940031444951,-2.159660486359484,0.13330737401159348,0.2681117628433065,-1.6682418272118964,0.4711228281317133
4.618068415756538,-5.117077269990126,-0.31079305692811476,-1.0575463924115807,-5.256146839501012,0.886398276741173
-2.565338546519584,0.45743790065553336,0.3666839924266607,-0.6065909320320624,2.2365035271932894,-0.4650795047218559
-0.8273182147518157,-1.7992903877900501,0.1809012168175252,-0.6311708015499204,-0.36089688920276586,-0.07723707131259044
0.49818498848283604,-0.47242855114954185,0.08956529981738656,0.3670017600520784,-0.7796356425559483,0.8990565713710881
-2.098636423694881,-2.313772063850532,-0.45395804890801605,1.690333159786132,2.1652788565758634,-0.15895079580297555
-3.418849038670497,-0.25986224851625384,0.016072388556629,-0.2943108790707109,-1.10809284055278,-0.1693937427129849
-1.3360600742204167,-0.7202662346535926,-0.3558781755644751,0.5145440624650028,1.8840856478153942,-0.9174041827505849
-0.23271723792326943,-0.3705537277189549,-0.32676747167859965,0.22212321304335025,-0.8282163869096154,0.6370599885588024
2.526531591510634,1.3937117334533453,-1.1320668888154295,0.28643887627456877,3.0477146278510516,0.18101680129865497
-3.8112972056792778,0.01650658058889276,0.033694573948193335,1.072064385254813,-0.6943942984655888,1.1379062537610423
-0.5015209255720785,0.7293116078822011,0.17761440088351985,0.40595200319019076,0.8912274982721652,0.8989024519233642
0.0036540264870845926,-1.0642467366910344,-0.14124969195331882,0.8861052281432656,-0.18463705695657323,0.36452911600461746
-1.8301327338372262,-1.9178837261978172,-0.6267391061405063,0.08040838602214119,-1.7394607155188513,-0.011255748301259118
0.260081776979333,-1.362153873501431,0.45487037413467235,0.015355118429840622,-1.8487058961464025,0.2757371123323012
-1.9359704743891477,-1.4518711816056245,0.4039831862183364,0.11848533975895856,-1.9075786223709392,0.14347166724779764
0.07988840943354607,-1.0550238511241454,0.3632120744647878,0.10097723389758531,0.41765548104593786,-0.07361692517339061
-2.737695355393533,-1.4834364831109166,0.28344065926877404,0.03533966693364743,0.011980030965457855,-0.17626794384420305
2.2024161164815705,-0.8385651694987931,-0.21099058365161114,0.5705884560451497,-1.1969269763105488,0.3499296396863834
0.5598851878058276,-1.1187298502342935,-0.11469769300167401,0.586984406272694,-0.1817675765160194,0.14944132283178546
-0.6010155792051889,-1.2373433808218635,-0.3726871153536956,0.11994689645307692,0.23816430807872158,-0.10095698918581522
0.02647571702578766,-0.5860315300555654,-0.8542713481928652,0.024508258328192478,-0.21630538947893682,0.8095897301131649
1.4157977051825652,-1.0695555329773716,-0.5806094683472105,0.5947117206131229,0.5129284071238908,0.508096275382858
