Gx,Gy,Gz,Ax,Ay,Az
-11.110527000000001,15.377747,-1.8823049999999997,-4.469999999999999,-428.12,-32.576
-7.82257945945601,19.449578064601365,-0.8797016018210657,2.6713505875931594,-1.3468229872073643,-3.492238837431464
-0.3990275844164004,32.466349420146685,0.5988393292434886,1.6671099427489862,-2.0934926109490517,0.5345096272006656
1.0077047037407396,35.933162548709404,-0.3534769394131888,0.7431125304743382,-2.078466865486248,-2.137030597768108
-6.527373418872745,30.951842356564967,-6.64651958569781,5.913235560357283,-1.8007529992199016,0.931264883868963
1.6637158428884462,-31.32321050228059,-3.4124607158839777,-1.710235621500878,-1.0233028442493883,-2.1011037673512774
-2.4891583715076844,-0.4650626900976067,-4.203331366999796,-1.7683283011516422,-1.1849412589662178,0.06277308607785867
6.996849022664502,-3.466401730456731,0.02735783705972794,-0.5801905057152361,4.391521898714421,-2.3824227586810016
-5.097303688769106,0.350415148257222,0.7765034514194906,-0.954159000573664,10.874994351115685,-4.4616482830916535
20.642105369483787,17.094002754356826,1.305564441734418,0.8234807812797704,74.63340297734356,-26.327096796701387
-7.3410392769899495,-3.517334773498475,-2.7603141172785923,-3.7257699748505195,-22.01675721202985,3.2183617366595714
-3.3960956966705513,-1.7688844472679666,-3.8116494403427867,-4.864515348857424,-2.97272285256782,0.6709019083594931
-5.418924910506795,-5.157233488204469,-1.6392099883493956,-3.8788549452712138,1.839108986930806,1.1716829724030688
-4.514302556989796,-3.57093625168534,-4.866303308678418,0.10354562530163935,-1.3787422296452014,-1.333877736340002
4.148697568858071,63.08798059670566,31.19267849367673,3.5029940470044485,0.3584776239725266,4.914788207064269
1.4862848515205838,7.97553220654674,0.5171144759619892,3.7450652554221913,4.605623097764274,2.1429403066496038
4.2339832157789195,4.149389447145534,-1.9275885724241375,4.34688588824614,4.362167693179165,7.467092135235279
3.2916066851489294,2.878776522475629,1.1033838826635283,-2.0289697306236536,2.3339677496721647,11.566659641954622
7.752807059840393,8.984795426697683,2.9943680899340053,0.6976305961567506,-0.12710828932889773,25.614897754568858
-11.359654524405027,-1.1971638918313285,-6.38500406467954,1.4953908738900747,-0.09585758745686102,-13.960311241145526
-3.3714210228358668,0.7503201130463676,-3.5720691135929283,3.939762692533314,1.393990182447741,-2.4619104704497516
-3.1313785754260923,0.5991769449988065,-5.007793989151887,2.850738591905636,2.166396137623977,-1.0335416485903544
3.9391440135189075,-7.869884276288705,-7.3018259027905135,-4.780978506247614,0.1019792262092973,-0.30060475949380283
10.161511162444423,-10.007882929986907,4.828590222068027,-3.324724747335205,-1.284606973740939,0.18241226377778652
2.9132119181478013,-11.020376989333027,-3.851136650048809,-4.6276315353137525,-1.388480110874748,-1.6757966609312631
1.0663331502483646,-9.079234784297725,-3.677736088349171,0.11642200220497645,-3.879805712591259,-3.787445695718904
-0.5490113889853827,3.290676071219238,-1.0830297241885614,5.516999766236684,-7.088439378807338,-6.890822998005015
3.256593088243088,-12.378757224588423,-1.8289935204996264,-2.349369617315226,-13.328311298519912,-8.465383341490966
-2.7854998158298567,10.475667343109933,3.02656017823701,0.7456831839954035,15.428153120359177,8.344574712256744
-1.368933894664535,-7.895778730732197,1.3954953823876393,-4.326065335384307,-0.982357154019942,1.6369515762216873
-1.6127359293508916,2.696058123799799,3.011190884193595,0.17509747920208393,0.8005378933752958,0.9558662579209676
-2.7937864348177337,7.468337447721239,4.113193251547312,7.437761874037125,3.067392991237151,-0.5292582284345781
-2.9738725966362862,-7.067113676856447,17.22113608348881,-5.0831523805452195,8.46011200475516,-1.629871457119283
0.7262935502658496,5.609582921977626,-2.8589664549168488,3.154789510903278,2.7079259422361197,-0.2789887645357343
-0.990547504434754,3.1179631180302776,-2.0827801283353664,-1.3884821313400812,6.754865812692967,-0.5702226526527152
-1.3720807910711623,-1.9073164228893953,-2.9153638467312715,-2.981218369105469,5.691716067522788,0.03760282965490602
-7.22395225118966,1.2065026400577992,0.11532940011799209,-1.6181170581947082,12.96510895762473,-6.040561819046337
18.259850593200113,-4.989444184010914,-4.124861514538836,4.203989404766554,-19.15410361300204,6.6581002332525525
-3.776076033951953,2.2000882391701944,-0.9236086404914818,-0.21365734529400449,6.924884846887471,-1.9264700748797972
5.350745135124107,-2.8040794269038187,-2.1297816114056243,-0.9410754551843599,-1.5029004606205305,0.520018115911929
2.647221722755474,-4.936922472780615,-6.062585972553478,-4.5619498861127035,-6.812804391840494,2.798590013854672
0.0160553989974197,-11.695149804599275,1.388888434756908,-2.9302835022320113,-2.176349433542749,2.7247534274998353
-0.309515517697057,2.9215443334607856,1.548373576445654,-1.085728759743457,-0.11920427843524672,-0.4414889447550756
1.577724451445718,-0.8740306336642272,-2.8013707116248145,-0.07118344550751488,-2.913064138742339,2.035124158693644
-0.40692151645913555,-3.067159356747965,0.02520653661151981,-1.393308349173052,0.8232135954156696,1.246727130912892
-1.5966067083788849,-4.668564557536633,1.3190331692410857,-2.342413521186681,-6.568151459535175,2.814978826221611
-1.6441724741235546,0.548944549981625,5.222784744828923,-1.413328142023305,10.243599375622432,-7.611496735766464
-3.5736888196430434,-0.5700339779753008,2.9060753583736343,0.10139076767944633,-2.52330217545338,2.8078797750574758
-4.66221902720662,1.515033741694693,0.423331147901699,-0.15517646972661092,4.603458179421258,-1.331555932067086
0.32427664854742466,4.759396301000619,-1.2229632670669424,3.7468625723726765,4.589817052731132,-1.714066243237537
-2.3506844422770428,3.3294083401950303,-5.318803822914416,-1.2644422890197429,1.170999800812119,1.5524372878781687
-5.794756624675928,-2.60923946739791,1.7158205003295128,-1.253413535259081,2.3603931319372444,-3.9333495191833325
-4.852624228266643,-1.0553031562387132,2.191407607363077,-3.8857071796169333,7.055719615201156,-3.2691519286001287
0.1624938125304367,-1.521305156491167,1.0381528460287104,0.3507237127605199,0.2316674822058722,-1.356871449833465
3.507536616116432,0.7631417607966188,-2.4286115054931323,1.1194033529941942,3.1408318950777536,1.9127778194356613
4.954559374935281,0.4170978355861248,-4.955043119215357,1.4021480967182496,-13.410881377907005,10.999576454386027
0.410002690965547,-0.982606611107923,-0.6539275753099294,-1.3272787957756589,5.654924699231191,-2.6785423651580955
4.57051586230032,-2.946235718410052,0.8446435104158927,1.657416829204439,-1.9782454577443684,-0.6075323142625964
2.9659019757703913,-3.8025400394255717,-0.844351772683124,1.5509075058104607,-2.4353944632347906,-0.5833526021337573
4.696661148096003,0.6092288575583353,0.5434311225668982,5.875205188570319,-1.0145014902579113,1.504008818934471
-4.00899806797245,0.054956465905894064,-1.218982409267746,-3.557333575200168,0.7083504512126382,3.432604280712665
2.8961091210496743,0.1349986336936997,-0.38148604584195234,3.1572869224970987,-2.88310479522865,2.0344044833047783
-0.8601138832324609,-2.6210785734027775,0.9411564201703221,-1.7314016700791202,0.08165529155047868,-1.9541548099411439
-1.9642512505318732,-1.1716762502957736,1.1020418557196128,-1.2366310219817729,-0.6799795750379457,-5.183372550728725
1.155923775043255,-0.6041911658351551,0.5889589959909792,-1.3812123113536943,3.895705642032995,-3.582042133256086
-2.7837154979700767,-1.4659083835669586,1.3635429962707986,-0.6404542403874276,-2.180969484005452,1.536155711200652
-0.5215119669680282,-1.2494595513841709,-1.3078231714705375,-3.619150650273551,1.8021512016646464,0.46812027083473273
-2.1800691501989404,-0.11487532792281197,0.7581718704163428,-2.4712383479923408,1.5084533823733295,1.325336012129924
-0.09518039847652338,-2.785917880034113,1.0763945281753544,-2.8519687089904515,0.22011192641746602,-2.278288038249169
3.532128054094958,-0.6482525556816213,0.6608945382977864,3.2866315078218733,-2.9973354368397187,1.3120669740016033
-1.1590569506487538,-2.892461548646957,0.23400880924016237,-2.2237665395062227,1.7416463256781736,0.4435044598024962
-0.8696368917096877,0.5248029599736117,-0.3270618766626598,2.076767184032305,1.1142131012954035,1.3590881227450218
-0.4814132780480681,-0.2313583322473065,-0.09417232837437084,1.6546323129970286,-0.8577288224102,2.0297356913098996
-0.10368965852485812,-0.3256742000898042,0.4630074103906314,2.009257351226073,0.5052427510932369,-2.0735156121543805
-0.04406006342804997,-1.3358937464396794,-0.8466141410687816,0.03315296637526699,-0.8760672587049978,2.703178322501197
-2.5418504474821715,-1.5402599573413471,0.49354313773959546,2.456932545629204,-1.0330840422568015,0.8794894759044416
2.822562000098692,-0.8570846355410922,-0.6232103791873488,1.212975203704498,-1.287811964420049,-0.820516240863244
0.029989628783013922,-0.9976951155829108,-0.42732302912393694,-0.165021178718871,-0.4533051836057529,1.0294416576133938
2.634489569336126,-2.4326716307729273,-0.5984353894522185,-3.6892722037534735,0.5204975372385463,-0.9227033874197534
0.7437471830738203,-1.5757366127193282,0.4856158475669528,0.5708538089161073,-1.0595202673435495,-1.5245372209041832
0.287132086019859,-3.0713829172985356,-0.05199714267313332,-2.4188480898669846,0.431709237068473,-1.073190134944902
-0.9935349309762689,-0.3347550745411556,0.39887622774099696,-2.0879141580981555,2.4637558648862785,0.012293093236996455
-0.07167714286298255,-1.0799077898932667,0.025406564010675536,-2.0965289914360192,-0.6781868900175044,0.7296659265092474
1.4144364199463682,-1.758395548181313,0.485274180982546,0.0583841607131133,0.11504094690978617,-2.925960135505743
3.9280579749449958,-0.42445084329269567,0.8765193160811097,-0.6976443949381937,-0.7103303895159829,-1.1048740742102374
-1.6867315545570731,-0.4053597835180007,0.3476830315659119,-0.3720554850563964,0.9930590547973109,0.08029758682539623
0.42715178184636926,-1.229899490947569,0.04201832865722094,1.1362530623524472,-0.25428869044748703,-0.4721691036487281
-1.7425354472795287,-0.7672330600690374,-0.0673883128679712,1.151057699992987,-0.4551086456543093,0.8289288127823486
0.009156584351058733,0.17395412377875302,0.5511557256259304,0.32799955060133,-0.1855871135252325,1.0970595004373018
-1.3156819667408477,1.0305724121602853,-0.5482027723632259,1.4958504426835764,-1.5858846627871643,1.7218435303117574
-0.3387748689175257,-1.8494665562143362,-0.6175644062997746,0.3972005072386591,-2.0515064681941126,0.8063716734010069
0.305229340008788,-1.2919524049902957,-0.17926585929797637,0.6504092762804685,0.5568306239772551,0.5527540170942683
0.1746411624122321,-0.7063329738595786,-0.5989136824729813,-0.1458616383919413,0.1965801396723757,1.4449586469842655
-0.7641346516705381,-1.0375043483728594,-0.12079992664751593,-0.1927006312643128,0.28555626241019305,0.2425438183893317
0.23443857491031678,-1.401149680259476,-0.2577623580669636,-0.4013304734515629,0.08884685278508353,0.1358187795407079
0.01505072276587982,-0.028391880660428498,-0.3005922197113213,-0.7554826831080739,0.573308117294421,0.08063873441836061
0.1649266292700975,0.00763518645893535,0.7865686933923394,-0.20841987206575516,0.34660230744132337,-0.04248106899731563
0.08482358024088743,-1.3425609874497877,-1.2857109382479104,-1.0542683165874056,0.19544967273035083,0.020530135607668143
0.9811833115244336,-3.20930351590904,-0.27701562006914726,-0.5891709476452466,1.2732891549858738,-0.9851929984541191
1.2501599995560224,-0.9443867608532974,1.5254249097040908,-0.06052084102168531,0.6519315091967337,-0.9083402090451115
0.10122107896353322,-2.319519756568821,-0.7783002404432997,-0.6556526530541154,-1.3845583886063455,0.42459964258355654
-0.8149997795381343,-1.4956155690453947,1.1537108604640718,-0.7161685134502699,-0.2945755645583932,-0.5254957038465747
0.33450285083565456,-1.4865067540827874,-0.021959775704715467,0.4020959094672577,-0.2625390396850674,0.14972169909339517
-0.5755797211343037,-0.8577236384092385,0.47821617182157117,0.004437636096541464,-0.1383509845754882,0.7524377472102071
-1.3275367452712725,-1.0421245479613066,-0.4059053073562445,0.14940763754320346,-0.1595785592551806,0.8071765572218353
-0.3599515940802286,-0.6773301022091636,-0.3415152899905677,0.48170235067573,0.015119146829913277,-0.3428759737311746
1.3861911967495524,-1.5539476123808855,0.849155417081426,0.8226420627564841,-0.578417016793041,-0.5178307021217271
0.0708383598014175,0.24770107074238779,-0.22657956671320184,0.11287159838109793,-0.6462371651047127,0.4835423529916998
