Gx,Gy,Gz,Ax,Ay,Az
-3.9773359999999993,40.435497,16.998174000000002,11.459999999999999,-348.51800000000003,-75.96000000000001
-2.0269982232319608,28.29287891848815,15.918189883908711,2.0758086045507547,3.6223313484342383,0.5496151879479949
8.028847992300928,12.699194528056163,11.224039847037686,1.5570276326903676,4.099115828333589,-0.6760199228919836
7.511551639222418,0.6401886435773543,14.215148575812902,1.3062266149692088,4.855583380787425,-0.006132471444203036
-0.7189467805174128,-5.018416702005738,-17.888150615325067,-2.1418340286358006,4.06327467379909,0.17731913342812639
8.605026724786732,19.93859988320596,0.3423396271422634,-0.14601791261929598,9.46510550647449,1.1392167558992021
6.170197021173603,4.535941231542914,-0.4177660272424095,0.2663701929258836,13.986148334447144,1.2518415751307659
22.400482648110483,-9.891018671946618,-2.9560234859445726,-3.0333294697946735,58.21550864459726,9.35084782027792
-11.412423007205373,12.230852701352479,-3.0724443820515317,-0.08846280688687846,-26.477116882365888,-0.9419193310691278
-3.87260325727091,-3.7361658586437514,0.8937441320571029,-3.8316209682665785,-7.9645581964534795,-1.3729153401672118
-1.697332693395041,5.753102329128399,0.9305472972822695,-1.6800907617364713,-4.8654032247891585,0.03360237379979525
9.69232132388859,60.85611029552859,46.433556398233,8.816573671167133,-7.031735604283004,0.8821412288056523
-3.578902710651585,-7.54290440867762,0.5215805993378553,-1.2274128594027391,-3.4827158669933045,-1.1851348599693459
-3.7016376162572406,-14.758803076992685,-0.44469471029176333,-2.824088373684138,-6.470128765051779,-0.7792982483012345
-3.3826940088364066,2.381223929833678,2.367768795147809,-2.7383981265343427,-5.095168395518408,-0.7366663695186944
-0.5701939843695534,-14.708616012202013,-5.6512329027086405,3.7552460084012975,4.9351725984462735,-3.9851544097689775
-3.256438248098195,-11.678580994879248,-1.147945715374999,-0.5455992506264931,1.698539595981914,0.7253204849041051
-0.690408132688979,-14.479128012171948,-3.9137446691671185,-3.9244036320270785,-1.1155862753396995,0.8269794555623071
-4.390312400036975,-11.042120021768744,-2.9500016350193055,-6.048693146747173,-1.8676499367317514,0.6225644653664846
5.218255337818979,7.27670252062758,-0.08762629088584362,10.126086602000697,1.7518114583464515,-0.130617789411673
-4.546574647712029,6.125474868504766,1.6881804400978593,4.135207841652945,5.780890828311282,-0.46917342121853167
2.1706310693697897,-10.84376095657612,-2.047775719747525,-0.1259134167421454,0.8344605145007218,1.4046108289999315
5.118148294994741,23.114151946904578,-0.24335425159158697,5.975844921490246,-1.9960126093112591,-0.5222631242022137
-1.6734054936744875,2.2913251882616006,-0.7991175569204974,1.9408689000538173,1.1428969661723585,-1.748169582485935
-2.1906866249364034,-1.741150643231558,0.24100608200270246,0.2033775085074333,1.1133807293530003,-2.6947451046293223
1.8405432035658253,-0.7887195013833304,-1.7650223998388728,-1.1314816717369713,-0.3568644181691969,-0.02617991748971704
1.253326636951415,-4.414174956258559,1.5724510027903076,-7.079414518912376,1.5605592796055854,1.9698772931132698
2.0122420361280864,-6.653797193405051,-2.868667517168351,-5.011959639565459,-0.826973524659399,1.3951144283958903
-0.9544910706787744,-3.9972383252806605,-1.5251420270362899,-0.6689725381426723,4.88665016256307,0.8617125459638869
0.9660990800930666,-3.7704490183305746,-5.7914455462415155,-0.26567341463388894,10.771984061471024,3.287977139862481
-1.5439880949969242,0.6266747879128038,1.3208951763941945,0.4487184222245929,-6.219793864471919,-0.9899658656805843
-0.2876474739039671,-2.412228629439194,0.8786239682731707,-0.18032239979183692,-1.5900978853328098,-1.032932584583995
-0.15491323343545393,-4.870499736826567,-0.9049911295665823,1.2438665229546848,-2.276489361805744,-1.8357858947044499
4.061358749051048,-10.561160173439934,-2.5172757432336526,-8.633975264047718,-9.370737412773455,-1.9145772787226998
-0.3494593785081783,0.9986679812285724,4.882206155268311,2.862301871844001,0.30820594021533376,-0.31207096393396005
-0.6591731523218827,-2.2843491275451755,2.170350842424523,-2.077125709563447,-2.0573332811735963,-0.6870665442592818
0.059582730135279954,-3.403832916804442,5.76040944545624,0.8810194832988939,-3.625599739726195,-0.5554695456357894
-3.6286596688433694,0.1260245081721747,-6.2326255316666,0.792088078314825,10.156627044106978,1.7071161275106324
-3.275265418530828,0.6442187606647187,-0.424640885165659,2.842167905980233,4.1527623672802,0.4626354479795325
-4.399640833257508,0.4206950253558932,-0.06327835753926558,2.4769988062378454,5.299011528655737,-0.9240207268536301
-5.1035217208555235,1.488832331485137,1.3651649670542376,8.389255273717936,5.744573799242275,-1.4411090592403522
2.7538320372903806,-2.1227566478768054,-3.2958711124583364,-7.799345993745215,-1.7775113784399255,-0.21243916071445074
0.5267023068352419,-0.542520432353281,-0.5560872684655778,-1.8295869896103516,-1.0137337087826817,0.027706987675534173
1.206661409982115,0.49308873710911205,-0.611336224172117,-1.7353996824020022,-0.6699029535588954,-0.09790317701475004
10.425422342430574,-2.44796145908752,6.458952432540426,-1.7132942287181128,-3.8705741160676186,-0.7327032835582203
-0.018007556369724842,-3.813898800373103,-1.5387388552157848,-4.423522080493511,-3.387405343806634,-0.3784887046826002
3.3523095017794096,-2.412416329717256,-0.45092456545069837,-2.462543090786113,-1.7449315212585648,0.24774734936818593
2.3033022225744935,-2.379091259055423,1.826008308104208,-2.853867132405593,-2.1875251215402716,-0.4081366333423493
-2.117667916762114,-3.0339670289829757,-1.8901422063765283,6.804821505697436,1.5770778909537038,-0.11938444452857233
-0.6321776302506152,-1.9031130458718555,-1.4321369032241016,-0.16025788559131637,2.6970351054672497,-0.03025348518108678
-1.3048465862151866,-0.8595685259154455,-2.8883447799823143,1.370718758998613,0.06715827888342574,-0.4095694152255065
-3.236566910072608,-1.2658778697890858,-3.0497409577438157,-0.24449413706118955,1.1907177927324528,-0.7769922898004498
1.8906194105400227,-1.9967916864589674,0.5690317523266937,0.26301235288473324,3.336223949347938,1.0808489955182061
-1.6069133693260602,-2.2269235359948776,-1.0143470348470938,-0.8568008323731434,1.9207210357707591,0.14175560004336646
-0.9310380418270434,-2.3010316623098994,-0.43072345542605617,-1.185750680185769,1.8712349563640829,0.09327980971584673
-1.9439439438671864,-1.7949658724906392,1.9724502580018788,-3.186011107687303,0.5032155449393425,0.3700735874516097
1.665814906180929,-3.193847353218906,-0.80118201236202,-0.2923624035753599,-1.4099432479822411,0.7223903341866842
-0.8387190671844995,-0.6967409208993564,-0.14159056023315142,-0.4360101858015159,0.4753031568604176,0.49567072593233563
-0.5877024387591515,-1.2674683030692107,-0.6503435462339411,-0.06462723939965484,-0.5814213936835109,-0.7040852406651918
2.2673794945640524,-2.1436037733921585,-0.9747327804041586,-0.0018943777554375762,-2.6511531033237072,-1.2676478172706167
1.4168965321244638,-0.41845912121319495,-0.6987800922125907,0.0003264239384919154,-0.28348899707511066,-1.2439960505948244
-0.5811099937725142,0.29807246902167894,-0.8941923576173842,1.059350316780892,0.142883030858866,0.4915577842824104
0.8052218074372718,-0.9259015847666757,-1.7536819756389659,0.9952103954524896,0.8982265258481115,-0.9014090766760732
-2.1700758244530434,-1.54041556547913,-0.25659774352804254,-0.23695084072072892,2.5188010976940474,-1.3071943684561453
1.5329527727284462,-2.749760447813279,-0.2643725786075911,-0.22820718919599056,0.25002433011412206,-0.31048041922527697
0.01569250355150964,-1.0976026469761262,-0.44434975294639456,0.1727768779672625,1.9408391431011474,-0.1058932185079493
-2.732659125213311,-0.9274249710573473,0.6671526693305256,-0.4831625520447793,0.9365369983989309,0.2719892701692003
0.14293399185068134,-2.9235058423791647,-0.5113822997930917,-0.44755256781674946,0.8270987464379358,0.2848647190403967
0.4136730639289486,-0.5345763052944997,-0.6158794453938434,-0.6370179874605946,0.2601854755680953,-1.0079989299349876
-0.6085281167391887,-0.5357491916514303,0.15816838793714594,0.05421845952971138,-0.340838495148715,0.6802942053709298
-0.34843072330653935,-1.9206081025102133,-1.037942792324257,0.23242767837391665,-1.3717076229823242,0.8674604867896711
0.5485290793229792,-1.9002888874427066,-0.5287784491105103,-0.4299887637612291,0.8309330356712281,0.43385602134497536
1.5328625552991189,-1.7419928620431786,-0.6539049822361981,-0.22553804149735518,-0.8568742963301129,-0.4719384490329516
0.8707025558975127,-2.2304221229297707,-0.32544640376784395,0.4172008915546124,0.3031798501270022,-0.2713910827686998
-1.1098484394187458,-1.4558539660043417,-0.2185743412838515,-0.9386825403430571,0.7479145807072592,0.10358086180963644
-0.3982634074808673,-2.209941189959152,-0.5886954788211186,0.1053744171311981,1.2602484671093466,0.3988391399250366
1.010092672833093,-0.930510979895485,-0.5766131387079184,-0.4738854318537443,1.27883220388064,-0.5803024250949544
0.32142740936807707,-0.40614425152285527,0.16739418268065342,-0.14201000512942497,0.7638462739969578,-0.02841354206637238
-0.1935860617086228,-1.5010924242437222,-0.1930917707371531,-0.1398224944613509,0.1025182741772922,-0.2190505279204102
-0.4406912572109405,-0.9511588000994667,-0.1910048568811028,-0.03419872152289663,0.468776950504793,0.06835158568416991
1.0253901292596241,-0.8540123143085752,-0.48056453379222497,0.06788870900331612,-0.5973824931651404,-0.1390513460020606
-0.483342608348177,-2.474497091897528,-0.6523822276039862,0.6246226531928034,0.14801194566254108,-0.5396403700336863
-0.6769220485285362,-1.6442828820494653,-0.515743304518747,0.03226497589843766,-0.03480154806697419,-0.4125102795504865
-0.17574610222956522,-1.4388495207078829,-0.56698847916036,0.1914089336613031,-0.20289956092975975,0.12380223797571471
1.095140310864944,-1.9676390558710464,-0.6587791601901498,-0.3613372306281909,0.4756834754849617,-0.16136278015112399
0.40974392350938105,-1.534397257875154,-0.2186183457825137,-0.2630533654356453,0.4615999970753091,-0.04825068783589903
0.15814113535080726,-1.9196105360177165,-0.41298803075157325,-0.18439560482943584,0.09266279931553095,-0.05865400514765635
-0.20648118052588035,-1.5578673373346155,-0.6417898244005655,-0.36055845153427507,0.9249179156081694,0.015244097788965287
