Gx,Gy,Gz,Ax,Ay,Az
-11.399051000000004,-4.217303000000012,3.6327919999999994,-10.022,-513.414,-28.441999999999986
-4.9060564539850455,13.764218582215504,4.581537089736271,-1.1461832038295934,-1.2308168590948214,2.64093117543405
2.81560738673221,8.142232536460636,2.3007502179194734,-1.3533495578353292,-1.5495521275405957,1.9431773040480647
7.434210543608849,12.135882755302926,3.920925407445148,-1.3124885954460657,-1.3810063108312265,3.613412269753395
-10.564000765776711,2.2432708430339283,16.23707302095145,-0.8598462328854,-1.7562129542521374,3.8375740088550416
5.685181136633266,-55.00493207690783,23.645288964369726,-9.572407978147027,0.3245464682399657,4.022427373218095
1.2215512502664936,45.23781713480186,-11.855955032885051,4.186971802404896,-4.249949852034017,4.800615768983519
6.736684725737868,17.65460467819642,-6.726607944749632,-0.03676122998611886,-6.79139682952828,5.219988602543811
9.98014224500509,-9.158379484046067,-6.256095047902677,-1.1090752856205695,-4.172441636467967,6.56594580428915
4.021115183895794,20.465216748257863,2.2070615273451475,4.079834940815706,-8.56212401617782,9.402385959526093
28.030484066986777,7.109762105257689,-0.2152162695871327,-3.313937661498048,-15.691837103312169,23.665507575815813
-36.04121773842394,-8.238616136087163,-7.198949990178837,1.1338437991114796,11.807526843765968,-31.026526434414695
-12.531226184868968,17.899540332766403,-5.860273353145226,3.0447803597084384,4.084075239266118,-9.38682883795563
-8.611931001691216,8.724450157940971,-2.3581180539044757,1.4376273129764954,3.2238412142735866,-4.268277343534352
-0.21555678477974027,3.847969711274043,-3.739966318536397,-3.140993187520528,2.308251382649453,-2.0749044768917706
-0.0851844826080157,8.068634752067119,-5.682903480191718,5.530639232774036,2.31431945237742,-1.567936173316825
-1.501180198043358,-100.37960231541086,17.57227254450853,-16.60643826935708,0.2983986412301012,4.924714054505652
-0.8808461417338669,5.552721236718201,4.948233626544016,-0.07775535005101919,-2.2383252745730573,1.1440901335153923
-7.082541269197649,2.8229097487827337,-0.08724390819641137,-3.0090729361960333,3.533707770127185,-3.252364798596238
-1.4017292039326215,-8.675509728694331,-5.644727437297333,-2.07535640504696,2.6785691963697547,-1.930541430085034
4.000484391484181,-23.658430086655763,-8.836839402419765,-4.178566181120665,4.481527467562801,3.3315930446544035
38.347821845784196,-13.581778434291031,-20.57070175726121,1.8927913796149503,13.387879024627352,12.872348287277148
-4.220128144627742,-0.5456070336203929,0.290927314927574,-2.031890364767592,-4.857250105306591,-5.232341028188868
-6.952399532294459,2.379750803004732,8.24525652144737,-2.615951870785408,-6.376513948488759,-6.58294624890701
-7.398484218733104,3.4489313072303105,8.555472990332547,3.322337323788247,1.3906495452662635,-3.6552524194251106
-2.766656563003783,12.293166020890439,6.414193725867162,2.479073037546574,0.28102206947424513,-0.6096206382134095
11.745070256299151,-1.0338452010752541,-1.9524443148226354,-8.260773478837857,1.1971124864181473,-0.0925427232195799
-3.9428660556849233,-10.09933705656757,-2.624471501074849,2.31977551447529,-1.490929220989862,0.41549903662104004
-0.5844968937819037,1.3383796283004188,5.336322389203637,4.013294989574455,-0.18874951021379038,0.8724193298705214
4.866366264557076,10.933330238280664,1.819396168072604,10.560184690427308,0.3452814350008877,2.3610058827523464
-6.21229191186843,-3.5160142184958962,-1.6719313346325846,2.473729518590827,1.2007373327554056,2.0420243795459974
-0.5448648832032696,9.214570229749208,1.658742674558878,-0.4251242252927101,7.817617815941661,8.148141455994686
-0.9849648941199373,-0.4833106064254059,-3.205210392571,3.527310691803949,-16.57759218981048,-16.137058029586584
0.33900753489319246,6.891236814078598,3.104474277724851,-0.24142339540688096,-6.517514928601941,-1.3851391917529763
-5.1051439124525055,5.8444241574780325,1.5647469379978367,1.071859968856172,-3.7997435287184063,-2.479703483671279
-1.8550586918533427,-9.620976636322927,-3.0895617470519006,0.5690843089469726,-1.8375775272433046,-1.680123829722589
3.129419794549629,-3.6197634978652102,-4.232198215087491,2.475794154835948,-3.6028572520749287,0.24738816961011056
-0.22613940731710547,-31.933867956699977,-13.600737812763452,4.62296701757583,-4.868560600688731,1.7985506220280754
-4.524766178891852,6.423415847018349,3.936897342359141,-0.9248417669496942,2.016752162214053,3.6217122609629406
-10.614762095714726,8.678827814578373,-0.08420512268031721,-0.06689016515133114,4.833664475085904,-0.23964413515174066
2.0571716123135553,-1.5623223484396889,2.983306627864872,-0.15058758234336178,-5.51342016839968,-1.7029240494727014
-5.888035134335626,-1.3259072077978873,-0.6710243170302492,-3.3050953232006974,2.313112621925174,2.0792457018187838
21.113967591957703,-9.111488537083938,0.9395629505852654,-0.5306589539607216,-12.587705423520873,6.200217247113626
-7.5299714385929795,6.084801579811932,3.02217131639909,3.6775854905071106,2.3734686002797556,-3.047561188009653
-9.050509496508939,2.913633046516042,3.328176603958177,4.593085069284011,0.41816949351363863,-3.0654724803116986
-11.68215196155572,8.226540186705472,-0.37136649635199026,7.880421091081516,4.1407823867723845,-2.495309102328813
-2.768928825973612,-3.9102577681367663,-0.6663456892786837,1.3865230553295695,-2.9447288024019547,0.4367394468601482
-3.3685147337464105,10.89024096273531,-6.9511176700705715,12.030572992711054,-0.9921054825205746,-0.5496002589591062
2.5597169683495995,-0.1781891421415711,-3.121879879686914,-9.9822060973875,-5.464625202557514,1.3168856739769805
0.8852140915054436,-0.11369886457477962,1.9139951792856027,-2.0569574912355044,-5.84914997178423,1.8442495935737255
2.0603192176025993,-1.2646386331324264,0.45082923989325496,0.07413190568350347,-1.1919378997121992,-1.0181702870956566
-4.276377489623732,-1.2530258611064857,1.8481719545944464,-2.394692417163496,2.969377654801302,0.724588921025277
1.6246354001937438,-1.8426934514482742,2.5946008141937655,1.303820628591283,-2.8201147067171206,0.7955604143015729
-0.9642433931573124,9.038199527586583,-2.2072116745480725,3.0142222926237796,6.782761712723632,-7.577455823410983
0.07132927581842319,1.3947517340741926,-2.119286658583141,-0.10035842457008393,2.031584396152378,-0.27312253370457285
-3.351946915485387,-3.5420481433020496,-0.18587221598558712,-2.07024694640823,1.7579633859378756,-0.3633943275999374
0.5860425994120333,-1.6162357728386874,2.325727484232851,-2.7604958178183296,1.3151913678434854,-1.5030836869985271
0.06994965888944477,1.7353650581658355,-1.5680242993424627,-0.8998459749835466,-0.03342442582585026,-0.3225845966006582
4.528664220606505,1.3632803334970887,-4.262910928520686,3.935460630271433,-6.708730595586736,1.1005321206961955
5.634016647441776,-0.6799359317997887,5.410843849625579,-1.2325842710346742,-2.8855779927338667,0.5553933150106021
-0.29115105595645097,-1.606742386824348,3.6330109344000894,-1.0850718923765317,3.1051754042693176,-0.6526820998251074
-2.6421912414865543,-1.5143308662133022,4.2505054997695995,-2.203381580462033,2.2835873190842286,-1.0736838682928913
-2.299275581164472,-0.9886665751481583,1.3328951286335393,1.4608695577748048,-0.239726416648955,-0.5716019580598926
-0.7628001521558883,-1.941892252838111,-1.035471761044566,-1.9957997191379209,-7.6855249324953325,3.413335619935761
2.4337822587694604,-1.2618869514894548,-0.6556143845862095,1.4937478810532807,3.468973197917287,0.0702432004822745
1.3456991918794778,-2.4270540224472152,0.03026512235007217,-0.06615714711744236,0.8167268160653496,-0.7945057920979948
-9.161875122180486,2.549666890509119,0.045848388763564285,2.3868588739097443,0.879956435475588,0.7924435653742019
0.8816970547306224,1.625584980939189,-1.0338889108774747,1.1654545047709968,-1.3728555274031313,-0.5891684835465283
-1.5935188464467278,3.414855549457184,-0.5243839072710537,2.1453620254887196,1.3736664133519034,-1.4187263227660234
2.899165939466787,-2.176053044865399,4.474541120422426,1.13646360548147,-3.851976151381071,1.75659774669177
-0.7212402931418269,-1.4000878773801508,-0.19352003097452436,-0.8113978309148775,-1.7020632029935037,-0.616118163585871
0.5581408367254788,-0.06918474538919406,-0.6869728395502896,0.6612622135531652,-1.68930013770615,-1.0307360996291095
-1.090394208446597,1.107665218060405,0.0059707060478670915,0.5330782596640913,1.1515029792979976,0.7680621991791587
0.5801078543742484,-1.3056574228046098,-1.0118199456508687,-0.45554559486820506,-0.5980773110155878,0.06446916212257753
-5.2540759613016315,3.5573407482435924,-1.7891064786565405,2.306352132547066,-1.15016050863419,2.1232068658417793
-0.7698430637499346,0.7208378541978021,-0.2629715498213363,1.1945693600896312,2.2979405176284384,-0.08441597648419558
0.0856995025877465,2.061305015336697,-0.20307741967072246,1.255331444358709,-0.13288955771896638,-0.14389909040445392
-0.503742704828138,-1.0097704716928093,0.7553078547470554,0.6525149508505977,0.9813955413394212,1.7293515312436518
0.8883501913222636,2.4877021139970528,0.27601927922373803,1.2198638698627742,0.6927924260211715,-1.0811199674692271
-2.764876495785977,-2.984890043941945,-0.26924698862986196,1.654882378402904,-2.293873181678743,0.34037028293641886
1.9591361171664294,1.1460124803049454,0.9768740978469815,-0.08583942015277668,-0.9066068628804658,-1.4250671093703808
-1.651136674048936,1.992266381383433,-1.220087810754599,1.0084461785048657,-0.4163947613022414,0.17948507723192345
-3.1981342030118456,-0.5241265304823008,1.0570115863255436,-0.8256709839267357,1.2150319514237353,0.4410017940534396
-1.12355955868314,0.8984806702057985,0.4798811814453392,0.3546037105037206,1.1168357679491987,-1.2000843818892268
-4.206421460623584,0.6329032557735841,1.1014743334826007,-0.29926844595945556,1.0498425801007905,0.04764829368092677
2.755374524336814,-1.3366823114417294,-0.5365695687042721,-1.0611350051799224,-0.8206054111375067,2.678885879303659
-0.19992163153012754,-1.7714805608574093,0.19964164408292268,-0.25486781136369235,-0.3127259222870023,1.210274637838932
-3.247990432913096,0.5265868014241839,-0.07603246456581089,1.1053673497162517,0.3943309092652274,1.309061712461454
0.13504946108434734,1.5786078728751645,-0.2659805184761023,0.9355576228999078,-0.8673960661820079,-0.5787203638704926
-0.6902249077530699,2.3972652512997965,-0.2036634575515951,0.9212065121852197,-0.6496957577313035,0.0898169844230732
-0.23490717636710912,-1.868958155322878,0.6619803987446645,-0.9608209446064232,-3.2224982038126786,0.09803197962309596
-2.366565756422001,-1.2406335663703665,0.5498777668147361,0.7515381667414704,-0.03014342905916717,-0.7146553419971255
-1.5282574161233242,1.1512742057112222,-0.3543755698073432,1.391457008124533,-0.43218030591108353,0.05223073541201656
0.09262769489165112,0.6540088381478598,-0.38442827661627316,0.6128311549779467,0.11588765335042903,0.4034623967163332
-0.07799360396325516,-2.0856706386191672,1.3694352722916165,-0.5491590773224448,0.6146233963324934,0.5477195490314747
-3.9419786283172975,0.4652742853185468,-1.37557462031947,-0.43273238878646525,-0.10637662053026276,0.4066105723736434
-1.4950176808562672,1.7172164147186237,-0.278937396880236,1.3298567264844803,1.0227474621503398,-0.6440393039555853
-0.12372307083109024,2.7316012523239923,-0.05869912883424533,1.3054856678091245,-0.19819488026677948,-0.042689540341419224
2.4443161909686784,0.9917501180201267,-0.2985180584946101,-0.19266449733637592,-1.0760262489043992,0.7770710537103434
0.20638885750777503,0.938686598688319,0.05873895806395357,0.5552942650913264,0.2746905834870311,-0.32758765840592313
-2.1185147820404158,-1.2108035200156309,0.5718210328978607,-0.7578671467674765,0.28401339915157386,-0.5469103349231154
-0.7436844398203315,2.2579725247453695,0.6859785301292614,1.668453017465797,-0.11081799111918911,-0.9451137127461282
-0.23469089162203938,1.1076522364703176,0.6045663542721519,1.0399146935351478,-0.7966216726914599,0.09883011007687043
-2.876872740767161,-0.654429311232446,0.9432270716020615,-0.9800564612274373,-0.001716334551256471,0.8660200999949627
0.9842486753232296,-0.9267471836010284,-0.20285181274570735,0.18031574705289366,-0.08474810321250004,0.49146290498532913
-0.1175046233553575,-0.37458589913768725,0.4303822625491177,-0.14010570423287283,0.3606536272102989,-1.0752935560081873
0.7352882597158588,1.9164321504051998,-1.7635509667243996,0.007805749364381054,-1.1003918140217577,2.471686589578324
0.3080595156230359,0.28118245383714946,0.40480914911780724,-0.3780459702199171,0.2731803473567529,0.10917072374508124
0.8480378601374237,-2.3308806867636775,-0.05115701847105619,-0.08032900655351327,-1.5067314279145787,0.5991708782460401
1.1061860544776783,0.06935476710083455,-0.3922423498376905,0.3075992121612171,-0.6890309177301139,0.3829600060286782
0.3627832878223124,-0.11881758327567216,-0.1026010262413698,0.22244192859092593,0.292857441852334,-0.01287631744386164
-3.488979168223137,1.5278019191698484,0.5535461897947611,0.20619909906209763,-0.7859303302617222,-0.8123576789226872
-1.8781866223215045,0.3534374527663834,0.4092081151477671,0.6793010225010222,-0.21044813775278548,-0.3396386215337629
-0.6308024493732121,-0.8054306022885127,-0.16759559702486118,0.7756802664606548,-0.8834443015309041,1.3269657872309053
0.5747805993117469,0.2999293612070242,-0.8817640634541781,0.9224700458625288,-0.20995340747040347,0.6027105230835672
0.24008269124235238,0.142202637403118,-0.1844057039689817,-0.07123446622639618,0.14451178124203778,0.4276872420742388
-3.36298834016806,0.5729460291790044,0.020793188451997013,0.10848532277509015,0.578474369815692,-0.5985350499887561
1.4944489952605298,1.226153557122404,0.13556289084738044,0.5899671520819583,-0.516462209515817,0.727746762397601
0.5190903109654365,0.9298440800777568,0.5635799150578781,0.18287767251736547,-0.7659354738053255,0.05806918593200436
-1.237464766093574,0.9577450525334699,0.4561639155759709,-0.2303029264482376,-0.4174134044252975,0.4357515758855608
0.010712624467398513,0.13212544193328735,0.09271005253109088,0.15349014323033572,0.5573515318331435,-0.534802617811473
-1.444999002616762,0.09534399410010658,0.5656974385422682,0.1694319139083275,0.27581935540753405,-0.9221130075834737
-1.042943085157186,1.1742052098774585,-0.22613150909737892,0.7830196188234196,-0.5613300142666051,-0.01593401959539026
-1.245169703515897,-0.08885992786881924,0.37531017383468246,0.5426093855978361,0.14280859103249877,-0.4908869989695668
-0.2437959931808269,-0.2513095430114105,0.02145079183259215,0.17661505893198093,-0.4569668376733611,0.8966585139641231
2.3420044192158116,0.2174967132670343,0.16724243559924035,0.3447932353823477,-0.09790840125472933,0.06303337942394366
1.2655199270974955,-0.08305559749621813,-0.14440598218361184,0.8189742315996267,0.6484715974152988,-0.5815120422508167
-1.0248598626196619,0.8436957314370254,-1.0823683691498833,0.09264168689220642,-0.6486961192898313,1.6409076610781117
