Gx,Gy,Gz,Ax,Ay,Az
-14.816652000000001,-11.361864,-4.109316000000001,-4.814000000000001,-446.96599999999995,37.512
-10.066705076347628,-5.4892592175674295,-0.5078153089186912,-1.3241350059951948,-0.4752932456347807,0.24659885303132967
-10.29191232608262,-1.082959515003156,-2.889508028950167,-1.53160637317646,-1.2418150965247894,1.7631841618254465
-4.893165504895304,4.234366583294149,-6.464277710234406,0.15034355922339748,-1.4961191776238687,0.2175459026572757
-8.663884046221572,-5.3384191016169416,-23.659783505595335,-1.815516280124757,-0.44497093491785256,-2.3016166899044626
20.074305028396005,-6.197204817980191,31.28076000232014,7.745598023626626,1.5584605517337926,8.04258670287621
3.2999569958853243,3.6679532277746807,4.065740168027469,3.727202858118397,2.4600352436056885,2.8533747184645217
2.7148220785618227,-6.544562519985814,5.771004169398985,1.6481191322196693,4.287599197307207,-3.502347220120681
10.52351523674923,1.0743103039662456,8.594808530073822,-0.783721116083586,14.253868578756855,-4.039086656983932
47.48313777095465,4.81580712888588,0.5609607421595804,-1.201025353483247,74.78038219941604,-2.258595015124421
-20.405435951414447,-0.1578140334499838,21.10941001256193,4.400043421491426,-10.796011020855008,-6.129279752468227
0.8938268677929917,2.4749102578617173,19.07159255863457,4.018670837022469,0.053359460144119186,-1.118367738439818
2.315214808794819,9.644974832573414,19.644861685012387,2.7884111274616776,-7.144435484578014,4.3383961477330155
-0.4449009916692487,10.426792616691548,18.989981111879434,4.014520766524784,-4.924046403972951,-0.028872584336493534
-8.789712775539506,-15.714663996547266,-49.25688813418082,-20.121647060167188,7.880424920648605,-3.5056116627578957
-4.868303619166124,0.8070894959293997,-17.404306497019487,0.7450642831953349,0.0983879008581221,3.1702195605951404
-3.8834999738332625,-14.725204930132318,-12.703609702993,-0.3561050245826469,-0.7953918023246658,4.770315031127652
-2.0969117287506225,-15.147090786307135,1.730881909363994,-3.4843627907053962,0.07380988158066915,0.08278011467759061
-2.3434595427189957,-37.83060796306414,3.0819633372000323,-7.876353799310167,7.141376373478795,-10.274167113004236
1.3889819513287676,10.325819588993241,-11.313595863560916,-6.053360609332741,-7.368522290142815,14.457776902774661
-5.97888823306293,-0.10537071531199971,-1.3987394853212556,-7.644199354009786,-2.405356641681986,-2.6537709789280033
-6.573886466278679,4.776303853235437,-4.883908537422045,-1.6579701207461284,0.7557663979057865,-4.290671610449868
5.141634668065264,12.26899968450701,-4.2618538470465435,3.1431694743233365,1.8327636118505048,2.2171161706997085
6.671694944751971,-31.05914343453539,-26.132995617196677,8.00172028113844,-3.092319355680223,1.0613283889981613
3.974152789035502,22.3745002294875,0.0030570789662376363,8.728682404874629,-2.293057421082832,-2.3236556362063263
-0.9658203503726948,15.447149467258676,-6.01222678995317,2.9246317251584184,0.22695407424453495,-0.6465088666679122
2.7090484144891835,10.865297126320497,-7.729524193700141,0.5515678560830857,7.767350425901313,6.278660945054159
1.7664749020133979,0.8603264081510447,-5.848890471005715,4.974039289257264,14.345935587634997,13.293336676540656
3.6453335187943856,-2.7202521505698263,-4.207401808712905,-1.1614197689238432,-17.950558937673264,-16.899212677360026
2.059688734204216,1.8132736736611297,-4.221692997346182,1.3857358082367712,5.272680386748544,6.6111664415698375
-4.876871936955583,5.069213457921043,7.075873650675058,0.18936912545817997,1.8844823502717212,3.4683400725505584
-4.670689846714785,1.094004154455817,0.9012170712417283,-3.0223381622026606,2.3193716312503274,-1.9625594420554338
3.3864970748809813,-6.196330126410746,1.8809007896849366,5.659265555935928,1.6795594353924588,1.416927035750588
-2.163845373494772,-4.699757987197645,11.291838178424848,-1.725238512976481,-6.871233964357266,2.676597882895204
6.473031351300497,-8.953110349593164,-8.382128768015573,-6.444127275442025,-3.8956620131467776,3.7254962907402396
5.197996979139792,-2.0517017945546177,-3.532723052039304,0.02177176167203465,-0.3416553954182584,-1.5881893374856944
4.631756254160275,6.178792686297321,0.932412909248296,3.5685025407615583,5.689017221143002,-3.7052364511416336
-16.302302503924636,3.3806523564068023,7.900701721363138,17.264236456614356,-3.13096084095333,12.133294958130016
4.703203230526583,2.0022303954914396,0.35799773643734323,1.1568365262372813,-3.733284785627615,-6.94183268456805
2.365040252166178,-3.469448612256714,-3.09537893764782,-7.938941481563669,0.12866560477781624,-2.4125154876841313
5.7240365940667015,-5.488008522174773,0.21525823335056948,-5.050149105059079,-1.3867557583766166,1.4027467629949402
-6.449974777284295,4.628784127195717,-7.0352985489501805,-16.248212849737392,9.210328533953366,-1.103465121088128
-6.291828998668949,-7.4918973456717985,1.3190698417982933,2.960596868163634,-0.5920082696692938,-5.784631940124085
-7.255701876080879,3.006065668241816,0.7176293579225301,1.7447620647519266,0.3842648653919736,-4.209649982652276
-3.921763064671282,0.29421156816593674,1.1143737092453732,0.7859693556426215,0.6785424624259331,0.9710320140358215
4.569150840930918,-4.102108628781444,-2.8123170542499403,-11.594226236094888,-4.859555578696986,2.104874406798246
1.3678811075894755,3.7173685205472093,-6.875559293336297,-13.103778534100424,11.170345483496556,-8.38985536075846
2.654538357952033,-0.8733934068427285,3.0995564046574224,8.214680945021069,-12.249261825408468,10.583191571863297
1.5711304039148941,5.06594770514518,0.3840356062134269,14.678004466195748,-5.360964231121159,-0.5594411055368296
-3.2577766938601687,1.312723280836782,-0.24438879726245588,7.555249672932577,-3.9617821444597716,0.35279897835778073
3.692414003546125,-2.3933930621530246,-1.6241627374568415,1.4025896720127544,-3.4473851897114347,3.0446755245083565
0.5233354944218584,5.503066587467523,4.5391685953520735,8.36595953348289,6.5203985859826386,3.962093368547323
1.093877563260263,-1.8584300516805166,0.8663115849960317,-2.301343339015582,2.629435502221328,2.2727147055590424
-0.23830214285851525,1.395216061168044,-2.6013291651815695,-0.16151401152820188,-1.0413478396275568,0.4550792379136712
-3.055513228481111,0.355756098996193,1.0337752620855585,7.968170157490248,-1.7270248170978988,-1.4529673729614978
-2.835614810000399,-1.293246020505957,2.283295951367685,4.256382892229309,-1.4203591600952712,7.000121242518778
-2.3031219189433965,5.734827609498774,-1.0461113838787544,-4.731590273295556,4.37472830459517,-10.843102709137554
1.1185863292576244,0.39737687017205325,-0.1226183157811589,-5.736941556945121,1.5718961910901,2.527766857196767
1.5509758316498141,1.4374282125998323,-0.9789729728076484,-2.9618565359713056,1.7650912265540597,-1.217114168949501
-3.5268123797904436,2.2355897000367575,0.5943766061443823,1.1984407598057776,-2.7998609600937447,-0.37558294809137477
2.993518942268934,-0.9248003443671933,-1.941503043142103,-6.40171310407461,-4.9180485374589065,1.28209511186979
-1.320959478074094,0.3383967138951477,-0.49020261923430597,5.060042740226984,0.18077010360379353,-2.8346918318733567
2.7526542881101936,-0.4614376328390899,1.1870914471925014,-2.048423168921267,-0.1015844222837542,-2.6012581252268343
1.5431517347400643,0.2932050415439931,-0.5533412518835414,-2.7943381890297587,2.076247455242381,1.0300086122836216
2.107997440917506,1.0748357597733789,-1.6478866234829448,1.1951031972728194,-2.3127468356840613,-1.7963588173309746
-2.6772865126607086,-0.40485895925289883,-1.1626634000274896,2.1003414658339006,0.318601259673078,7.496149305453242
-1.3110419186472955,1.4348552791861464,-0.3406666845120694,3.5735680177627067,-1.1387306111938549,-2.2662841916462226
0.4708535807702132,-0.30995978181368833,0.5063796052874601,2.1809314449344415,-1.006052976828991,-0.2506607117516589
0.30649329940745285,-0.17145546704188375,-0.16470177479844172,-1.1024608256108488,-0.6784801909573571,-2.0584901881083426
-2.0535577032562538,2.9610298512864777,-2.848950414836181,4.447103998531109,0.16579597277963865,-0.6031953637686318
-1.3611517489929552,-0.8007055332031383,4.7444924741749155,-5.747947158936594,1.5344161262793559,3.381724601136935
-4.048830605838629,-2.1860931970370165,0.6286528402633436,1.6385911775726643,1.1207185020168848,1.6073109249629352
0.18929439514131752,-0.24950688064244403,0.7853102462490233,0.3010681686171588,-0.9027284119696456,-1.472708922283781
-0.16782553404119646,0.7051561559747562,-0.30922108108749335,-0.11126556848500184,0.6405096429175378,-0.5346420743690958
-0.4460259653513635,0.5789890257137349,-0.5310692824043441,0.6712898479180756,2.5448056203057745,-1.696353980788969
0.04588555378059628,1.529801178590174,-1.2494398400750142,-2.241401282002234,-0.9936276481706088,2.2002481068577637
-0.5048993372048747,-0.28232355295924383,-1.4666303520949535,-0.9129030962221308,2.010388879950933,1.0166613436455019
1.3578908540261478,-1.442055461305127,-0.2553033722121998,1.2790185448687437,0.05039149837256529,1.0244761419855992
-0.12515108671437014,1.1158638597238635,1.0610089690012992,-1.5539874502064768,0.17135335978741173,-0.12824101794653625
-1.6912362935873373,0.2711398953342382,-2.88445467959655,2.625245267272938,-2.0515807197279674,-1.3227608465320202
1.9835578039557364,2.700058668171319,-0.1288299809038418,0.28699153555493684,-2.0532839675166352,-0.4610562255853021
-0.15879981396122522,1.4098711623627582,1.1169629686688753,0.4791304353029604,-1.694051736758678,1.3122320951479707
-0.963032733259555,-0.8303151158743558,1.0267247642782376,-1.6463920570100714,0.9279981129094137,1.198265818126395
-1.0496704577633,-0.06670470242862936,0.14789671563740925,-1.236199074308968,0.3353613607442416,0.23022844559718303
-0.7311566754402095,0.24590130429980128,-0.12570113588978138,1.724420812388178,0.22396786161401444,-0.6628313443436231
-0.37323090877151843,2.1533842709389455,-0.48401017864423057,1.1883800179530484,-0.9263791595748501,-0.10353880373749447
-1.0980270546736914,1.094530270094943,0.03367976859150665,0.20968613629696353,-0.3861660141378491,0.6813155638064523
0.6790404569789754,0.11304945946325784,-0.9099787266896,-0.8219303866884853,-0.36444884006955947,0.5974958228717759
1.3600207727443838,-0.007130122501760594,1.2596984024001252,0.00859340604346126,0.06640322861200598,-0.11791465031559545
-1.793236380035208,0.9515143560042585,-0.5802389983232135,-0.13196699518039168,0.8666270594188199,1.0179496513055506
-2.364207281142053,-0.09783973892028008,-0.5265387916752846,1.0146668915165964,-0.08493818737962133,0.24020842864947944
-0.2314341774655997,0.18984759372301663,0.35037660327565723,1.7264759983712927,-1.4578372826962118,-0.274435317691602
1.6975908119502492,-1.048070524029955,-0.025352058068556005,0.0035605747046361103,-0.9933086082057274,0.3136553759428802
1.0404056800383708,1.5264301411562273,-0.34849934593842136,0.2472872083602501,-1.3196727707809228,0.8600666077563832
-0.4676552761333159,-1.1392881474269134,-0.6422899903785952,-0.3651487931820827,1.1260934030886336,-0.2047038336167345
-0.43588872784572397,0.6616269644827357,0.19926449678261066,-0.8977554979473008,1.2956262688991973,0.49553304621075445
-1.1098869560463698,1.7208055062380854,1.0513732550876203,1.6081922202340868,-1.3771656713539775,0.4969416710471992
1.0741231281795476,1.6121125731904513,-0.8183409296519972,-0.9546001125637231,-0.9167571079170016,0.6699074068368525
1.7420198814727441,1.0326582504229025,-0.326782306972627,0.383117370415891,-1.0980222091512282,0.0027214834073507888
1.57939783127145,0.8347476050834777,-0.8441339533638081,-0.26995463745135595,-0.21753099942635146,-0.6284911231520054
-0.4812129466327868,0.4313184803566985,-0.33617366217865774,-0.1431348556803192,0.41251045220825144,-0.0195367085038618
-1.64823054592486,1.0062511190714307,0.5603703537019658,0.6494132470460856,-1.2350792549408958,0.9012685041852594
0.7523688053137743,0.15712581643138535,0.0594474872549441,-1.0589505040978202,-0.0021195360544636888,0.24078551490113353
-0.6258642746390937,-0.7297956947424122,0.17279378837308101,-0.3989677819826447,-1.1740333806715793,-0.2364144980162577
1.0363836523297238,0.2036043030660979,-0.595948998337783,0.8773203907861398,-1.1001548443242921,-0.30860770699793016
0.47165778726271324,0.865949749060219,-0.20920776319085954,-0.3905082446059771,0.7000130715254028,0.08111090792999942
0.3207090615235626,0.7924374926848281,-0.476119654291734,1.6012593909602142,-0.794470968872751,0.6851776631911349
-0.21663217778792754,0.627341250629299,0.11515588908280705,0.16420920748909973,-0.0662195262996974,0.32370717483334754
0.3787767349347988,1.1146829546188144,-0.5933664158656196,-0.060782766127120524,-0.07409481191049849,0.7554612826700895
0.0721465510773256,1.841336901280206,-0.8548902648338661,-0.08204283499599185,-0.6103969572150649,0.8319628465193445
