Gx,Gy,Gz,Ax,Ay,Az
-10.406905000000002,14.543817000000004,3.8078050000000023,31.405999999999995,-557.2539999999999,-12.275999999999996
-8.85741805127173,11.523853097737101,2.7388645402051908,3.473395619773349,-1.435975544566288,3.809594338414746
-5.0718562395005575,20.221175255585056,10.891771242034118,3.1587152313227698,-1.510070461661969,0.04878852481750461
-7.503265749922684,15.383853716434672,13.791200172560476,2.554907421755063,-2.382231351371451,3.308089730869952
4.646989437925354,-0.16925775301208856,23.815470559760733,0.5484249889228532,-3.417315492120783,0.9560763805527273
11.597372670693,63.83519808403564,-36.89574327922383,0.44894060543541764,-0.8476173166468247,7.573454688848405
10.968159831152937,12.988752933187424,-6.017031848136042,-0.24253693256069975,-3.034987555841241,6.865486545947115
2.5662847159581688,22.138069012702758,-2.7773235974872974,3.0216714888596123,-6.476893384996071,7.359812445966868
-2.8580388734457776,10.068032333130823,-1.897596344597075,1.9365857835775655,-3.4803520921142734,11.965540267345373
5.870645263928448,15.8229714845464,-4.674766414201167,-1.8180552147421782,-1.0609122642376683,30.072970123211448
-15.862396016456547,17.573580614486588,-9.961447804810279,8.896913783524873,3.2826284901282072,-29.24600309782553
-3.7128433892715784,10.936691276270976,-2.338360914604767,4.740050260261238,-2.7743290517215673,-6.384810035335135
-3.2992090704904977,-3.3893209221401603,-23.345425740032617,5.386885879169404,7.949140535823684,-9.625019064194994
0.30156129286398015,5.898066839233509,-16.030590643247436,8.927229560338832,3.8526028562781516,-3.2588469766615096
15.815956201155977,27.879463370121393,-52.55482997042132,29.247092122616934,8.217277334323283,-4.100336898510913
2.840199546343591,-12.333822705246856,18.738999470456164,-9.124540088194205,0.7247787205982772,-2.5408333851914553
-1.2702671244685466,-24.72229267481575,11.107454503572775,-7.954198650637231,-1.9594044884876967,-1.3169954742326118
-2.332574725529054,5.970317955937981,11.311085607537855,0.6689836316655975,7.2553334246838705,-4.430409996893581
0.41858830292328336,3.204284570979395,7.639321902076302,-1.5804462977813996,6.738734178195051,-1.8922579322289375
-2.102421127120248,18.969913510732773,5.315046844564214,2.8949799841979726,17.881094087216912,19.3673824020339
-4.098680168292622,5.116646084475979,9.626427946253738,-2.079649438863282,1.6066960012731233,-1.1391654131939224
1.6830194051405374,-3.425822373124629,0.9121481161139761,6.684102742997132,4.1016900880871985,-1.4676290992153165
-2.1229416831363492,2.626145303661737,8.697733348571536,-1.9594296467796277,4.819240458005504,2.0415365561498073
-0.16522674195378834,15.861317833774013,4.512072503635245,-1.4503686836843097,5.228179080531658,-2.1467956115549662
6.132189265062047,-93.18953680891372,19.55216303296505,-18.327122111180525,-1.315549624290866,-1.2608290062142964
-0.4194916226069898,-13.810206734103907,1.2585661193256643,-7.959943761242187,-1.4400324487213274,-1.7405616943197464
-10.680453537107097,7.981660327352472,4.929271138204507,-7.147166691255071,6.196047390041438,7.479802227923956
0.3972699899602852,-12.810949415884535,-1.3714159466984708,-5.862601875152683,5.592572088754356,0.024433510702282835
-11.453392742704402,-3.1767092780492105,-3.519765555502454,0.8371578969640775,14.240835075100597,3.3095483720702625
9.516025260489267,-7.310688523061272,7.45432832699772,-3.4456937650380546,-8.77004327576186,-6.214634623538343
0.8342751451116932,-5.502178519612964,0.9160539207937038,0.9737628402783387,2.541941279766229,-1.3378266042782356
11.997959590144365,-14.595323645105895,-3.956107722357822,-1.379426883366849,-4.663344585240079,-8.304939187462196
4.684535442976298,-5.408442429798516,0.7754408113065065,-2.2323047495613726,0.08538554402049514,-2.4311832642211924
15.641259008934894,-6.879921926275753,1.9737303058965654,5.891833186601933,2.7012205077375313,-4.706658558765667
-3.2346979996944762,-12.214276852831187,-4.622502800659813,-11.209253655743984,-1.1585847670929446,-3.1624913064181435
-3.432364999551869,-12.955004354143625,-5.640415363086472,-13.630903265155574,-0.7743277087845226,-4.585379254962443
-0.25990322234159713,-3.7397952165275035,5.010305592101673,3.159463064247109,-0.8817052539674607,-3.651693553900177
-2.561414657710009,-2.665043454813497,1.0824710177315102,-3.5018909160735654,-1.3481916272277072,-0.995762839701755
-27.83674222731187,-1.5737224302444042,1.0153306082525604,-4.701016652677243,-3.6120327810204644,11.77741399503109
-1.766786499553488,-8.23772893941134,3.9869373989615737,-2.1595744358336555,-2.153415547615137,0.6937259416796213
4.627481557424987,-6.1409594145967725,0.9034442464189096,-13.888854728150775,-8.869478655931644,0.5479689152044309
-5.403444365147015,0.04629844759004853,4.509045087654972,2.0608392877235397,8.133241122310201,-1.4688907740096713
-3.562618880443922,-2.3194733786343686,4.487529279322105,-3.3368952022118776,2.6384032461987195,-0.630593630404279
1.4172930741547705,-4.127418472302988,-10.179749601314038,16.63514873278681,-11.007752139376253,3.9493925196521737
4.071472845605216,-3.5459678634102003,3.140354012115709,3.234017098886536,-2.047490886806121,1.0263338169122431
-13.21232115995111,3.0071951045878014,-0.665410945044361,7.875981526292695,-7.762761913044158,9.5109847333855
6.319432766401632,-5.490771983468729,-0.8073923424671657,0.09038731192740601,6.1275288980952345,-2.4790080691510896
-2.3579289771462686,-4.796745158364568,0.48647662705666217,1.8820226707181944,7.175672167066463,-4.950231219708608
3.7584454610884537,1.8734808788437425,3.5220712977336053,1.6509793037309062,-7.9260024230740695,1.4575953829641706
-0.6267042589493078,2.340197883276113,-1.7826358769086559,0.5772948411840565,0.763244612343959,2.3284924637397446
13.92435737162646,-10.256411540959595,-6.688009665118855,9.107329469557783,6.82894418308776,-1.887030007267898
0.45333251469953684,-0.9637839877408141,-2.8427029860402655,-4.8836517184022075,-0.4118497897261161,-2.1205706706704226
-2.5407039457966296,-5.173596239926862,-5.559987176917173,-8.62773021596768,-5.549117922688702,-4.684756822848827
5.327541792220482,-0.014869440629366348,-3.0789499563995615,2.8093513862614192,5.140338051651284,0.9216590961419541
3.6852361506139557,-4.423752019700848,-2.11638695423165,-0.22568019977872233,4.6938151937655395,-1.6647693919805966
-2.7592878954041837,6.761144497322512,2.067365548865432,-2.165707896454121,-0.24931067441916754,2.4610947681060162
-1.2818975653419757,1.7758316253226556,-0.1702030441636454,-3.5759542293172313,-0.933050104347831,1.473193396262741
-5.154274207164026,4.667689491283281,-4.788360512813359,-0.4517651219591242,-19.361187564146434,6.284616539993204
-0.2687085377012981,2.5495842580436836,1.3685471576886543,-2.651554096252985,1.325231797299321,-0.1366924171471049
-1.9328288119494161,4.547140209736861,-2.3336920312778564,-7.228788656848429,-3.746094546773994,2.9072665426011275
-1.3942744466696098,-1.7068482174956126,2.434145265757813,-1.5959926951037975,1.0710200659002473,-3.8368341507712103
-0.3964569529043671,0.12725258877183054,2.36080399415278,-1.5914866163576735,-2.280246057054911,-0.7430826822837816
11.106502259037809,-6.162258708361087,-2.6605593370130864,-0.07166785461783398,-1.1044412586640229,3.0037466304700775
2.5703298705054327,-2.391168700400857,2.9893576385252874,-0.5235194177063609,1.2982138731529729,-0.9252255241694856
1.2764961199083953,-0.6870436024833455,0.6738681315056032,1.1181046741853011,-5.76767462944896,1.470998832026914
-0.7647663314684674,-3.5401826085593657,1.212429346023836,-2.67511871837721,-0.07954467345348726,-2.9792029286039496
0.5144579166542026,-6.391669151556924,1.984673372371201,-1.5801810480398433,-3.2999847037059107,-5.824379529127761
4.311930383699793,3.630454150182258,1.7924244596504217,1.2996836042637547,-0.4917428401864362,5.780756596617157
-1.8393174970993769,-2.1311307560105335,1.9967540964192272,-1.8188871514353608,-0.978815044796252,1.495693545699691
4.654775632551301,-3.5783669933823736,1.9846890991427215,1.3993836273615166,3.315220193277608,-0.17828085969100593
-3.086736969503855,-0.4892349233584426,0.06743477285292615,-0.005219099473426636,1.7036342465235907,0.27726167568002424
-3.444797498862683,2.918458695202812,-1.7665027590886622,-0.5151918282189607,2.8827237269014963,0.5216609030659233
-0.3836521392111825,-3.6490916301476517,-0.534372211763971,2.7666018961462706,0.3849962190168047,1.9655666938859637
2.8963247798019545,-4.916913091393649,-0.46813222290998724,0.7057786963788365,-0.9689321156705077,-1.3614332002804412
-6.679631533919183,1.1339829461353848,1.120521609142063,-1.7621882365636432,4.983835797327527,3.0722994529899097
-2.987601561922147,-0.511818982979608,-1.8552559052404785,-1.0216106708462365,0.2650775413001045,1.3919964368679085
0.005475112570664797,-1.2524202919864584,-4.5291371455644045,0.1095197523604774,6.0171412494750305,3.196719227080104
-1.3575925999513092,-0.8349950206705986,-0.26514990133780836,-1.453895735257637,0.773538707621984,2.890420230552669
-6.61641834345056,0.48742910670571993,-3.6489048361036773,-1.697334516679759,4.600586213479596,4.319571140298915
4.049248371298215,-1.9438645342444922,3.095593326091879,-3.5901090139044443,-2.051551733433731,-1.33852003717857
-0.2945356011959166,-0.6096687488414718,-0.007859105298179125,-1.8925817521691566,-0.28135327762782314,-0.7127418482242757
6.160763800367684,0.8540242642020048,0.15957407805821783,0.5306610523598296,-2.0343090835505144,1.906381077450833
1.6813314482678745,-2.690235166383691,1.7601784681138473,-1.5831843795469878,-1.9631460901576285,1.3798145601517318
11.127428377073938,-6.0099910402612835,1.2590697512090272,-0.13995843953551512,-6.784885236926984,4.079246111500645
1.1560037321450942,-1.608511180274319,0.7134600875080506,-1.679030524157526,-1.1333109425923316,-0.41436965810244114
1.2058600915648225,-1.2347628408206708,0.38441090232530045,-1.440587068462128,0.6806137587854963,1.9908768602383637
0.5087818471522885,-1.8581151318509315,-0.7776067804804206,-1.5882795788038844,-1.284697754803676,-0.3172034657533817
0.1411602145891077,-2.8055062772193,-0.2943354522640892,-1.4589833051980188,-1.1156904954189408,1.7705831262485554
-5.284544960334498,1.673636296899038,-2.0160205624937317,3.2031788711279265,2.061270969521484,-0.1822580599477332
-3.3925148685464697,-1.4652262783407553,0.8341816732143081,-0.841332411443785,0.03359907134848744,1.1779517473763108
-2.497491811779751,-0.876677877445853,-1.4473794473595027,1.0126931651283062,1.451956810007864,0.5950814837965333
-2.233428918829209,0.34800173234481524,-1.2085042534554615,-0.08825673764570165,1.3008351130167632,-0.2783143053346795
-1.2258496804372674,0.27955688695214653,-1.6120531566167127,1.2404953771000065,0.9788544071170653,0.4347267354705786
-1.6518805387778883,-4.339813843790012,0.6585829739780674,-3.1646037717918483,4.883051879993647,-1.331353005020913
-0.5423047633048089,-2.921705004764131,-0.6846118054860995,-0.761127829985109,1.0988012629018693,0.6782629412008827
-0.6630381335557713,-0.8116863895741673,-1.0201316404946383,-0.24846034604074346,-3.872339601948535,2.0026317847212995
0.6583268165336398,-2.459721174990375,0.44021926983827886,-2.480424843774714,1.4106595411171738,0.0818164613221642
-1.2557361700707728,-2.2523284532399823,-0.11855977631497017,-0.7520581066963654,2.8392952062859993,-0.02277320894531626
2.723169909758785,0.7757694860306377,-0.3697211291264584,-1.0432751778984142,-0.06556870490910727,-0.9712213354424241
1.801568177435362,-0.044724868421409325,0.28114954790396895,-1.218024948728658,0.969892924776309,-0.18944216859287205
-0.26822165862727965,-2.385401850953483,-2.941713796391285,1.6694152723145548,0.12385427989360845,0.21306517941790915
0.4884086803408799,-0.594178886323363,0.5525330723951528,0.14973418386030146,-0.1183186732648072,0.8926714128813024
5.853241393285639,-1.6626388970980701,0.744146345329902,-0.02363689997693763,-3.4394387346709445,2.1664395801802323
-0.6462131061110168,0.03740097449752017,0.3637824091441278,-1.5800365443351672,-0.3255771801508799,-0.7907657196739447
-0.3039579608739224,-0.11358192247693645,0.8149480628606507,0.1913973973982706,-2.5354546946475827,1.1779540325406734
0.03221332202350635,-2.887519767180093,-0.2535734820084545,-1.1066482019895534,1.1387990158383074,1.3989145620739403
-0.5867575364164286,-0.2937503776773769,-0.13426035571580108,-0.26501576733339893,-0.2983135172635451,1.6682358276130802
-3.0302766550219316,-0.715261604880882,-0.5526756297239066,-0.449821478228451,3.4631895437700675,0.013682530551560546
-0.7659998423891796,-0.13652186749836354,0.7208555427109361,-0.5656129172458791,-0.37845461239488054,1.172170144750819
-1.8057388020320626,-0.5201541826294781,-0.33195560915325373,-0.645211279832626,-0.968711289491351,0.8878086328636158
-0.8228726819850483,-1.3826225179856357,-1.2256108668716483,-0.021380237519330582,1.3238597775953118,1.8103667412423508
-2.3963198770142298,-0.06625019463816645,-0.8215286248312496,1.648846568999132,-1.2263718643124986,2.6329892394857586
2.49930825245256,-1.5911808916482943,1.0792647638239705,-1.2078628879106246,0.4854885781623285,0.33155031019672293
1.9775556879274754,-1.7565608387335379,-0.5237441021282052,-0.29520310164065316,0.10180935226552337,-0.013009583443565953
-2.9429451300088796,-0.9426770096651736,-2.3203490107115803,-0.5905785596183921,1.7562413566616173,3.3485239503936723
1.8968343029398487,-2.3933763654809987,-1.3796468181676256,-1.336592399303194,-0.8701258343308493,1.9151012573170034
1.2190635259427236,-3.0633298788245398,-0.6587374592990367,-0.15726137908600796,0.4054568361492006,1.03052191363705
0.4745112694810682,-0.7296776450993622,1.1690448554437738,-0.6318360285947449,-1.3448497906289287,-0.4295705007704437
1.1157108155080087,-1.2137844776597515,0.2887733784364175,-2.185111666776672,-0.5709636184998302,0.0887907008867066
-0.46572755078279615,-1.9996999181260973,-0.008342655980929314,-0.3674836928570636,1.7737732447204133,0.7795272247849736
0.8444993830862406,-1.5051935915135006,0.09069408514117827,-0.0410876439202707,-0.1480912634610257,-0.5383805358475885
2.267285250983547,-3.295313969778157,0.06049118869731218,-0.7769672068009849,-0.28983763437640525,-0.32506104166010386
-1.97770710388346,-0.7213804951889089,0.36877680190328155,-0.9684604924892157,0.9745065546889189,0.32674139812818465
0.10946670493277172,-1.8911396059067516,0.2933457416401931,0.27455371673131596,-1.0734048255175337,0.3014156910779185
-3.17124113396922,-0.36284285845484743,0.0503408538106295,-1.2661269357669103,0.70850864247474,0.7363454681789439
-0.3997449010068854,-0.48467727300829744,0.3487543869714508,-0.870248028125361,0.2886994442601157,0.3695899118117339
0.9062043139954657,-1.770546297580727,0.3253547085246843,-0.8648817241677202,0.7050931419710111,0.02046173368063131
-1.2399814145272006,-1.267179078099323,0.29367781404862464,-1.0245078603413904,0.881990804335213,1.2864057426122892
-2.219594215916584,-1.135747005453422,-0.9399736876675151,-0.7396782061650082,2.087059301554655,0.1294120939246282
-0.9766195765566011,-0.5944702846919161,0.1450191583414847,-0.19236811461887388,-0.014866697121820628,1.4598332904174776
-1.488091966998603,-0.8490190692170273,-0.23039008322191612,-0.9125568501752332,0.4249163986566046,1.5679245099189716
2.7271842429560404,-2.0984989733105666,0.5078191704517458,-1.0456284456100016,0.43799735856739663,-0.024092253370812285
0.09932994756802348,-1.3723574512069985,-0.6168082568268721,-0.39298073357533997,0.0952057302673838,0.5300719348137829
2.2845610106567116,-2.6147556652990946,-0.9622465197234038,-0.7532715063295643,0.6011632176442626,1.251047876446072
0.9333492293703298,-2.048012647593858,-0.1970889993383719,-0.18333823819768041,-0.5881629994045837,1.7169937805678033
