Gx,Gy,Gz,Ax,Ay,Az
1.4244990000000006,2.9200999999999997,2.7464850000000007,19.381999999999998,-503.816,11.246
-0.8727453078107283,0.2070086664195363,0.48722957337723183,3.353935250695222,1.064631632442837,-1.0373710746824394
-4.177594390262062,2.8972564062591633,6.603893080396226,4.370650967650718,1.3546713250055664,-5.531533126116559
-0.8220459292676143,34.26234342642236,0.5310808602215144,1.5096027715479763,0.09244042643056061,-3.6845877831847362
8.05063948186272,10.56406725630177,1.112753670705854,1.4405294311128745,1.6050227185365349,3.655697858973396
-17.165133536490718,153.16224120118113,5.201449485671359,16.714566257003213,-0.26745730482412267,5.916977503262094
5.657010308373287,11.527996879326682,-10.334951668377817,-5.191954900221457,2.149031785860027,-0.5554368883228521
21.442694390038323,-20.094923976413675,-3.6132471636161756,0.678742570203752,0.40214738649688675,-0.21546743057248463
17.470312750257424,-21.52674580392208,-2.984488391816222,2.302906323645531,-5.7710883405244635,6.603260731032864
9.702379936499753,6.526518608695579,1.2987425500102214,-0.5708561971679627,2.0731728036372843,7.207207520373434
29.706573882100272,13.096265270815106,5.799034867499743,8.546952719392923,17.60855363541979,29.710082679252665
-10.66686410911015,-26.370074669669975,-15.65977699581741,1.7559670988379188,-8.762446026117482,-20.432210796857568
-7.324524380426684,0.014241973365659355,-9.778146613318487,-1.5054157945602604,-1.838728174693014,-6.278778556331215
1.0727042250290029,1.1993361854069962,-1.664269029986765,-3.1163370203172462,2.2049241304729144,-10.267231899735465
-8.285050011494082,-11.805698027888232,-25.02748696108638,-1.3634291983292066,-0.8512580793989921,-5.050286023732692
6.648001820302357,6.587377372249758,-43.68477902602798,1.6916926987566598,-7.338149021191746,-4.706268988764932
-7.823479563241589,7.759645587220964,59.8899482306343,1.8545277918661383,0.5625451695671257,-0.015666502768462598
-7.66039955575799,6.183849584852387,6.3685804462382825,-2.674345005978415,4.487499597496255,-3.313871036462057
-3.1093279867560297,7.230727782853369,0.028290202362563854,0.08957455802668124,2.8151845471783283,-2.994765731192218
5.891350582185696,-5.431391185083937,5.501023052308645,2.6606092848792615,9.962383364410693,-7.113633993257442
2.335281785620265,-11.191712689487716,4.286299767255264,7.499305028352641,3.8730656179718013,-10.253375968878416
-1.5030108723507423,-16.73461250679605,11.513506777166533,-0.34031889186368003,-12.415103285772576,30.052473093649752
-0.5860180828265045,-12.549441986385677,-0.15714873073131813,-3.673611428085892,-1.8605670845215179,2.2525698844648607
7.336971921895455,-4.589881140507098,-10.14583635114191,-5.831104342507409,-2.4995636437080986,4.71988992425244
0.7098807205544481,9.595981284418102,5.015398892470424,0.863606598783345,-2.299202377829176,1.4366194276354616
0.44119920748799657,4.250009428852755,9.327685125802123,4.709858684834086,-2.4786974059930977,2.5740733665318007
-3.857889613563975,21.40566664802264,4.887684648830608,-5.240228249109851,-5.0915880490939145,-2.5268278218141074
-3.153710730658295,4.7678793868924085,5.557769838339821,2.074109146481587,-1.9765091868303268,-1.1265028612623502
-15.310875490792672,5.4550263772172745,10.399077452910793,1.783911890788513,1.06191639811577,-1.6766103444506681
-2.403080570564417,-13.305715681600276,6.257591835330352,-9.224019638570478,1.71375749497209,1.1561947852943533
1.222466443319879,0.8086190946454528,10.044987929167672,-4.593856037994125,2.41557777769091,-1.9335306219170283
-8.30508879211935,13.922541271370465,-0.9110277576175475,10.180797740400047,11.992771063317852,-2.8610857051267673
0.30841171124681466,-7.493234322922218,-2.235448252709923,1.2301362212391327,0.3402851625123414,1.8339375705162202
2.9305865130680036,-11.627731102537744,-1.3910298321493237,-3.0832413581973515,5.514835133140577,1.970162903342195
1.612609767931004,12.4655434463563,-5.347396978067076,-0.9327831057197279,-5.361727982809289,-0.9266351242093057
5.818739649612131,0.20133315963023452,-7.481900863564407,-2.8791480019023625,-3.228884966471934,0.7615665715930273
5.730845714724351,-18.700783913261127,-3.24434279772806,-12.814483415764984,-5.984827853978048,-0.6904091068950642
3.477048743693779,6.072445480814503,1.365412569975406,0.5821270389300942,-10.147092477555374,2.5399236443487316
-6.58444935401339,12.401191495392421,-0.20450332254204584,2.3328911628867415,-1.2533587980466259,-2.9971162406174643
0.2196564010979022,-2.644281229006684,0.21145891235094982,0.6078352119915563,-1.1883653456780778,-6.670888451563275
7.12745685177145,-4.571881307296691,3.713324917180346,0.13841906538255866,-6.167032656144979,-1.7760601335488437
8.992552929523098,6.146285080391115,-4.142293074104356,6.94615876516115,-9.649038853747332,-7.842654307639668
-14.181116607451425,-3.2584686386700845,4.983548211041767,3.7873655933015677,18.07889164959832,5.7728184734736505
-1.319022014291342,-1.8555955924675183,3.4462815198807895,-4.305299550473732,3.543972332275093,-0.2845339482977167
0.21661254776418648,-15.088406289506977,0.2413923722319079,-9.932918890945611,-7.2820055584182475,4.475297660061823
5.397253109970547,-8.960292196324549,4.751368662313022,-0.5339631693754553,-4.567201261917386,1.481440049615888
3.692388937940506,-15.310735863790491,7.598183447257462,-8.035387688574103,-7.396104351857546,0.6321259993272228
-4.32900931740728,16.007343630724783,-9.70249514085367,4.4756277636878234,3.783605661820485,-0.42500682701466536
2.3246645117642775,-1.214713339311417,7.32695987965945,3.4599713627000543,-6.214383908043885,4.666354313491614
3.830397437490509,6.217676381625058,4.702015139889854,9.344970066299316,-10.668652116586738,3.550392161857809
-6.760459593378286,0.5494789591056886,-5.9125717308221475,1.1735229000784324,8.675183400798684,3.6043648178809473
0.611842908362154,-3.2389434145884937,1.0689638490657805,-2.323629631808607,1.2595680341759699,2.5307328867036114
-3.5630516541668182,12.330029505743742,-3.953141568326787,0.6890104762911837,14.55988850632751,-15.635877557807921
-2.387483083141693,3.0720925540276083,-1.1597223543659854,4.262665482501258,1.556849533559413,-1.3007051846241793
-9.53199964522664,4.4553981536688365,-3.002462033322234,5.6443234987793325,11.280155348232391,-5.972785693723898
-3.179287663903584,4.944173702487157,-3.971132961625669,-1.7324285742196004,2.508299610516313,-2.2193450898874754
1.6752424583541665,-4.479512007234724,1.8130354992916735,-5.108202523871427,0.696557927225181,0.3554148311087204
1.368976250965983,-11.38467553341155,8.761854608478192,-12.242833399237082,1.9105535740804054,5.627881834682384
-4.329139110910392,2.098127556161753,-1.8543792445999316,1.5458005971839985,1.671050520476949,0.11249116356782662
-4.4819075582690555,1.1877580360149116,-4.599596695121218,1.237082835799019,5.5628290910754,-0.6787686205758876
7.083164279897916,-1.2477050302408337,1.8608598267784608,-1.1177764566113946,-0.1371166119094912,-0.25327268933289193
4.763239480376511,-5.064530364552146,5.244353604961624,-0.36580041202520086,-10.460411816964015,2.8973248245145204
11.627328368007218,-4.18049164473338,6.193926847441813,-0.08018438077367401,-18.0635257245144,11.09875923363467
-4.672622341179638,2.913148096295641,-1.8595239299359139,3.929536333756525,12.57898432458108,-4.175891873934337
1.8309481115099775,1.348215568625145,-2.038341100926827,0.20732560038767345,1.0726812932452712,1.0772676525697698
-2.419593097887236,-5.9283395669070735,6.1861543992250985,-1.3186782049344585,-3.6708935164065735,-0.14341108758837207
-3.848719495432629,-4.980613254424246,5.571471551497275,1.767017246656989,0.4630657931557016,-3.197455909039687
-1.0144064642730946,-1.1481229356445888,1.8339534165884979,6.1498452274228015,-3.0312343193814506,-1.5030112423694701
-0.5588427361833006,5.140407724810846,-5.361731042601193,-3.740314093635764,5.330171357829925,-0.625135169160064
0.32116925933285767,0.6563677897121404,3.6510009506201095,0.47571230525250763,-1.2365834496175678,0.54258587276267
-6.5109591502211055,-2.1609276172194813,-0.9121597329338869,-2.096734790965411,-3.4178648577400996,0.8846967772120156
-5.919790834158492,-2.8022381949925808,2.5098022288699715,-2.932879604567723,3.396781385639481,-4.863957886161208
-5.797174795475124,-0.908584487871334,-0.5408752435204853,-0.04381497729088446,1.9223191667275357,-2.5996038808517237
11.519340978878187,5.710519473984916,-3.87199864173916,-0.24855308986290647,-2.3726398876142247,5.433233934208862
-2.261734553622869,-0.7597150390328207,0.9020958411314244,1.018997323486635,0.5156979112845494,-0.6552535467736831
1.018179583554506,-2.659555040517753,1.2643706412902285,1.4426225690093164,5.577251685956589,-2.160391535453405
-0.5741258945439824,0.5437517084273487,-4.633537242475153,-3.834451047012756,1.677223910585863,0.23018463916450227
-0.8208992438244439,-1.1383345704293397,2.0051593477724063,0.13087854361699192,-0.03345290427388736,0.009160771239005716
1.0362802069839256,0.02045580035337402,4.4252303454412125,1.820438004491237,-2.415681370616723,1.6642191054538193
-2.2372942401576634,1.800068292641515,-4.905219330244065,0.16554647773075365,0.8975444185391713,-1.3395425236216818
2.752467578416421,-0.4839875141848111,-1.103510333979182,-2.544735430860359,4.032350169026928,-3.6170720584503937
4.9454864999999995,-0.42613500000000254,0.7616624999999992,0.12300000000000019,-1.9199999999999997,2.1439999999999992
-1.0976279819817532,-0.06706180998487299,0.02642993945677341,-0.26368224451593913,-0.7381208511210615,-0.44448752124125823
-7.452348465646185,-2.846811617599318,4.774557328639141,0.48707750233075775,-0.707993689997732,1.302081905871412
1.3683928186640006,1.376993854854787,-0.3167374134212939,-0.2460073581931736,2.2616009801498422,0.347907214559481
-1.175238262910646,-0.9882255894399468,2.760801630694416,-1.8316939521223898,0.6285706039625838,0.8519596430887744
1.3940961464712684,-3.766553460259883,2.402728777897183,1.636399620978588,1.1333334749844095,-0.6979368966570936
-1.0681608805202747,0.6627802789520598,-0.8271339973014289,0.4102981456001492,-0.4800294772365481,-0.5347733213777341
-2.1072617806535927,-3.3839669799993053,3.195274592212545,-0.4879826935963839,-0.6460980988129373,-0.6518752539581181
1.799525880120945,-0.8666654080599909,0.7240289315933774,-1.869848662455806,0.8786077421847869,1.239250823399148
-1.1240056072898947,-2.0868694135968524,2.4581542148416258,-0.21416197483941762,-1.8174036867363494,2.928919224681596
-2.9460427955512647,-1.3494778009373072,-1.3201816313948962,0.7769121225301245,3.5233685020251757,-3.472943673198797
1.7075344936414343,1.3867359873046141,-0.17932586344882706,0.45236626650319,1.4125602751681892,-1.3520785013597119
2.1760841333251797,0.7420784460768391,-2.179540529286989,0.5768770877508556,1.4251008945429702,-2.357208904876091
-0.7723740777608601,-0.26544715855750267,0.9990859405814234,0.5580656543302427,-3.1427582615521117,2.7725769491834455
1.5707066606339284,-2.8125714811707345,1.1358977125995684,1.8288206548068007,0.9695917244978288,-1.6072771750463644
-3.754399608617612,0.8571514977423569,1.1068573281246943,-0.8397407103585719,2.4055462929814615,0.6055969933667029
-0.07354865331459792,2.3193724357604575,-1.1630137230307165,-0.8926787817481705,1.7052643970135077,-0.44461838885209404
-2.0457468783199833,0.766711901630813,0.1054674547807144,0.03790403867519476,0.4151482037806813,-0.5079728275382231
-1.3133853589778854,-3.2635363652642546,2.813616845550767,0.4601150108785569,-1.0496052035147025,-0.1465862580608015
0.2753406858807801,-0.07595567588728303,-0.4324580507508964,-0.5756185586288917,2.9264194418029366,-1.4647062252611946
3.8718733653376765,-0.32333176363870786,0.019089929080934986,-0.9173581542714967,-1.5169869196981738,3.325837198067371
-3.149805385949114,1.7640303539131046,-0.30673671207664943,-1.5614514102599213,-1.7631753550041456,1.4037897397514276
-0.6977341851869245,-0.4550417055443563,1.5327515865210115,-1.2435369165998884,-0.2151755711040655,0.08988538209832964
-1.490170298228298,-2.360295649744875,1.430355453133423,1.036620599458498,1.0205435498279702,-2.186413866032245
0.7057534850205291,1.0862168643045358,-1.1366592289375101,0.763643544491968,1.0573675485236393,1.6123609655637565
2.3374454123551445,-0.9003229452689361,-0.2869090401362041,0.6816174430760151,-1.0672573691280594,-2.2202967797887423
0.12836620588689307,-0.9346658794295924,1.3207941407107633,-0.24618898906882825,-0.2998501749612765,1.0336066640954453
1.253866607530063,-0.7888851969161601,0.5410057229486543,-0.5777093013793877,0.6196438888023676,-1.2934770724415408
-1.4716024117922326,-0.15254719794077032,1.2596180895444073,-1.0650873766389726,1.4550972668165718,-1.1497767194210873
-1.7361897469145324,-0.927566436888462,0.3604523133285592,-0.10345736569234831,-0.061611491749692604,1.4124594645161306
-2.9867915723111036,0.061047057092798784,2.823137380466584,-1.4734087465246197,1.4416125914611349,-2.599972864977386
2.264694528608441,-2.351496475252762,0.41954479180854687,-0.5782390475764116,-0.08085801796497938,-0.9647242597939165
-1.2267538736400279,1.3983158507822482,1.1154392180388597,-0.7761406384155918,1.0777338847196507,0.8877496889879615
1.6929305307531701,-0.5576028411140154,-0.6314940628792138,0.9364294068545544,0.543159321290331,0.8138433063316095
-1.1794901281201997,-2.2547514136877123,1.0483425065980927,1.2936030941345646,-0.5213277158585052,0.39049633418036633
-0.22072599425835082,-1.2143820776120764,1.7808209929914263,-1.2918428209805315,-0.4637191943854062,1.2596078405540794
-1.3307533885563863,-0.9676950973905849,0.6022575992026069,-1.461901960653309,1.71509938396229,-1.9557502749861477
0.4024870902443267,-0.5174625167600988,-0.8799130289884913,0.27042926552904323,-0.16618878347809574,1.1299231750631848
0.5968590831489595,-0.4836672254237943,-0.6868020343020442,0.7143131573926051,-0.6755182967836513,-0.007108448576002124
0.17382782378181894,-0.8066991557338419,1.3672032830007586,0.0690110756379001,-0.6986061410891402,-0.8679646054144909
