Gx,Gy,Gz,Ax,Ay,Az
0.1922060000000001,5.330707000000003,4.239367,1.4300000000000002,386.48199999999997,64.52000000000001
2.651820884829905,10.204849061398159,4.12006318679534,2.843609739118748,4.045516100251949,4.345927406273812
5.116360713662424,8.558144354276399,9.1266658826358,2.2475675984366306,3.5556568317964246,2.8826685950823325
5.34317194954579,23.772731833669052,19.64102644237448,3.0766144719331656,4.813231336979037,0.9683218508151158
29.546805713224355,164.33343550164736,79.06556121757205,20.82900249130661,4.07186650025271,4.808167382189648
5.700203408734667,42.232843871060645,11.294372418848758,5.921481599873718,6.01983597514139,5.574740505095272
11.622632003724394,15.914266142933482,5.021838332901452,0.6031112048940359,9.519593509205304,7.950633300433163
15.39266207043603,25.491961381691322,12.935405219038143,2.1008064583483845,18.84074339211168,19.49131516373489
65.5095303446436,72.18462498801964,5.987887265684744,10.571596499955719,70.46353503150226,53.51449417187237
50.63640365943238,5.7014155750250515,17.909460259979515,1.5722910494407114,42.499096992062256,33.2454984279096
25.82032835293524,4.868304660805113,26.52484799810706,2.533941226367092,13.945649892082448,12.502754056534057
4.043105785728059,14.14618190062539,38.57960767898728,8.316306133689801,6.341792769388543,11.068389288133893
16.459862957707124,10.998356148780651,77.21743681052295,3.664192390043036,10.071971611158226,5.346298788198891
16.553539131528836,55.44354226510322,91.17912919541492,20.09665584790233,5.407104922448713,8.15516177332126
10.458986866624056,4.166091046492174,34.04680946041536,5.9818414392777655,6.37817916735772,8.728152125045515
12.803384109636722,2.7736067810911713,15.765724115600742,5.925283295768139,1.7242509513631552,11.924194488769757
17.42842215068208,17.124455304432065,11.921174196562232,2.855639150251817,4.874496968657513,19.1839878465952
34.7814226865834,17.91292383034165,16.10022180754663,2.787356323882452,12.654806145320574,34.10508359785348
8.922714271967658,8.073528530524968,3.974644259967728,5.462747969127777,5.504299732614023,11.357282344611498
11.745402241310561,15.643863312858715,11.335621775660504,9.64431514816677,5.662601609275231,2.17884380377098
4.310788952151913,23.48195276554376,32.77932616698332,13.245260767340547,2.572106025200658,2.6397132246621333
21.426820781845436,20.583433176290576,56.84593859009909,18.237271581302792,3.916446702737869,9.977510820197496
19.440520078821553,21.511511637325462,30.459999055681976,13.707148946593462,5.045821082591539,3.8953182809026083
12.794045472111039,30.13427261401763,6.684201564246598,11.692208247819087,5.266222590504166,3.4766009511980114
16.420703887663144,17.986318730092844,12.04267554868489,12.327127111817434,12.4247154428836,11.520489165805124
12.45940426496122,28.47821583597802,4.4980133560511915,14.026133451404277,16.022931693600235,21.199413345460474
10.031747592268625,18.520903323089115,13.574245550026419,11.632493049997086,11.280986679676339,6.765029312941913
12.541357113268852,11.45459172245629,4.389164874871838,3.9771018786315806,7.313442211401292,0.18585941199885475
4.321509002662985,17.725895095510605,14.521550936584024,2.207074339183611,6.03612809872049,3.8788975583963454
13.263124782739848,22.480849392269654,14.835181616440705,8.264405031377938,4.821046237307717,5.590963491131199
8.415454090806222,8.072069075222915,14.616109659863529,10.633226892077973,3.490540382983227,7.5869013270708265
6.56435891931087,11.785602059204372,1.4031416660250389,4.509690734628094,2.1527369686027344,1.4079484564502713
16.817242506391338,8.379868685065627,3.654685654957041,1.751993233748947,1.394831404894848,11.292639499928313
14.76129347542723,20.357000109434935,8.539246856565018,8.225634196198401,4.35646276573075,8.773575642502045
22.456250137137044,20.346029681448194,2.711154161905313,11.362393131673974,1.8693334080115425,7.730380810861761
19.508817930439672,11.149974969691113,6.118894216930579,1.3323561139925957,1.8745914798779593,5.9648879309435685
20.490386191503536,7.265472949562734,14.453824024769318,5.740600767012169,8.440611260220733,6.78585513352568
2.6934481183493673,10.859876934482863,4.771018669395556,5.984224321506878,4.6473005519631005,1.4237166304666768
17.510963738459672,13.175375442982205,7.664302558492864,1.8043526619223673,3.589436686817757,6.122440269966145
6.1335237389107595,11.274134881266098,5.121885812820751,7.264638842448103,1.584776431832317,0.6664759088163508
12.393550006466509,13.370227923488585,7.517649742615697,6.666650878057541,0.8141365459169518,8.079038791794497
0.9482509291636825,7.190059610112005,5.548154813162969,2.1622203958198085,4.86328915791134,8.687691267061293
9.194787333089982,15.227616190757317,3.5502945995402304,11.056964089160152,3.472354218813263,7.652465937654926
14.062926390666243,12.44526334176125,8.00467662616543,5.183114424435028,1.805395958663756,11.61159432942348
15.30440706073795,3.6594073631698025,2.0242154746022556,4.778640873859823,5.251766907873352,2.0563669154796487
3.971075945364109,7.04475362598041,7.395407308515677,5.108319680345101,4.19154855567606,2.09985783987319
6.708422110085934,7.000533229055867,4.429479168165977,3.7170352881037734,5.296262856602389,5.501708123879987
2.688080656508958,5.322224143964523,6.172918181305709,4.34284925752853,3.7304373796896497,2.2926120028034185
8.104832159641921,13.670601258764261,7.717955725078245,1.8883425635191755,1.8783366501040666,8.06435898861185
16.908413217253425,9.106497110105927,6.468426165751594,4.96238590088086,6.1381949375062455,8.609481416882154
8.896860632077884,1.727003023865834,3.869517161123022,2.964595793707165,5.276187028081236,4.343600616938364
12.930914316031298,5.149027100254884,1.718839627576528,3.36660399555672,3.5751916045317897,7.618812477014524
7.386433513503846,7.097429025214889,1.2914732180793553,3.208328226465746,4.837181191316786,5.180256899083676
6.78870095565077,11.263751746278754,8.12001871341177,4.947116877012529,1.0189475342929046,4.244019613401465
9.38483224818463,3.5148916168544844,3.4382371261482714,1.540108564714841,4.754184211641557,1.4215166545101194
6.9071889114124625,4.497832410794711,4.692940260323598,1.2273028062060802,2.6253873800655927,4.833718589371092
6.077115825518317,7.313394883638868,6.936973865570131,2.589264872777289,1.3771367866488902,7.06333148402908
12.480537229504538,4.9915750550548195,7.443581673546317,2.132401223336684,5.563056214032365,7.675284065680158
6.870143040063682,5.079567526991042,2.260691961549538,0.9091280694202216,2.9643321725708227,2.173239045902205
9.601149617758816,2.2829913443132357,7.717513922189461,0.8421475508180093,3.7863861995463295,3.943880948322143
7.8903867301378225,3.8067674670259266,2.5759105112571254,2.030946500801762,2.296296878307772,5.662248151643888
7.372603119794838,1.345230022673161,2.4503902722546753,0.7695618396267833,2.6622564149903147,0.5455007954129781
6.6173532279638385,6.2135416455752095,3.8131230732110857,1.176956828782172,2.154265227261551,4.870544499488587
6.890038094641924,7.106001773224752,0.618461622355057,1.5633200768774835,2.1487798044559425,4.024056705104811
3.0521654488691397,3.4713296818275423,2.969376480365741,0.5283258072942854,3.686615799099293,3.609922829413206
9.264688769811732,3.3817187710903536,3.904605021221854,0.34732898781354343,2.1301069471238785,3.8139079613835647
5.301358342810749,5.267756497507876,6.323343532022569,1.5305782061849893,2.4898932139114294,5.0453288039447965
5.914216345474959,4.628864791313992,5.117186017029857,0.8473252321204042,3.118618574005435,0.7258020904583914
5.944698630015915,2.7624362321588314,2.743035875562682,0.971938085263444,3.157467404098275,6.0212963927796075
7.540163419748199,4.751088921670537,1.241223227053076,0.4981962894910772,2.261047012805096,3.7784468869969827
7.343390383236755,7.3403842550246425,0.8055734301513109,1.0852140717751624,2.0956695638625087,3.200980284789709
4.484312042028923,1.8928495955087585,2.6802511684116004,0.8812504710264358,2.030946300458354,2.540837031405843
2.3191748125900427,1.586388014845984,0.5165391497123356,0.7032447311539356,0.9750055519682749,0.4422569845291607
5.677972402295913,5.902989425661337,3.1280825273779778,0.729324771841354,2.9416388963301223,4.993755640141393
7.5309937667609,2.3946590750563517,4.510423011492394,0.8051610482370433,2.7575700847895193,4.770879791072353
4.752900497816441,2.0537401332954297,2.796664511628064,0.5903898923914386,2.9923885985001553,1.4592823836759758
5.41029537104245,0.21002053700011566,1.746995409371785,1.0687611961323578,3.0696776961072443,3.0878167526754634
0.3182374284323379,2.9843801390596174,4.168232387489486,0.9549228596862684,2.285469860663567,5.226084951370177
5.814791781587212,2.604896243044463,2.685032955690573,0.6089746228114438,2.152622228790952,1.7738770150253755
4.523243190447807,2.377713425681618,1.7159582787531764,0.5443000888938222,1.3279659904563341,2.2436238129264687
3.5319085370710455,0.6342363496594808,1.8383944992271242,0.4986996850967817,2.0869356137897266,0.42121948280768345
3.6593824028931383,4.832589011120463,2.195009089030486,0.9777600970880723,1.9822902456103182,4.442836868956195
5.639223795079257,3.1075506520897633,1.5486992030349136,0.28258348069242667,2.2003108982183606,2.103296698062816
4.009122811168931,2.5661316601382955,3.5976850331878842,1.0593370496802255,1.7790598229857328,2.182264118961108
2.6160858656144024,0.2221552161804678,1.208224094059022,1.2404048545199373,2.0950693605606165,1.6749150690993877
0.6130571958899661,2.8834212523220515,1.9311707444361905,0.9375005510531577,1.1307740223019063,4.169512547740207
2.262759427452859,1.23652136348502,1.164044101422777,1.1783143651812327,0.42225441973793737,1.3745050794701512
2.7973313838111546,1.4005476807318864,2.7691250357424333,0.41835454760488017,1.579621616377133,2.3188265418760876
0.29024667108683033,0.45599505145765984,0.14391073754179148,0.9970409499221141,0.20704841105084426,1.1285406835837366
2.2175115730844372,0.7531224163874017,2.2920696856229164,0.6568810513240194,1.643245952821584,2.266394326360029
2.5187335797096617,2.5095386429969206,1.360587497476217,0.5521352234966955,0.7383255514478825,2.377972730198566
2.4363022014294025,2.3965704159467296,1.6979198097206716,0.7818728908926853,0.9420238209306343,1.7668992373783365
3.0641744949365366,1.3394369921901346,0.23277481282661752,0.8182632374933515,1.3506658049352775,1.8396065375726847
1.7482400004094498,1.8741492539153222,0.9025051964590366,0.7925457323472435,0.25041247526577454,1.8504291898821095
2.531335748067958,2.143631179989395,0.3365676666295328,0.9903721858726907,1.0628838307146646,3.434588873056932
3.0290022295042243,1.2342394558760008,1.8593812812609747,0.8245356075045531,1.751979108936065,1.812113918533698
0.9218445387507417,0.7933189843395642,1.0253242209629985,0.692559040559501,0.8063881556889428,0.6861531172461062
3.1972536394850155,1.002378584987773,0.4728652562379958,0.5601382592461037,0.6521478012443782,1.1460157506348507
1.455417004540312,1.4189194964890657,1.295697351818474,0.14920751166205773,0.5795516005015191,2.9857618549800145
0.0,0.0,0.0,0.0,0.0,0.0
0.0,0.0,0.0,0.0,0.0,0.0
0.0,0.0,0.0,0.0,0.0,0.0
0.0,0.0,0.0,0.0,0.0,0.0
0.0,0.0,0.0,0.0,0.0,0.0
0.0,0.0,0.0,0.0,0.0,0.0
0.0,0.0,0.0,0.0,0.0,0.0
0.0,0.0,0.0,0.0,0.0,0.0
0.0,0.0,0.0,0.0,0.0,0.0
0.0,0.0,0.0,0.0,0.0,0.0
0.0,0.0,0.0,0.0,0.0,0.0
0.0,0.0,0.0,0.0,0.0,0.0
0.0,0.0,0.0,0.0,0.0,0.0
0.0,0.0,0.0,0.0,0.0,0.0
0.0,0.0,0.0,0.0,0.0,0.0
0.0,0.0,0.0,0.0,0.0,0.0
0.0,0.0,0.0,0.0,0.0,0.0
0.0,0.0,0.0,0.0,0.0,0.0
0.0,0.0,0.0,0.0,0.0,0.0
0.0,0.0,0.0,0.0,0.0,0.0
0.0,0.0,0.0,0.0,0.0,0.0
