Gx,Gy,Gz,Ax,Ay,Az
-12.117756,-0.9551489999999991,-5.866598,4.362,-494.67799999999994,26.560000000000002
-16.715467485068565,-4.994101010241884,-2.429123998103189,-3.4183742096918066,0.6710444319509492,5.35805943318552
-13.687632359783919,-3.2203041878210277,1.824945493705927,-3.5850013381159203,0.9794492347527118,-1.2248110528328986
-25.390441767396858,10.201312239760227,3.261884865155673,-7.600883379050266,1.698580862281735,1.458553342863627
-39.727634572179824,-15.188017951272014,7.310191061729366,-15.33092335238256,4.79914799265152,0.600843956070058
32.98505781321076,-9.563548124017982,-3.1887067256116253,13.175206784348116,-5.184944853995052,-1.8624975535688535
14.3878558645259,-2.5319565921593066,0.7439728330500188,5.1517828635608005,0.5380754335197455,-0.28237770199292395
5.090911985607687,-0.6787771052988855,-0.17924439059312847,1.8625575356328836,1.3088616808811309,-0.7863792244100374
-3.1488469329908586,-3.6063829904613893,2.5063729646974675,-0.4517453271693367,6.165165378187003,-2.99646828259766
23.64993597059329,31.392091558514913,19.784281163922223,-4.7519683100847,61.869127224438806,-38.81047026955856
-4.709425203274669,-6.229350364288673,1.2975910134434714,2.6570813382490583,-7.2753183346113595,4.068895004470899
5.651390821282662,0.07849035806554328,-0.06981684581625378,1.0734900476531912,-1.4770508983123842,0.4596035871560734
0.0598721981881678,1.050841024358013,6.015961232972966,-2.8824017018971313,-1.2260426276052527,1.9343109040502584
-3.6689824449396204,-15.869495844073384,10.990666003166588,-6.082877010497997,0.7804391132996252,3.431362915651346
11.876398390891012,2.6076770351737784,-26.325395938672596,9.019929385154212,-7.335161124103928,-0.5836255291852751
6.205837564850361,-8.479726148547508,-5.408910451690641,0.3187035706849845,-1.3881069460780735,0.19305313165707005
7.031952205318619,3.6635855497218968,-0.5345679749340521,3.4300417996406303,-3.3403912618306375,1.1201219380707714
3.56711236581547,-14.188064253072062,-2.038256721267469,0.8570213466075616,-1.071343851112862,6.450181239815294
26.134627863505465,-37.176544077151334,16.244514809086233,14.609564872211283,-16.34790894482527,28.04792344561718
-9.739495365144666,8.234747802298488,-7.072452040125268,-2.081112104594577,5.027072974319024,-5.771483549827266
2.9572252898271367,-2.513498740069755,-1.384912033239814,-4.365132699168701,-2.1524737186027396,-2.5685211171659397
1.8425104524942846,2.632872550868955,-2.2000252430385476,-1.529668670293073,3.194482487488007,-0.8499801279704111
-0.48257922867729963,-2.0403150863211943,-6.946214266077256,1.556624294126424,-1.7732165988621658,-1.7809539718402299
-6.952078569605882,32.84073196013242,18.325452419958914,5.036812405287229,-2.4333566272228166,-1.5830537855962767
-2.2792994612687183,4.474909237792636,0.5776626109394367,-1.654518783628081,-2.03159270913062,0.7112072793277404
-1.3145411474648805,-0.7511797630792585,-0.65034167420574,-1.4715072731438967,-1.0182022723035744,1.3179135614253625
-4.3661147337610755,3.9205524612597262,-0.5725574117118252,-2.241300232349487,-6.15988323478218,-3.9604645529764877
-19.351780337901886,7.613807896657309,-6.233821199218658,-9.033620518599868,-8.784721479695929,-5.134250997882381
7.492069275764802,2.888240267602299,5.38849358650073,0.8069926091042319,3.68446641935509,4.324476431244274
-2.883264940170007,8.49436871154533,6.00228433507994,2.777112757166055,3.9942789439752144,0.562761471810739
-0.5091994124380886,2.700395904117137,1.5885393354619979,3.208485572402209,-0.2437436905211106,-0.32307593614361857
-0.7921888850639927,6.0503460551781325,4.159945861074571,0.9449736214013331,0.14393378766319032,1.1273534023467304
3.0622956700600135,-14.412685385035743,-12.564250443415974,-8.762449398133192,2.75112748427991,0.27232370296622466
5.091252450902394,0.7307373107191064,0.05383083880962414,1.6116543141955075,0.8107896954180385,1.1954163904494208
-0.9204345517229386,1.6119520743291635,2.3631535091270583,3.3473592394951304,0.4527817239542337,-4.526235521096485
0.5953690654512056,3.342524670179582,-0.7704974686324156,1.417413462777672,4.851219529853264,-1.0109101706681631
-4.558141002924813,4.914216985784044,3.170751348958669,8.016523239708986,8.135074482880107,-6.153189042438097
-1.6909515408911193,-3.7625523709623847,2.239891987137771,-3.671123533777949,-2.230540468896157,-0.8469464946734591
4.464406080606777,-3.4108386157863,1.7174149117465611,-3.0962476882084586,-3.872033351604074,-0.516325688489265
0.6526403130130771,-0.9147016743829408,0.09804005976675592,-1.4263915052171863,0.8610434765966677,2.4893522538174544
5.303823204191232,-1.3625480237236005,2.4747894922938958,2.7230714266734486,-2.097820323027549,-2.4600752002314863
-12.981460967719507,17.158613698676696,-3.458728429142084,4.3848846202299345,-0.15522931929843198,1.2791352976552859
-7.075155365458022,0.8034988107247738,-1.7858651013262143,-3.3778800333415084,1.644427192557174,0.10189609502734087
3.1417013993355525,-1.663793773567808,-0.5841552627235782,-2.509216435145529,-2.9043698678448555,5.336814478683317
3.707225681521132,-2.161015479458026,-1.4067082626633023,-1.9647650275750812,-11.863459525096404,0.4502826636991495
7.236465446204228,-1.68515653930856,-4.295636479446332,-6.061408726753573,-14.226434515345794,6.39972972295642
-3.710789740829126,4.0589989602173855,2.514745956404391,3.802749197740562,12.873168367832749,-1.0116451638653872
-7.352311792452525,5.854673177156409,-0.12577196156775883,2.060293248332181,5.9026447534540445,-0.9900539761764504
-2.200882795786392,3.1329450583890095,-1.0287765591111975,1.8444271909999161,1.431219353636124,-0.030221726118713932
-2.822202287102151,-0.3878080919293716,0.778984525748745,-2.026558083424673,2.2480807038498156,0.2489715381660856
21.58634435618667,-14.43076877415859,6.467512919062218,-2.8388618513419126,-10.347917355911662,2.975310338708381
1.4699498770196908,4.093239226006926,-0.25731645026421845,1.8574353957364977,-0.22711972550571424,-1.473180141120705
1.081713757699645,1.20233761900607,3.49437387818774,1.7251602142000841,2.8568889526626373,-2.211900404853646
1.1811372439308903,2.7587814391036054,2.8121124785486655,1.919021130818404,6.667882059456055,-3.209628912579346
-0.5663253746154027,7.558778198006941,1.6009282095219635,3.4349450510352835,8.292468484893945,-5.801080495713779
-1.6643030347509704,-7.944924881266207,-2.4002262442855016,-1.8971376225351073,-10.084707574696761,3.168479580115929
2.622347660864909,-3.8024245235347447,-0.3179001191928576,0.12832613036667184,-3.532655926318437,0.6948195421425118
-1.3761729672176186,1.0763031788866377,-0.6257731061601386,0.030010008488955853,-0.162382117236257,1.052879087911446
-3.8213696391221923,-0.19951630319616198,-1.4970389151427002,0.18778877691778983,1.51513455561053,-0.5615072108117005
-7.053542435538732,12.782897825906414,-6.037156679162054,1.929929888264883,10.198713794229626,-6.263858798510293
1.0114908143649457,-0.4646761034175473,-1.9754236504864362,0.18922034611053284,-1.8104002871499996,1.7649444430272838
-1.7723562907194774,-3.5788285320071824,0.4944596087483502,-0.5573475253463294,-2.158984659872287,1.5662333662003802
-6.403714359864667,-0.857636785325582,-1.5754008813226759,-0.7257491375261782,-1.2797461399439274,1.7731659603816534
-6.187956706460564,-5.794653078465677,1.3541188753359958,-0.3662579038954067,-4.457091403277856,3.6063782337946897
8.324632144423482,10.528696558847601,0.3085797837981481,0.8911147070592182,5.735403189337072,-2.616187339485043
2.942592400245443,2.81271589697187,-1.2743498449063613,-0.14496153409854934,-0.00191281429329071,0.7058904425738359
-0.7789781110902295,1.8047830178531061,-1.2507503958077844,0.14244293654116835,0.7902470271676916,-0.8960390779579599
4.2751765382736036,1.0317400361091993,-0.15343138636455533,0.3643566280501276,-3.2091775922291,-0.4467816823084281
-10.222438346493568,-5.438768842256862,3.629250405003103,-1.5563513430687679,-4.078756775162149,4.479161821490759
1.595927368886958,2.404894729989247,1.3191502558245212,0.1869974562080774,1.8154203294318385,-0.3304552863535153
4.857035774504898,2.493258228769385,-1.4818931077855106,0.06886869182447564,0.6971468669109107,-0.02474877144727583
5.617269209588061,5.384643600430742,-1.175375598892182,0.6399243926244116,-0.26872496978597993,-0.13608492103491399
8.096322932453546,3.4580461133770433,-2.205723875519646,-0.45897443636290614,1.508863264167294,-0.7131854004081561
-14.98071599493242,-6.276505102698382,1.1768853609089645,-0.29569025460270826,-1.7270064982548634,1.1514833186559348
-4.92251398863476,0.24878460049327705,1.397484379326501,0.6789749324620549,2.2879839530130335,-1.6749223398582633
2.2470860489033426,0.29540711817262433,0.3336435631657526,0.4064755074293789,-0.9771511822451495,0.8588043404618533
1.2267002570307213,-0.7797378277446694,0.17908595968608976,-1.0070225420669547,1.5837498014343647,1.6543468276438653
17.320046849211536,2.8759801300201255,-1.226544027338322,0.9703172725206746,-1.41288465548831,-0.1345362616909611
-5.333923678132916,-0.6506898687905132,0.2762041634328405,0.37848081712994563,-1.6669464465954444,-0.5651909547902125
-5.905921331810289,-0.11427677993748908,0.9421034089915523,0.28170931952188194,0.36995667330102205,-1.2901739137923975
-4.5566759999999995,-1.1851215000000022,0.5299670000000001,0.05900000000000016,1.931,-1.03
-5.22410768262288,-0.3164079836626632,2.0407812771437,-0.052285933185637026,-0.5192717592043187,-0.21041402239523072
16.965282858640432,3.5670017521501567,-1.612884481721018,-0.043355016459444506,-2.8070167424146057,2.05294329844168
3.3071608199187366,0.5692433811442585,-1.2921388303683852,-0.23149770290043348,-2.377289950562677,1.5225516394949914
-2.588160857741809,1.6147953038767577,-0.4647470593585046,0.24414154721070425,1.4165382513984168,-1.0217793356366944
-6.942082012422937,1.6826155896782884,-0.21627712521201647,0.08249505216631875,0.48143839800520793,-1.9070892215569737
-14.730450632725208,1.1572065013857673,0.3034601754485938,-0.48015057345933687,3.234506749931769,-1.5805007840706886
9.034157893352406,1.877611970790504,0.12609372231081117,-0.1524313637772612,-0.1923570837370363,2.3629064803478528
7.83089075699085,-0.15729449263739093,-0.4923374317054363,-0.3040276411313048,-2.182875719564354,2.1281517845142637
3.737688005209537,1.1071475989055828,-1.1239293317905927,-0.496300867553211,-2.0290595200320176,1.5541130258963858
3.981277188538287,0.2486105560535613,-0.5844472733128345,0.31114318103324545,-0.9694959747434407,0.5873934328023587
-13.258657831971982,1.5388068919692153,1.7010832646851244,0.5316428774301789,5.115660757936325,-3.5829040479817165
-0.2164020573949248,1.1995598876625877,0.0029420603851999516,0.41751207164905146,0.4287297200438047,0.21061768043236917
3.7634001890025717,-0.35954999149702527,0.07167206390396441,-0.2570406659569371,-1.0723160552577695,0.7210199911120874
6.031657542233835,-0.488896109940377,0.054727119280014724,-0.060798385678345834,-1.3891918821897558,2.4017794780505417
9.508939393492579,0.33304551785183634,-1.0245410004496531,0.25946888902895093,-3.9728053074448937,1.6795491092118207
-7.2309886441195035,1.8954952723309197,0.42878427011546627,0.5034953415699774,1.7254778940911706,-2.987091636218622
-4.95518584440517,1.4459720330593908,0.5852993455922733,0.6065568611125571,2.357754992813061,-1.967392389727314
-0.6309606520881594,1.733664286929308,0.5915073794818545,0.8641715311231197,1.115990974007972,-0.9990381050802299
-1.6006423320673724,0.7269947758063933,0.22243622436184823,-0.2063412371437583,0.8706762569339358,-0.5863152185504814
5.3342423244436175,-2.9535133044868105,-0.940566741348601,-0.4586794845175214,-4.898337434154551,3.6511410015756502
-1.0314883257112237,0.21263754524348455,0.01850116696434745,-0.16535962515979974,0.3637092840513505,-0.9210378386482225
-1.8981441498331515,2.086568295508097,0.5833983180120988,0.4522894192539352,0.594122970014751,-0.4243287924040001
-3.4098060377200867,2.0473257917679932,-0.17896261408509262,0.6757198811758749,1.710726203416126,-1.725439701122734
-1.6680172699780513,1.228457016168886,0.38787054712603414,0.4631410205998566,2.6778694524469833,-1.5000274064829044
2.7073966196281454,-1.4441981570452986,-0.3122865095835766,-0.5039062606582985,-2.2477607691184067,2.515487008739193
2.4480163165282116,-0.7992399488240203,-0.11656267523624428,-0.4185983342974668,-1.3403244889650991,0.9090957456994349
0.04445771602954185,0.5899895102817534,-0.08830174742812186,-0.3865419193608278,-0.5877774437169183,0.1803570712013154
1.3911441811982175,1.3060778214586812,0.4505914091911588,0.20025407613283444,-1.4186505351571765,0.5815919013071843
2.183153039148321,4.503426409622235,0.41348044935998096,0.5303541738424158,3.301145461695003,-2.4083765425710997
0.09613043759462947,1.1287006758134825,-0.11961638575136557,0.29273820809097517,-0.9928520632085922,1.3738835278934753
0.13169539340099234,-0.2297460764409764,-0.09449129235909437,-0.15224698173649842,-0.17032449742405625,-0.5691232918395679
0.8859178055271557,-0.3678808695901653,-0.2959126403254425,-0.397455750987997,-1.0253560492572444,0.8245663151821561
-1.1669715878005795,-0.28785169802741906,-0.10876057566457825,-0.2277351361271271,-1.352232199034892,1.1328742545278414
0.994786804384582,2.1941553005428336,0.9534106530912485,-0.00365466288596461,1.665611679196444,-1.5222998092735898
0.7400832575567229,1.8690469107511127,0.5850831708958584,0.5163742219525027,-0.136458162585827,0.03355551652292707
0.19954909291590173,0.9249580436492721,0.23749741780406536,0.5528987894179956,0.006084931164185847,-0.004459104640339939
-0.95954614255479,-0.6327733226120933,-0.14757208350773865,-0.10256114437167668,0.9669814504135408,-0.1926233042405019
-5.201427663776514,-1.8881058788845728,-0.4976245118391246,-0.4089093164329278,-0.9079468121789939,0.8853995142600052
1.801399810048661,1.3431084387280894,0.009745166212183465,-0.004332745589390508,0.4927869106703554,-0.968095486429644
