Gx,Gy,Gz,Ax,Ay,Az
-14.478363,-1.9456390000000003,-7.826848000000003,-42.55599999999999,-513.58,59.196000000000005
-4.617204168369267,3.234609255605734,-11.472194579181858,2.473721686261611,1.1351541643268628,-6.767991351617631
-4.212151363029821,-18.009751239769678,-3.3918515650231242,-2.302670799622324,4.2670952083068645,-2.1599425416936198
15.613955700951903,12.186212814381955,-10.574974785287665,-0.22135481280150004,4.184203047987015,-0.7871897062330144
-3.8742425150371798,-10.95079684574931,-37.426374329994324,-0.4932159915250977,1.8747154897459217,-3.984073245425367
14.786958523588766,30.098844340826638,-11.28583714306583,-1.7509063059942331,6.370060233292849,2.963799713921099
23.329073677440263,7.124306411890349,5.507242755261272,2.570503162644539,3.814715568632271,0.21150488374304022
12.396994120083326,-12.19105818200638,-8.679562624676578,1.4270734106371656,6.864126852767621,2.8525857513021293
20.980776690840255,18.878231826777586,7.334938567590992,1.0093539615094476,6.493547918280336,3.631118462502516
8.061415972861857,-16.400740587300525,-2.8049731830077658,2.7862290548658986,12.401448822197668,-0.9719485461887332
14.97003462988602,10.106217302986117,-9.441686937452708,3.0079848174472943,9.570779585416057,9.010556069100659
23.335580521243845,-3.607666060583128,-23.05555095184652,16.851430749258647,51.65752875900489,27.86078157063696
-23.819440390083063,7.6070861985015625,16.914115439044373,-10.565460588633433,-18.93460216998657,-17.9894658876729
-20.295127909900575,-15.275904500435926,3.6364479934984857,-1.2020490925350686,-17.803163348009353,-4.58532085116871
-1.522038414706584,0.9554333449340948,12.597705481143517,-6.4466732944404335,-14.935741794027686,-6.385671936238183
-11.65221060556987,-1.2688115543052265,5.177488610903822,0.5622527492991982,-4.06238564614722,-0.15704486387594185
10.22192898588731,-6.040076620462796,-0.8169953953175053,-4.081266582471769,-6.099855488624968,0.5009736473953308
5.956742572544193,-4.111023137114633,51.068495664226276,-9.329313725759484,5.28273045522576,-1.995088315681109
2.947495643902146,11.267934456050556,-1.4352327028490643,0.08663603543061704,-2.0146085486140954,-4.3032946448935006
-4.386664315927742,-10.588949812775342,-9.449502253896375,2.9346262669065597,-3.4527355077808544,0.29208298653557563
-15.656839247928831,1.323331383259163,-2.437146812052366,-2.522377640547332,-0.02439987219493034,-1.8139980957298536
-2.157895199189482,4.085393893317598,-4.098238423773077,0.23317805786571966,-8.515281922997179,-3.2643920361569463
4.395650059900329,-13.702631350239564,-0.3627550024528796,-3.54507669147602,-2.6086976624393228,-7.064336746305868
3.7702759697515384,-3.126773409132469,6.503687318824191,8.890252664281636,-2.1113120027765495,30.53808720606085
-2.950164174409478,2.5539858159625375,6.195280183707148,1.2104054921927156,4.01958241872765,4.448854226209358
6.719560263355088,-5.322997415551572,-4.493655737818953,0.9767326539659207,6.80776104058628,-0.03575669750116728
7.061922115008558,-14.987375243199487,-8.605677462274127,-5.514778422110959,-3.367682632461438,-3.0075218347355976
0.7138150728570485,3.4982985423853457,0.26490976862133886,1.3636735565506433,-1.2568543781349506,-4.430626263061036
-11.61450147428514,-10.917623901507612,0.7744074760406982,-5.996154492466897,7.356033290820639,-2.1338249807046497
2.514219735028525,20.62916849713583,-4.010943290199853,3.707808533070122,-1.0107750309601031,0.16133954678525275
11.788048542638267,15.31934100622862,-5.0340347360491196,3.5603540363717263,-9.723630569340942,-4.359497609699835
9.704913527777293,-8.449275075738457,-3.560317283743701,-7.807803135931252,-9.529032999296893,0.0617638399695068
0.04384828503760119,-5.613597075343066,-4.987348826366867,-6.407265693986465,-5.714724637157009,-4.90959785112765
7.382791061625191,-0.018839259624033655,-6.662840680055329,-1.5979943597461812,-6.877972981484797,1.225639673458078
35.88890897649159,-6.541862460734632,-12.37453877029041,-10.238892386602217,4.843164736086191,-5.986342316879263
-16.514608207051253,-9.305980496615238,0.7940316221373945,-1.4453873037722011,-1.9902829916381322,8.478030911195349
3.9900648879380967,1.396521345905526,-5.066444705023814,4.329775498039213,-2.9230971074057157,11.525882906863261
-5.666016678460523,0.7972249013050203,3.7566951671172966,2.5840471760652726,-3.7644255360253775,-2.10893150239106
-1.9942484567614696,1.2499329118385,0.9074492629070825,-7.447095244666959,2.557347823643651,0.6756818451500655
10.411886973863115,-1.8156076104033319,-4.846704526216653,-0.21775812499202285,-7.1974528417972525,-1.4951116324503264
-15.558118437390767,11.296737132712506,5.93836452019638,0.013424238980833225,0.3627290598874975,-2.8581095275776693
-3.704462226035777,-4.275546456153393,5.13046674322838,-1.9757225883921767,1.453582505568714,-1.1717303782198938
9.432850868255656,-2.2570006041320116,-0.7424057599740517,4.392786909924212,-5.629176251065977,1.7453461518635578
-1.474543787013424,0.3161838055641024,-1.3192568097003372,0.5885594431262797,-1.9664173774150981,1.4782289572856606
-5.764109521018863,2.158778742056117,5.469315705612952,2.7889796917408436,4.379421303037271,-6.07052101810363
14.900772175271364,4.671953932237426,-0.6952755475216884,-4.465198121439191,-8.57385681065812,-6.475330068766959
-27.907471381457434,2.1424788636800094,16.657282087564948,10.525534952349005,15.975536247648318,0.5854805595921091
-10.644251227382535,3.2001434724795077,5.963277625008691,1.6939710751105341,8.685133391934823,-5.720246577120671
8.685911316853401,-0.09951100745907016,-3.990240286051428,-1.6698317797423834,-6.779834643703098,-0.6373915521674463
3.8874961544130295,-4.196183392628624,-0.7730357805537547,-2.8866396214204,-1.5320056353990101,2.0854146198884442
-4.4839226772586915,4.1018055987035895,3.018472190828101,2.9780528847057712,6.044115495311988,0.00048190544936999036
9.652634781234925,-5.73325832780094,5.687100772298816,-8.073998831201301,-7.856190905967543,1.773843258614562
-14.747096688877214,9.3750157128413,-7.392968950828955,5.994041584496799,6.677493312327887,2.8368954401981066
-14.192903352242402,6.133689102696802,0.615148698725684,3.1886071438406707,6.856031897878239,-4.933773368523351
5.204259812549223,1.5739608584657827,-3.6713500068946257,-3.169756892332338,-4.389437901249142,4.014067871550441
10.35305580266239,5.073630571274199,-6.407183089805102,-2.2900319520613683,-13.168018884865386,4.152641200243423
0.6672033667248436,-1.6474835205017297,-6.527533944610291,3.3107071361123355,-4.886919662031517,2.8723899614861477
22.329929685441712,9.009731228973719,2.5527076807805744,-5.355287652453861,-5.886411311262702,-6.3240116487500195
-4.969199552132987,-5.292015996992464,1.360442756244899,-3.498169737819274,1.4426517232661942,6.492400252897002
-18.310977855241354,-5.395582124282347,-0.8584671252942133,2.853574143421595,5.763513341642289,1.5131513385986683
2.8401915498969212,-0.3632040190750778,-0.2869294738196925,3.2921464234600606,0.23134662744635648,-2.848537877918048
-0.15063533901109416,-1.3981230183448434,3.6732574106203346,-3.7100574906680395,-0.07493040932751027,0.13137842170084746
1.6094406524188394,-2.2486221386942504,3.349697604990029,1.0966276465759972,-4.254100302957712,-2.619581652766679
1.3970362635985438,-1.0224133237521569,-2.157891120100204,-0.4730640388144538,-0.8787083669042861,-0.4427882082290311
6.634724232313565,-2.1034810601588894,-0.3491400562464704,-3.9634056460340297,-3.053396253444445,1.8056113556970468
-14.572727648364708,-1.0607258095583871,1.641512688394917,4.583124794374971,7.3570942407972195,-4.207702510151322
-4.049406391316804,-1.6783580755285838,-1.0801659213926667,1.1804540500244811,2.0341157595600032,0.3123222269669955
-1.2501069714746627,3.052615511063032,2.3058346500120157,0.06532246084547039,5.83651245170728,-2.295407354622773
2.111941923631848,1.8868542565515953,-7.631767492533662,1.994574064537632,-14.522943112541675,3.1435596155018173
1.8003506942541347,7.316714993324426,5.617066728918118,0.2895869968222542,10.91761761212474,-4.155461807831797
8.515246664062143,4.895808604008439,4.7613054387070495,-1.624300540755146,4.2268203921670935,-2.981559858133106
-0.45456323982090563,0.046256193564528925,-3.694790933165476,-1.2534736750492428,-4.363667200636878,1.810257904521597
2.965978318610851,-0.304795506526538,-1.0414634319404814,-0.3154090606802127,-3.7141976962748835,-0.1662840720789993
-5.754835750427663,-0.07015148799723758,0.835621635714053,0.5930133317444473,5.841695729509814,-1.7184145854402404
8.910883012456024,0.00713556999237952,1.7930859412498785,1.632657886762436,-8.245859816134743,3.1551029995348285
-9.719975380245533,1.5125886249777956,-5.749498311438609,-0.6359678729277578,3.4639648081252385,1.9970936914479536
1.5944558012014691,1.5780870178139388,-2.2792630756657988,-3.2862731421579756,3.4805370457710896,-1.2065123266689515
-3.4838840239353437,-1.3660381354798932,2.308786865078344,-0.6401085676043909,3.2709294970999436,2.1112211930829985
2.955276693320347,-1.84258445010436,-2.9191556511655095,-2.459334078493384,-8.234326197362037,4.939241854250369
-6.2601195132388305,-4.2072361368602165,-0.5396108600188354,1.7257052465672638,5.528644645612362,-1.6752444942470297
11.064567997697852,0.5552727532680322,-2.5331810530598466,-1.419726812889961,-9.773652043967166,3.553825030975062
-1.7654746254218865,-1.8577106803471344,-0.2321788527239249,-0.4008196825048014,-3.516061025953004,1.1730496544060474
-8.71042036632064,1.9039217937742625,1.582413812924775,0.9419967043820185,10.368909457715777,-1.8468436362191878
-0.25715113748663265,2.6876482482163104,1.1222520775095708,-0.014779439945973472,4.548082608549764,-2.5962175103735223
6.78752133478072,1.1552102837366798,2.1639865514292693,-0.40935565572859356,-1.6888496018606345,0.857750925994295
-5.09879949685469,0.9243265061110688,0.39749970563752113,3.440858617684684,0.541024049526678,-3.7204033450835015
5.385650590152284,0.30783561037052093,0.7275094045488125,2.0525975803155374,-0.13724854101464035,-0.6933024725259062
4.223515924242338,1.6888553969115705,0.5038924078522724,-1.3860806758385966,-2.5290331065170184,2.0400516164144853
-2.9156170648366344,3.5718038165951267,-0.19056280197404318,1.510021755912504,1.96240376200402,-3.310245698690479
-5.249622619881372,-0.7975030812690547,-0.031364290276511234,2.0666143058296953,2.0452707479989334,-2.6309284223493017
3.9946401781522107,3.3627483128720534,1.287067999437884,-2.4352421495364807,1.3006648741815923,0.7874589858256918
-8.942220156310322,-3.3758442862691416,-0.1850762172121394,0.3736867189721258,-0.6535781795227049,0.7263845725557194
5.944423080650836,2.5634809423539062,-1.0554952876242858,-0.4002506503467729,-3.185762969459439,-1.9075807766049064
12.344122625593208,0.713792466789029,-1.3117655125757013,-0.8496354689874754,-5.614177318629354,1.5042044067051632
-7.384860952125392,-2.902430239243502,-1.6701566407252246,-0.9963814076570371,-1.4361348424741327,2.016572212930111
-2.165149871164206,-1.807788202250919,0.7577756980512486,0.3182917492311026,-1.9767010229806523,-1.8539891321639508
2.0068974413571627,0.3840300989185994,1.6807869780781899,-1.8792538194011486,3.5435203082353346,-0.41846827086596683
-1.1789863599628498,-1.221411730710731,0.23752407660644015,2.4016706429705867,-0.8599395369288869,-0.32796811386590674
-3.919945207508772,-0.4648585009263717,-1.8790313442247584,0.9786808557486923,1.072187445608089,0.20265582143623184
6.390004800834628,2.154301594004978,-0.3097122360835567,-1.822633116636603,-1.0000908402830597,1.731420539695422
1.3077933348293833,4.2840189220477605,0.6944570056370232,-0.003856849102675697,2.064302429721571,0.8524864332886772
-3.3688362517232866,-1.7636909122395272,-1.3730438963455756,1.335218403795226,-2.7636111479383896,0.724520988149262
3.2040976358042212,2.0251627514067687,1.3071355273356846,0.6479982190872223,5.754155407232593,-1.1728600001850193
-2.111920748678595,-2.590423011141798,0.9238833560029241,-1.0145185471849545,-2.5123927491461675,1.6007940820149442
-5.965221761494287,-2.2930397249031507,0.6523990878191677,0.4230130535055038,-0.5902807870150202,-0.15631023976531966
8.59084984875921,4.559933617797849,-0.27290225148039593,0.41535011954850154,1.1459554266565348,-0.31557849013628925
2.172352276965016,0.779486864089238,0.41124610595735084,-1.9148005596222728,-0.3709974537359037,0.7876907386022871
1.6179895524402255,-0.9123710495744726,-1.0293964749912599,-0.14433683159349375,-3.825509788568327,1.292102169703608
-1.155713517069967,-0.6307436840027358,-0.8910790073503151,0.019923294883895493,0.7121999641568055,-0.7279642004829987
4.11638023053422,0.29004838832739976,0.585389874729827,1.1130596102053751,-0.22504770476820735,-1.4470628773515721
-4.853174076604915,-1.6553643288991822,-0.7521818744382991,1.6893624259783482,0.24031511205071787,-1.286127026296985
0.4423080608438612,0.24038548926591152,-2.115903409062121,0.2652156570247577,-0.4231121254841374,-0.8978044250671533
1.449776919897901,2.3111702027504206,0.9108681791600479,-0.30686300433549774,2.221993184815539,-0.29757312800199065
1.0077589306245605,0.25551484243880285,-0.30460252412910654,-2.1461797788751094,-4.813330976400874,3.59652876204309
-0.26972083240387124,1.0259026214200428,1.4289448726343013,0.4956946572664056,4.225469665063299,-0.5124728917645869
3.0243945284153244,0.8176837811234252,0.4136916639289817,0.4899113372940833,0.05912931968737656,-1.9846600008003878
-5.392201979381242,-2.8766651701670036,-0.9565829165906758,-0.23359322397360294,-2.492126835156642,-0.3365348441142187
-3.2413593392718854,-0.7178688790040809,-1.058417915103105,0.26585046879251484,0.9940963260760796,0.8088707975324798
-0.4180698414531171,-0.09704792643861149,0.6525120208527108,0.4632731512303629,1.5855872597986613,-1.6009411996698333
3.8655857400982314,1.6654705173352862,0.6866975827754597,-1.150128606467583,-0.044352233816470965,1.7943403919396173
-1.3958770747527012,-0.7665619319789857,-0.371544228146448,-0.04634232403699001,0.009678075504496064,0.8093904001192138
3.1862777599782173,1.366187987573818,0.8538897647777641,0.13642947541595163,0.2776242399206082,-0.6539666386736275
-1.86132816397543,-0.5522901097501756,-0.14670131112324475,0.34730807006171116,-0.030449288675988617,-0.4496274768445364
-2.00126740796373,0.7092340814435637,-1.2471776951808136,0.4479064079026084,-1.4242269977591344,0.4040903680648259
-2.0674933212900917,0.14294500606474614,-0.6606876049218611,1.9094342543848746,2.1197525806543998,-2.61943615111272
3.8898294124081323,2.1920320475277197,-0.31794431183624755,0.25476249988218314,-1.220125355153475,0.4272534354886328
-0.7554733704502924,0.6198833727511184,0.274810086199922,-0.13947500442498972,0.33553530804062626,1.3284637855015524
2.316586525992971,2.6887355456077238,1.3205471808897447,0.31293992602735815,2.023634846990342,-0.9366809372925147
