Gx,Gy,Gz,Ax,Ay,Az
-16.171864,20.774861999999995,-2.093725999999998,-18.889999999999997,-540.178,-55.16199999999999
-3.3336633897075565,29.579565328556946,3.1208860459230574,2.3979531169744632,-2.3493986451773696,-0.16315193831508154
1.6063613754731698,35.94401764850793,9.33743129647546,1.3792054303232526,-2.353015491286312,1.6341818525865894
-2.0994892528240574,32.54090556075364,5.919818401269235,2.899314270203487,-2.642267026570706,2.9856587921488074
0.42410107150501547,47.1088284149446,4.364688068621153,0.6663739305812649,-1.445425159944429,4.042731176048628
8.116013235752687,47.519771897566606,-2.255317736751123,6.6953648724498045,0.019572934834842487,5.939873942850048
8.265040499982645,-15.8105086077225,17.47404042089869,-5.573932924877932,-4.447353882477379,-1.9560607404371257
3.4221859560320427,20.526569853904654,3.7275676510478633,-1.0892386234943676,-2.1790122859427843,-2.071227292231674
14.067422828485874,5.423796634539428,-0.2967629165249914,-0.8219382628659446,-2.726136846577511,0.3706559836251208
2.395153928302116,-12.724091966748986,-6.8163118764081325,2.401645212462604,-5.454238161504504,-0.772841440024131
2.0510084210408723,0.24124959087079212,-6.166932487694792,1.2943705224289763,7.7594278906908105,-4.250904801397661
3.1670810238193354,9.23910620979763,3.325233157316748,-8.001592791250058,58.79070749028929,-39.28862213690918
15.183319752070993,7.084528161748064,-9.240034884607269,-2.207436632792073,0.9646231386697144,5.045564331467434
6.435717795685156,7.708327122081801,-7.928013288415141,2.947426449849685,1.128286405069038,1.958373195305575
0.8660066665375461,-1.6919952570974754,-7.7769022561861805,1.3795890805905269,3.990655817588488,0.7434449978587406
-2.3548000032190863,11.193055934075062,-12.014285159124352,0.3395759518553281,-4.002665827784083,-1.3274902932358716
7.845645182528166,17.340818861262296,-17.267277883777236,3.906445068549081,-8.354429343172443,-3.2337198520717494
-2.851063627271866,-34.626308458012055,24.908314017714194,-16.493572789382924,7.070100642190869,1.1465825048937606
3.8028704444442,4.811256547442127,16.428827806492777,-2.550987579149637,-7.366624215173607,-3.6868676264730964
3.1695676335163623,-11.218709827292104,0.7103138761790001,-2.798661912352291,2.3106673631959223,3.1161763884947433
6.794986132700398,-7.340855768419184,3.9468438101037053,-4.662770602931125,2.9363512286207105,0.8785668748407569
-3.889800347722022,-2.835814110116038,3.7796775724629565,-2.671537459358954,1.3596353817312483,6.73976476300757
17.55484765501167,0.5179472826229286,1.8394274421158543,6.32858962629245,9.188264367462153,20.973662925972626
-0.8738807957386111,-0.8228018953049452,4.52316590474741,-2.1429231089617398,-0.8991703466949572,-0.3494928967334686
-3.6652544216522838,-17.219407071346097,4.039161300258062,-1.7637748095154073,1.9510986121863294,-3.019196338201667
4.785798601483067,-1.4101344551824173,4.012502583012758,-8.445840455108803,1.5945507079638026,1.8304630915047708
1.0201363807368526,-5.728352288461022,4.5994485819304405,-6.809357822452367,3.288983920584693,-3.2668562756735575
-4.841117906138054,-20.309714905303917,-0.41556123884468343,-13.980473410008786,3.0897587176531016,0.4983234875512019
3.602466972210175,14.351211975267166,-6.86679512440373,24.162106764026962,-7.088402016099359,1.468363394372399
-3.563340337651605,-2.0122404244340775,-6.2732974860228525,2.205777107434141,1.5628603651573354,3.0538468733311315
-4.9627528546390165,-5.366594807346009,-0.9610850551588426,-1.1706831060990328,-0.8473813979927529,-5.447176772493845
-5.735630981444487,9.32801065913378,-1.3352317815273664,8.578680939422265,-1.2964639081433273,-0.8109093690815765
-2.16548060178936,0.2546744615357479,3.489961555210391,5.993214989028154,-0.36175384695736046,0.1190673374922695
3.302323750344191,-3.2156326120848973,-5.090828392215193,0.3747134064027455,-7.3337404259952095,0.5969749240431197
-1.604661197759568,1.6427017666015833,3.3243245485175565,3.936881068822321,-2.226891241935453,-4.412342860531503
-3.414748710113719,1.2232575022221028,-3.0590518435306118,1.9542438236115867,3.3593643619345572,2.166710168682523
1.1939935252687413,-4.505693225660759,2.2381955340466715,0.6828644514568486,-1.2467872440658265,0.040320148314621884
-6.498374210828064,-0.09951655412883803,-1.4940675145239228,0.9351361046749221,1.0638183675414068,-0.3823732328817566
-4.051371524020622,-2.333389288104028,1.466762454288526,-0.35607694771393794,1.0004554867739543,0.8300772083711866
6.122500467660126,5.6569671911979205,-5.461412893552691,-1.029243405854619,-2.972416118985878,1.3489761562038969
-3.7715797572881247,-1.8382846751818995,3.5549329870300634,-0.28231597409764114,3.3171321551925184,-0.7089696533886487
0.04448262451170937,3.1122861367263455,-1.1555939169152474,1.5870991664208365,0.6379188811803467,2.3290078347741905
0.813014840772368,-3.617974673883671,0.8747650242314897,0.7430361737127378,-2.1832595923849802,0.6538877072792232
0.08044817987386677,-0.09199058914350688,2.282545002524585,0.6931387165993912,5.034986004075388,-4.167849231729801
1.746693086223463,-0.3515504960882929,-0.29999614336793273,2.72685952248298,6.874002466467655,-3.712715048911117
-7.538895421909994,-2.5910541218126326,0.5547565300747692,-1.0007713524684179,1.338770890676098,1.5102206276041579
2.481704849322167,-2.844500546275711,-1.2483637286167448,0.533842210259757,-0.9879799052199738,-0.8747287148288945
3.166645192150173,1.601796077075601,-6.609548565642081,0.07054433525076192,-3.0267360149867284,1.292721727027746
6.532143451914288,-4.776206846938864,-2.432406158170827,-0.671798957359202,-3.6527850349521387,1.6840256441110464
1.87875184347848,-5.107629230935858,0.12227265635606538,-2.0655453355344457,-0.5679498393169856,-0.5229107105806013
-5.956517761672148,5.489619380192306,3.7749398937456506,1.5670807296454323,7.5068475783282835,-1.5894736787703931
4.027051207714713,-3.3960022359435165,-0.23666248543129126,-0.8574728249823097,-6.672685983055657,0.2770655339256125
1.9634696982211475,-3.4986204016282256,0.2772700966871169,-0.995494765088131,-5.5038904333626455,1.1616685175070498
-4.290435318279531,4.626297566552289,-0.004766062706713238,1.0546350137520286,1.6469897023799946,-0.764037170520611
-10.37261444260167,5.983107908151173,-2.7118294003827885,0.8584662693560146,1.895117701106405,-0.5496919686448654
-11.262855103869587,-0.2967311846845355,-0.5850392312055654,-1.3539849042043957,4.669867278980196,-0.536848296428494
-1.6544363793833083,3.0561857538845714,-0.37754130641853756,0.7451785484300733,-6.121568373629832,-0.4146973740181068
-2.051624961615331,-1.4609037292715459,1.7008664999011733,0.3994133359795051,0.9496006461755386,1.3292498876572587
1.8562911280297423,-3.9550774092175898,2.2676654897386626,-0.7921256541885593,0.629647595675745,0.7865060077628966
5.185213701687345,-2.9359189806402854,-0.2829794145953227,0.4587095740818053,-0.010678612062757803,1.2122142136206544
2.3522857727392945,0.814928528067218,-1.6879710965984027,1.7363312923303984,-2.470499054010974,0.4376925654535838
-0.6247079440076602,-4.044779429194723,1.855736599213894,0.8001828471236113,-3.3798078825405184,-0.2473392806638589
3.419635366818279,0.8011440168579931,1.900227040387421,-0.40004146856423983,3.013419195156666,1.557590613846395
5.518509655251014,-2.0829827776466443,1.078399740367126,-0.8913325184606468,1.8847318993650262,3.0212410584681813
3.6822980614998126,-5.759634168863052,0.2337475427419975,0.26770828239803685,-2.379158563528198,1.1466488173658151
-0.7295715350933345,-8.17619879590079,-1.0599517588913585,-0.3794232755793483,-4.802187003904901,1.6664769606460703
-3.2689063722156853,0.3788968805431642,-2.0591829425599166,0.6054469619040362,-3.0312661690932643,0.1259596339320721
7.0774670706858585,-4.896158296465112,4.199023519374126,-2.989518471025652,2.0629665282564593,3.9238418802864214
-4.219941972518991,-1.6090903965852865,-0.24769139218411873,0.4841540568838053,-0.6519323620385845,-0.3249948161414127
-3.04897756422792,5.240946957753275,-1.038998131966959,2.870826736649073,-0.329829491352468,-3.2054285911705764
-2.123545934865099,2.600854948950324,-0.5637597319124751,1.9998603962987869,0.16274545987465308,-2.1285973307828288
1.2447811853046833,-3.4072918457569177,1.1621081876730956,-2.175697203849233,1.5299949109523279,1.7661326449238084
0.9383982121276877,2.2864484119614343,-2.2562078053922363,-0.6879424244824881,0.08612766090693424,2.4100861034395624
0.14262670128206795,-4.092312163715371,1.1432844171648475,-0.06351203635989933,-1.9797062986740024,-2.2314221287207174
-2.1511921359295822,-3.633435564285684,0.2395513101755803,0.10917772672616544,-0.060281144860777326,-0.6390581763231825
2.242562466136442,2.226443729322229,-0.3128089415172539,-0.7692513132773412,0.8933746099218244,0.4901862572051448
5.6645389121992356,-0.28290902766432,1.170865846540274,-1.2163641048773237,0.6213997913955196,2.1176717325890237
-0.9861584327404607,-2.6170404499142803,1.4358093087678019,0.8537501701932024,0.5117925195050583,-0.8084929338124001
1.4387279132384219,2.817040319314721,0.23920945934738513,1.2782927467197225,0.02481035288004607,-0.6964492810133576
-0.9478686371859186,-1.3373391135462724,0.04522111800847056,-0.7134915366425936,0.08922051721496096,0.32689130734452154
-3.3288861395712352,-4.182289577976346,0.9720695307059137,-1.554499449944716,1.1319147249827366,0.6581373379852303
-3.8596596708448425,0.37501720043716813,-0.8821395577846713,0.39672342129556626,0.5071239284711957,-0.668887572454202
2.848022733282188,1.8184102337977648,-0.7826437350210638,1.546905602417573,-1.350427278462002,-0.3328585805543629
0.6542667777071598,-1.9154670345103675,0.37873717285249736,0.04734459072269581,0.10442137091768133,0.09322521698450936
1.8860281368271972,2.1190096836995527,-1.98718084801443,1.9039865063681398,-0.8479499341324392,-0.08053371267180442
0.9205584444937176,-0.7420566220196546,-0.4674816316826003,0.5531424362145442,-1.360550351682419,0.31022636818328253
0.07607214689042491,-1.7524524403096828,0.622870727637991,-0.11108993261206729,-0.4224208612414637,0.2079887611929379
-1.6339653982432532,0.18963617321253698,-0.4231236140210951,1.0853461628904058,1.0139304061972905,0.043896317209562385
0.6225862873240814,0.1752466559425656,0.11958916919206972,0.343237352337767,-0.25961870174612667,0.4903540641684574
-3.1780715010672482,-3.7490326376014087,0.3941512950656183,-0.5320715838111846,-1.2445760152745515,0.592323390578657
2.9263524723304744,0.5371406427284157,0.14262433035562655,1.123014114472152,-0.3574823950520119,0.3889642038217235
3.572836777648965,-0.20901355967077517,-0.1362029666883485,-0.05310706789749857,-1.4630736956494377,1.1795702392564766
-0.08921130598771843,-2.0334986205631185,-0.37142388026504436,-0.25985241067330256,-0.4165394864890569,0.5570975508414773
-4.227684160407119,-0.2525326253149646,0.5376676510448622,0.5157709991587062,0.8873289259953996,-1.1470858764159857
-2.297471839227839,1.4310863112280852,-0.07805683696081289,0.1998229724592742,0.5329445643626637,-0.5621747011831258
-3.1151037930184806,-3.75352048923434,0.37627233329594517,-0.5172197801288199,1.0675550211860478,-0.20931688253185096
2.519517444571073,-0.509198739093045,0.04012362792729374,0.3930199258870386,-0.31376388755129136,-0.4580663091399435
1.4087923292563396,-0.2142833891192149,0.31842699297073596,0.21262298960619494,-1.5423520396020758,-0.19417093516706072
-1.9014021433125587,-2.7035948522447373,-0.11430286775220166,-0.7050830329940131,-0.665605115179305,0.8517795981454017
-1.033331818083178,-1.8706339128599412,-0.5584213986545463,0.20407040514205638,0.33812737819053207,-0.20466980792410946
-0.09139404522753969,-3.1948361654939195,0.7178435713364739,-0.3163424835408312,-0.36550558983211795,1.4513966207620568
-1.6038026809948753,-1.3101977718547366,0.11392010858214546,-0.5177781001098904,0.2044183141724552,-0.43040920729818194
-1.4744788158293167,-1.3948856057186578,1.0678489974012089,-0.5197669590118442,0.4093252163668488,-0.1790015589525023
1.7085559247964113,-0.7897449616221174,0.6035353980126424,-0.2956294546482797,-0.221725957913716,-0.06491960102135702
0.4335126425535797,-1.4941711686568022,0.004472031340283789,0.4103321529082078,-1.1623542435097924,0.817892355965609
0.49745255813381795,-1.4310834965045622,0.6450817402668177,-0.019154058233290052,-0.6573652942831801,-0.7497951567779266
2.4517665701941946,1.8235774987987363,-1.471880984604739,0.7411671119799544,-0.9280361203027471,0.5300571209242526
-1.0539745678419699,-0.10843019945520721,-0.28040955354030184,-0.04904967161349263,-0.11490827572415971,0.38986837519712453
1.0579742581913152,-1.8015048086920764,0.24158086130141915,0.3866683644125667,0.3589520450262666,-0.056345508222656784
2.2601675657524276,-0.7280171796105439,0.672851512583867,0.32952959105522783,-0.8013468984455754,0.9210437701371718
-0.7394158660896566,0.582439724883575,-0.08336673564568241,-0.2331399041611289,-0.03450423527896681,0.24446325095248234
3.4939306214140995,-0.3927277875608898,0.015527343853758424,0.7018918843627611,-1.1181539138671326,0.9199996537319401
-0.5440416412911787,-1.6502090104747973,0.0946250498930521,0.052388044753839375,-0.7058762865423464,0.3717495818188192
-0.08947128214646427,-0.5834599159603646,0.22833012323824475,0.18613655113442007,-1.1163133737990694,0.6622576703716259
-1.0693366430042186,-1.7730143607680748,-0.03973371462752456,-0.10349954919956461,-0.4592741170303969,0.38853987463886513
1.551284275969575,0.049745517581874066,-0.8146776636948901,0.5337154565783303,0.37461150946909794,-0.619028344914353
-1.3331690407793613,-1.341340968687314,-0.17909500205704976,-0.33262825111368893,0.46151555442967973,0.14021718461750105
-1.3058189503655928,-1.4510924735256314,0.4048886857949301,-0.3981974116480924,0.7480035533505296,-0.7624591819571628
-0.5088821592243022,-0.4562824632511662,-0.2180818597175445,0.9029547428418923,-0.23463192113963904,-0.06816388572405284
-0.09952019544321727,0.6440796996659709,-0.5842194966536491,0.24714658887349777,-0.14265022883561423,-0.030538533414617375
-0.7446809401109702,0.4476000196452213,-0.14719363773248306,0.8392907935846324,0.5256007607439105,-0.42638965255110695
-0.4445953592878792,-0.2399819766254519,-0.40648055339754907,0.06722085045688597,-0.12975840038577752,-0.45987585443626733
-0.4131619261835726,0.13043004156995314,-0.23773480847721667,0.016313005098278988,0.2276195844887164,-0.606625660771378
1.1036837217856823,-1.9863032783440706,0.5256755678836471,0.2859309226945942,0.027752654498535256,0.12612816110226038
1.0694154860061929,-1.1191717799397862,-0.5007047821815744,0.5502928613175331,-0.4972231536270071,0.7240504050815394
0.7127917197259077,-0.8705713210865728,-0.4284445987709924,-0.09249955948983643,-0.2545146317788395,-0.2917007635015776
-2.453572584775937,-1.4133228525191117,0.26482653338281786,-0.17153863730955898,0.523543120435229,-0.3018190547882414
-0.5987225428648889,0.2277106985236442,-0.0683788637999376,0.5088820730685227,0.06564925985630504,-0.4056103312615939
-1.5032924885437358,-1.6639083993074362,0.14891528928525608,-0.37844319379759767,-0.8032012384015075,0.41135953494027594
-0.2253186764037186,-1.2287368309764617,-0.3370197245320429,-0.20441668451858133,0.3730406424732374,-0.36720518452016704
0.9620754150806956,-1.3095967167832772,-0.0894726165167166,0.3558162261969796,-0.5233675942284144,0.10369305524076407
-0.6562982121523724,-1.0196654664046247,0.4656789467457111,-0.7004164885630324,-0.3935798550416669,-0.39233342341734306
-0.49242773191925754,-1.5879522803777335,0.18854917634005308,-0.10632602652743692,-0.23441973145968925,0.5758812296983048
-0.5664222720266743,-1.451409799833776,-0.026331135312221567,0.2678738435122244,-0.17525651326802583,0.03193366485474086
0.27345336230847545,0.5188093743756267,-0.4942448862612945,0.2562361926325623,0.0670496800302827,-0.0870425043474885
