Gx,Gy,Gz,Ax,Ay,Az
-3.1145369999999986,-5.438459000000002,-1.7529829999999968,64.344,-486.162,27.692000000000004
2.410253434094766,1.0534960178849122,-1.490951911091324,2.7915722805038534,0.8775435595491312,-5.294020763197031
-10.630485399647547,7.777795630891533,-1.4573176810145076,-0.2610866661009181,3.279342690629227,-2.2596388030786856
2.906425039207458,23.838895328454168,-7.072276089221923,-0.7738001689427887,1.923150253909757,-2.618070247734828
3.0288176002463287,13.96851256079388,-2.8053935466021027,2.118873659347668,3.279882479492049,-0.17856724982221917
-20.963037931680155,75.9389969873057,-34.324106250979966,-5.856190437571403,8.545020382806717,-1.2126843704204129
13.018380841747703,-24.561506754548443,8.501910285000745,3.595650337574525,2.005220897230898,-1.9894069187496775
7.184585409325052,18.504452862654734,-0.9538296941364308,2.7194261075501864,5.80036756827504,-0.9372792672606289
4.368015178284401,1.3251959569001546,1.2269030407349661,3.499223049689167,5.0410409883046,1.819212661699766
16.068688037304895,13.06520684167624,1.7632107907411871,-1.5787297904243802,9.391086622732631,-4.381089575092545
33.35784306072951,75.40366640247973,1.7840140000768587,-4.889091269004128,67.59174289714105,-30.919883453179594
-0.757699800579176,-26.067330525222058,-17.241960828513943,4.653679300540042,-41.39587668488465,16.901507376107844
7.8377591356078735,-9.868038749103667,-20.797959560622267,7.744139529715988,-15.124680467089043,5.257450949374262
-4.440928536065994,-9.64952699528441,-15.17616396087383,2.975893417689549,-6.839532692771321,-1.7020291235780816
16.857868556859454,-16.932886397010105,-29.098149508444592,9.659075772827839,-4.451090145053996,1.2070897190066638
4.863738728537926,19.994375014745863,-38.88788742302534,31.588361194246836,-3.938750480346295,6.217714733147682
5.508205774138513,-52.91512164620833,48.21282390548862,-36.068227774155986,0.4810627995998584,-2.2479327499673563
6.957327490608458,-11.985480352322831,26.36601329621869,-10.875877278632686,-9.119413580608605,0.33118000814531245
-4.564136909944981,-22.70581660609348,8.08501610252829,-10.321609765736723,-1.1907961903886748,-0.6830083595246605
5.705196528792113,-7.865115152197397,17.131882741429294,-3.836446301420329,1.398408404294723,0.7826674522348963
18.29011486732701,-12.49211154102212,-0.8768161639356757,-0.1966347309025298,7.779472012404115,13.608109365138036
-43.051516284544945,18.444058111309896,13.017556978646398,3.589204497162073,-6.777642921465834,-16.805952554959376
-10.119593415150684,4.567627734069199,6.935156125339966,-1.6775226380497437,-1.2062942255454687,3.473375737402406
-14.95384985322435,2.3819519605812163,13.05659655409482,5.498319125701975,-4.770232719981491,2.2282085323678356
-1.813538922331848,3.048282954012816,10.91938084415713,-1.0927869610614769,-7.095403830946296,-5.108895613932446
10.892864663084346,-17.72188555634536,5.365103188901431,-4.7535926193839675,-2.2712955302503914,-0.9902122765326449
-15.695738075560058,57.27366981116185,-43.95818060521758,15.775864039469592,13.674826881190736,8.587505711970715
-0.8091040714659385,-3.7805441008511504,3.2972354141189593,-2.0312526393020165,0.6423148589583159,-1.9199480935099853
-6.675518875228132,-6.2725918935574185,4.321717871619665,-8.887616501384777,0.1823609461281066,-0.10546066930978526
-4.379509512803468,-6.083592727922744,1.83572465147859,-1.1648144842664123,-9.647869857165816,-3.1590448086848877
13.01500700308234,2.6659014138993324,-1.7715492029843545,-2.63387713482432,-11.438474347160277,-7.954412803425981
20.484338135739733,6.7002864080902516,-12.111187827903832,-2.327547846597861,22.83757412390643,8.587122915504175
2.2801925273405503,-0.2803598142690298,-3.2307116199609105,4.360291853378543,-17.12412382189754,-12.68883767937351
4.24264070049079,0.26770298019988203,-2.0370177825871743,3.2153540980490654,1.6818422266508435,0.8190681223796794
-4.32236686599361,-5.290732108424938,0.3770576694277974,-2.857289781816653,1.014409511858708,0.97158766187687
1.3469283825521519,-5.747933926040185,-3.7073273186546354,3.296510997841119,-5.92423307629779,-1.9403329486185728
11.773097474792419,-6.513664606970095,3.894876942001054,4.708705739152523,-12.010551226200015,-7.172616984760344
-2.0159793884941006,5.185415348023064,-7.096411651802666,-0.6394510981321577,0.31522775442730167,4.19176872504859
2.7137833290959623,7.31520751300091,0.07086373058960116,6.6609650754216005,-1.1241651039775697,-1.0428827866488266
-7.371725469980533,3.7044009329498975,0.2090489280260064,-1.2414527941097697,12.295813198584376,6.257155696765005
-8.733963143327067,-8.201045318867687,5.179801057486943,0.7434669580254853,-3.0759409051998476,0.7275344795795151
-13.405612122107275,-10.87346972753164,11.274276813692873,-3.7781071400101722,-14.968235170054195,-10.531348575129337
-3.406760232267013,11.536359250577194,1.0011902728073456,2.528925505369909,18.84961119619446,12.264164330355403
9.502526588969516,3.6990615932224156,3.053890838265171,-0.7242863411369523,-11.542435708827318,-3.2076373568477012
6.921482764958972,6.212746836561344,-1.0678565115684093,7.556100562014645,-0.164994855943716,-1.12632496133538
-4.292155651390615,8.674423367904422,2.237257427458357,2.7412174751604073,-2.827064058089089,-1.0716431091525123
-1.985929688173286,2.9618166503563153,1.1528682728116202,-6.915910507798368,1.5602751950586589,5.168710326718683
7.320421610678348,-8.539201734167216,-5.168676034162052,3.3648675987216654,0.028494126360152805,-6.634557481807409
6.846517132687808,-1.6248471229207349,-5.319148432970055,-7.62989806295046,-0.5972645331372135,-0.2681287618743642
4.547212658471379,-2.5657473028225524,-3.178261748776574,-0.9389136005378744,-3.5308574743436116,-5.25676559517466
-1.0804968408659918,4.358949039375833,-2.537616995819704,2.257897321816726,6.594392093757874,-0.42263620318287876
-2.7169983217766647,-0.23448995773859327,-5.95543781440768,0.604401000495308,0.5383988731622158,7.961372798698217
-7.003649212649076,-6.25429939887859,7.07908546798112,-5.939301455994803,-6.899230082855434,-8.587670663642005
-13.176960827018066,-3.500140310943339,1.4645698177957336,-2.405641751335663,11.626510447624078,5.5231644763463335
0.16970399919921553,1.8391902234063426,-0.6564926036924726,-4.03382602269338,-3.545137141284818,0.35194385704449793
9.474709399746462,-1.9914608989550366,-5.274182307555234,-1.0070925458052757,-0.569481641080503,-1.435287012710952
-4.790388327817724,0.27163134914308307,-2.6807089920158633,6.4924578152130925,-2.52054413045334,-2.5140537205885183
-16.601666389346985,1.474096117674033,11.027576298493052,7.840342980972903,-2.7822397307504367,5.1830856017982
2.0136692043480373,1.8453006621260442,-6.393995003382716,6.404010509831655,-1.9955547593274368,-1.109019261345854
-0.05641482496016326,4.003577087810405,-0.8856270705283018,-0.20630421370959606,1.5676947719758636,2.9346950047006954
7.018211337455309,-0.46151544521473187,-0.6552680766447332,-2.3945260717716934,-6.183601347739305,-2.3504225088213166
12.13591999661541,1.3457127888884306,0.6660019244239366,2.040835953014936,-3.5804602002170163,-6.43285468752668
5.042572236717069,3.2539554814817864,-3.604143954856063,1.580916961578899,-0.1829022014276671,-0.7843955148862087
8.219235984233222,2.65580963518726,-0.5785307009393694,2.430194323422002,-7.152425341491236,-6.875286263695244
-9.576884067964894,-0.46487692345689613,1.2688455082278867,0.3101388544412358,0.9360491023962821,1.0998235954181979
-12.323197922815124,-0.44107760896919146,4.528262083105503,0.5523378500097208,4.105928514816608,1.8605929559951817
6.74814740597599,-0.7497374916102271,-0.9272026272904373,-4.440227084505491,-0.8990208232717714,2.2742712840647843
12.28541075295159,1.4365733020948088,-8.464064847311732,-5.125518918987219,-2.376564143087756,-3.1812405075064016
-5.524600314788683,-2.1493197197399416,6.685876349645369,1.7942302046937577,0.559526380895512,1.7541208649175388
0.9838356249849256,-1.1305375874572623,-2.779244554159434,1.10739649669094,-0.6275865878951626,-0.36748008207051797
-2.5127233185887343,-1.5967752808177205,-0.03970924718199531,1.181349552033441,1.6214849454114217,3.2184982419391543
3.3713455536829953,-1.5205066654176227,-0.22227480290650092,-1.6333676752906408,0.11188862118825571,4.525832829010291
2.080663857473769,-1.1396868738375971,-1.0804244947757704,1.0641384398944584,-2.6296156139558207,2.4708412642684436
0.8977901043233021,-0.12874498104545162,-1.6253783803387216,-1.839666562434228,1.6201258532908784,-1.1961048206226579
9.631416082627162,1.654171097543593,-2.6770890935324423,1.0736824216407972,-2.3896898569125957,-5.072387290069384
-1.3797205173089317,0.9921199527400903,-2.8303730609063336,-1.199146118126435,-1.980335561939452,-4.9519699570870905
-15.293206698157398,-0.9648475460052359,0.41591909795097504,3.383945118289028,2.7783064282297936,-2.5747087569889278
-7.658206293872455,-2.910956730911821,3.9922630105011176,2.1327343065849753,2.3451925284752875,0.01705492096020844
2.5253480263056627,1.792321127509727,-4.482034049696833,-2.994749384587341,-4.982426799681541,-1.34580060749931
-3.492604023234245,-1.1558613308351426,4.437251356990171,1.8409100012670243,0.30865174285354247,-1.078801375476814
-5.945257761245049,-0.21019005911142874,0.7275542336650787,-0.19401673490197036,0.7449531740512406,-2.9006626508810465
-6.002456510964466,0.1574714131794548,0.628963023276545,1.2842045835814644,0.6999359691752995,-2.175074427195265
6.657903499999998,1.0972484999999983,0.8069555000000033,-1.0179999999999991,-1.7659999999999991,1.0829999999999989
-1.193925217998867,-2.6176785599063477,-0.8894147543738472,2.157692959224919,-7.014513935408743,5.602793259776817
2.527587661117896,-1.4048180409274187,-1.254956846432485,-0.6859960498874185,1.238530457000948,3.7113151752095996
11.693665388008728,-1.076294303345272,2.2617362744469207,0.6960472647456888,-1.5628620881715296,1.7832043340431578
14.294221494871353,2.4119826758204774,-1.238726325165088,-2.267243164458587,-3.414564858207783,-1.480302662624568
-0.31617009022241627,2.573557015712217,-4.5572758275419964,0.6062334694540044,-1.053807482040948,-2.227127370123089
-0.28937269420132505,-1.6676389264268738,0.9966890997830867,3.0602837859208414,2.713140155720235,-1.4090729858368518
-0.40714357290342296,1.9345606520779632,-3.6049229870625066,-1.622778870238995,-3.2336868746734675,-0.770609530919485
1.7902762967662726,-0.5921201582521084,-0.08710548836156207,0.2428120540412717,-2.1423865973508227,1.2663519465628372
-0.9784982692238646,-1.2965716318092297,-1.176387226652014,-0.37931625620234644,-0.8337819151898935,-0.41515318917149846
-14.665039060002838,-1.3512787730082993,0.08136520232313904,0.6312891303823656,5.0533011683967315,-3.6677375029207435
4.903076027908802,0.5535425620241237,1.8003459612095347,-0.7727354069294667,1.5065025306035253,-3.621621167370172
-9.506537800362967,-0.5028451492870267,-0.9614094839184011,1.3737441847271523,-3.8831863308087153,-1.9724669707531637
-7.8108121873625755,0.056667862076473396,-2.3179935883319773,0.27687071506652483,0.27292014373836937,0.7038719115195978
-1.619069549963164,-1.8840995066035569,0.7145731723384607,1.307265143424015,-0.20176503622535513,1.5404125535105129
7.898251858165384,-2.4602859329693825,1.060220966345969,-0.30186562677056067,-0.5182671698054103,0.7243169697859293
1.5875165364484465,0.6051097210287595,-0.20378578282246307,-0.6207624848094896,-2.5305601385716194,0.067416414535725
1.6896017451511534,-0.0926254733607707,1.0980860617793673,2.654039199432762,2.234840500717907,-1.6985184179817137
-0.25851928641808897,1.3059759698740696,-0.4801385297725176,0.0006947776180866172,-2.7046532294418246,-1.7049000813096016
0.41243599772961503,1.798178158430007,0.6188750710741739,0.1402728483090528,-2.033006165486387,-0.0984370056174283
8.104080359994303,0.9017233369317936,0.04541763720119382,-0.31938958503754694,-5.05167949128937,1.7789143764870912
-6.986745583365275,-0.6737569385224009,-0.7460407136073914,0.6609586517673047,1.8902920695366658,-0.5681427545163182
7.3097899591042985,0.4930403570841644,2.1004403027702727,-0.3090978573009815,1.32980104847968,0.19171437163396943
1.3292197381201776,-1.2712229623716964,0.8899818315961048,0.6739447217998604,-1.6253067173546611,-2.647572844539686
-3.406507381194279,-0.9605607701957124,-0.054302394224372996,-0.7225840816174811,-1.3122321077748933,-1.017899584266873
-5.430943671738439,0.08344284645354688,-1.0334218859695565,0.054408308690819474,-2.6685251802282792,0.6127350610517298
0.5326656987451885,-1.286064978187564,-0.605352369878708,0.005595781199649097,0.589488377035936,-0.2077295053427463
0.9010596952756416,-1.7740655988267093,-0.3308035459329022,-0.513403013478585,-3.239597142166242,0.6424431949065808
2.6051916672331212,-1.3632084585270943,-1.037525371705498,1.7773738761542566,2.9923810460261366,-0.08446817445649835
0.7214007494135403,-0.9275153546793216,-0.7075145203293716,0.8038499944554156,-0.45146720250535943,-1.0722485882899948
-3.9660250263949415,0.5249593433928055,-0.10999492091023921,0.046314366024674786,0.6306629541350266,-1.5099767148934138
3.4935264774026904,0.780869916918965,0.8210115197439528,-0.5488789002401796,-3.9623029699715806,0.10066103547990352
-5.140706216573637,1.145689453206331,-1.5754507849502235,0.4694114177980294,-0.7327762927639214,-1.544171150279657
-1.3397614502928596,1.1305389707455882,0.4442803144937282,-0.16146387984551352,0.9408616220033325,0.9859653761589802
1.9587817134886858,0.19741135683887134,-1.0012454327608349,1.6346106199518844,0.4982817446349863,-1.6427030002701335
1.6386702670709812,-1.5137632874689704,0.3478886808797442,-0.23543487560935716,1.1222863685248403,-1.4710927103357796
-1.4499392837246232,-0.5072502630166875,0.11732055539107988,0.12511053034406955,-2.7319647297788734,0.5781072690750402
-0.9428364948500021,0.7472946738571666,0.3975927709943426,-0.015629407294647818,0.5853021167798201,-1.0004310382410375
-2.6878674713959962,-1.2614092428070935,1.0390415705460223,-0.9613756375075686,-4.943888001113235,-0.41523827828912785
0.7757891995483864,-0.03293401063427115,-0.756934162542539,0.7846745382773854,0.19247507586672097,-0.4782639398223492
2.942930234180632,-1.6119625289320516,-0.4930697912807169,0.6081200534177056,-0.7691830511486946,0.4328687005717401
