Gx,Gy,Gz,Ax,Ay,Az
-5.471487999999999,13.616010999999997,-0.7063249999999961,8.982,-478.954,46.176
-3.0950309321044953,17.655086875983333,-0.08970388499863757,0.4618046744874642,8.718937075795193,11.016944635672523
2.4018346110280167,14.726072062879844,-7.316829552196113,-1.6219557612343891,8.479068676472524,8.576374179875538
6.503008068704135,5.436438913162939,-1.469377024963517,-0.7403020788869501,8.661617956145154,11.86275172956075
16.178321715519505,-1.298609750678466,6.042405111547492,-1.0199866961409942,9.153455251062667,10.959392919125756
5.870803135583829,-58.31103239535995,22.815443474580675,-3.360961198872217,9.951859060883436,12.792742241528364
13.093812689370925,52.79903992540474,-16.465917388480314,2.612049496342873,6.408064494758491,11.057860032181829
13.042093701413835,35.236040202740014,-1.3117004191533197,-0.5120944376326313,7.246309605233815,10.82898716570229
3.207876757695873,5.021410774389718,4.351864812988955,0.5911091325679498,11.352960165764081,13.658217901933275
11.401413603429315,2.9654464890269665,1.0226839685611802,2.864939882593345,11.181808593334592,15.841113435599588
19.48092278260957,18.638980780788977,6.647195332857425,-1.7014347781158785,29.004517849335087,12.262240110753261
-57.72201973419011,-17.77426218481104,-7.738342689861236,-2.700797226319528,-29.373245212026177,-8.359719564486577
-10.544099518165101,-3.651199664580171,5.260627532322725,0.7985597578885969,10.700579379246134,1.9066213361660491
-1.4299781174294774,-9.447161504695044,6.397328235728786,0.16373485939280596,7.9963305624728775,6.0905465525757645
-5.617152664037343,-0.04536963440981623,3.3936629559750484,2.1995978855268863,8.430992671979926,6.783584652984685
-3.7562563611151663,0.3067735981016533,3.263983132864574,-4.1706571206613985,7.458367801956783,2.6870613080879053
-11.718597590444798,-63.98349149957865,-77.17306036934325,-1.956329654007336,2.960856414820938,13.519750794881165
-6.181336057912677,4.608376003900953,10.60669522441819,-7.304000999988725,8.212833326995053,6.287319235660844
-0.37967093622024173,-3.150009645045234,4.15133476242363,0.3531440097677294,1.2784315558182713,5.455754098579535
-0.9554486803205811,-12.32606041429378,-4.483614573767288,2.5722006097154484,4.135490112506114,12.912545189862017
-0.5377358645429631,18.93277311649509,-0.9347648058685407,7.412675735858158,4.468904615863959,18.592756438657027
8.767144154505328,21.416953261080838,-2.909109731717505,16.90108295948265,4.328685524938168,24.92166958283434
-3.7632489941964167,-22.166733139691342,-0.11854103993223486,-6.754295740468269,-1.0870660831935304,-1.5900269796821256
-4.7850344342308775,-4.344565541646236,-1.9343556657290573,1.8871176377415622,2.5142196158686234,0.6404986092304146
0.5558405677334779,-3.8029747402665937,0.5502547743550217,2.4031894934702605,2.839646145472095,4.443756696040098
-7.785000686163913,-5.600945690497164,-4.672566619139447,9.005109420770097,6.148682922086298,0.3171416631101103
-6.967801044484595,6.50300138109671,15.539835507185726,17.176724807655198,4.696341294022701,1.9599983543688797
2.202987343100483,2.5652689479174065,-13.398648535789981,-27.766664954673914,4.8302867178613145,8.237039175380396
-2.801681928821038,17.55779649516088,7.350786718628986,3.416022390208669,4.008065093925912,-1.1432368217156608
4.788573275545048,12.83446478267389,1.8820147429554168,1.1615586021317927,3.161096151269148,-0.2657672259659458
1.7284913009292215,14.055040396812478,-0.08912090030211228,4.731984755996213,6.223213330548044,0.48999938619783556
0.39236186044728383,-2.461821349193302,-0.6745294607446279,-4.537700132879203,1.5591087355171283,6.565334783777411
-23.37737668855457,-15.778097211872291,1.4643272100906994,3.766098583990048,25.696568508789138,21.18988027064348
9.079069439222192,4.815021440036255,-1.379574331049143,-2.582601636026412,-8.988954851716276,2.0712456121471323
3.5895848385467604,3.185234004419981,-5.796872386193572,-5.859180510414911,1.4196775562467279,3.3424471196569217
-3.403090910103024,-0.22780925356508064,-5.164808496954076,-2.050050766376679,4.882570126407185,5.445383386182355
0.8095084888913795,4.250353691495954,-19.504276024877143,-3.4611948461058826,3.7903993301637144,2.215541954824551
-1.9337013316002953,0.8962695620786348,-14.185565393247597,1.4325507875867256,10.775481840971205,0.8609984249170841
-1.0267914381988215,-4.982352558992092,8.236110712835984,-9.47134258208519,-1.1168416744047909,4.968142745578995
-3.2582734374928624,1.2297385679250672,7.604270332968645,1.792437762761483,0.6298022216308632,4.436514730864378
0.5261750956743674,-1.012745220496619,3.5411118504591705,-0.18762402441950543,12.607496911540089,2.0164691939028714
-7.360203697264548,1.9058293225237608,5.722768719138838,5.6457017716807085,22.978225974383598,-4.2973348298919385
5.866585683468885,1.215588082699997,8.744150175535598,3.851756663605866,10.231968249543904,-1.8551724586565168
-9.225572256668997,-9.35189318806147,-3.313863303970293,-9.358536275850762,-14.577476033739703,11.2336104252164
7.319946883852285,2.25264996578974,3.542369113685278,2.2191972463417304,-1.4748896376100156,2.32926030045359
3.3275607748534384,-0.06090648294446477,7.956141003436189,3.6211851562388553,1.7174780768928404,0.86505393080727
-2.7536701335413576,-2.4032744570954447,9.800244885121176,2.7197419444487565,2.290038201059841,3.8516798463274124
1.2423150209853988,3.6344979147847583,-6.405190565962993,-1.436175656757887,-0.4626547370646774,0.6941328853844932
-1.0082568505662897,7.440360006480317,-18.325282003522645,-2.3615688059597266,13.98321454672407,-5.612887845393889
0.22317535865095872,4.791936219364601,-3.817869902191121,0.4444220649703814,2.1780380680506237,2.0592111166105775
3.2021890383716505,-1.8026275546903092,2.335474947720431,0.5976607443584443,-4.170210533087641,4.797568877011209
2.333783149529838,-0.1310711810532485,-5.5746437408421965,0.39026298532898096,0.08220122703841426,0.5919278633290677
-23.880716191966265,-6.314780080701141,2.629147548793214,-2.665985867929219,-5.307459959149001,-2.0270453420113896
-14.731709512190351,-5.541030335031527,3.266121593591925,3.0892304017931194,16.521365845434513,-8.878656535601447
5.943636388562677,-0.2704250470093609,-6.0437957568694705,-4.344815776185333,-19.871383655633686,13.243752622024886
9.196511957075588,4.454257637612471,-3.597428381685785,-2.1256759507506313,6.860469790444158,-3.1234371129534404
5.347780948477456,1.175477728596186,-1.4942412570229138,2.606715800757641,7.850888932221142,-0.9131839448828274
9.457513403357297,3.8440037931274365,2.9754119598920723,-0.0010473566746405094,5.62993181307757,3.503228166671339
2.8427324777125893,-4.693143120718737,8.95763980273513,2.90598248878835,3.492841203552583,-0.1127500798779355
-6.3185532333218895,0.7704901526649075,-13.302427249752121,-5.701741369316388,1.6506872931201588,-7.512234982553176
-6.312519719970416,-2.5785218833532784,10.286177087605648,0.6808497305455514,3.2255763368368386,-1.3567750394340834
10.749982966640658,3.4355557353959107,-0.018993915064264844,5.382919548795364,7.6377765466198575,-3.1163271272970805
14.166476768992672,2.450256966523647,-2.4616248917916446,0.9018444272825473,6.23373006428672,-4.6538542052252545
-13.671156306435304,-1.2399112910773993,4.344997985065879,-0.6401606725392621,-9.06718184373137,8.134058808987884
-28.036060222850203,-9.500196281254457,7.899299688035013,-0.846755847062,0.4540525204985002,-7.906502435503352
6.843711682500322,2.06146714218683,-5.134532798332322,0.3251255040172712,-8.261599043244232,13.303142480224968
-3.1489063632458034,-0.30998493928231796,1.1369008291792266,0.7925523139587016,2.233549852944928,-1.281346583155078
-2.584140097875066,-1.419354951515591,-4.5266935069719985,0.13575324635710206,-2.047572687993467,-2.9089114315359286
18.7598986947066,4.110658820625626,-7.864319934791981,-7.441277023742662,-2.576075143917038,-3.8426114033748004
8.89957907429813,2.498178906141705,-4.564931089885702,0.8013957399360594,1.2726271892764756,-3.3018327029469816
-9.198537602210152,-1.7371501476300568,-4.776013974282876,-5.068934783571041,-2.9734655201238516,-2.6146063663416292
-8.977224163034503,-1.493255103983302,3.242283098240046,1.8259488764577922,-3.1898504389844184,0.17822432004843858
-1.4747342305836861,-2.5871236798942627,1.346247023307181,2.102252076544046,-0.46819542398745995,-6.707462899525931
0.46747701821090804,-1.9973092533489818,2.2481768556357746,2.1326580325510784,-0.8644120287247814,-11.591207221780767
5.635914985897832,0.9550590357549547,-0.2376129853788811,0.5306717315324656,-0.4719663080385119,2.905821720553746
-16.879222254294394,-6.1215582997119435,3.2448838052733526,-2.4935493328736853,2.9500840571767806,-4.349397232497246
10.670906667806383,2.415141378640543,-4.3880352486072765,-0.15981669726118986,-2.5605123008004886,5.916141197521366
0.5157532968021712,-0.5448113014669611,2.3733677614473967,3.3211767756043526,1.761574755142595,0.680288357520666
-5.156256646366968,-1.1942186755224102,-0.614769002713415,2.2960106450651523,-0.6536052206798229,1.0648872616167504
6.057184023503968,2.5765057531772637,-1.4931672752444307,-2.153030955125444,1.4899173622754014,-0.7952703279299005
9.184555546951081,3.702389511522658,0.44735745923589487,-0.10332004475548834,1.3157005254332663,-3.1758326284927474
-2.3915653840728224,0.7021508297083794,-3.760942254829796,-0.813206368868304,-2.1364285518791086,-0.758717690575655
2.274598693202388,0.8509567690665636,-2.003706755853659,0.13942985891038173,-3.7965074475647818,2.305184235588201
0.7645445808877828,-0.6326891057608796,-1.257150876680117,-0.4499075980115652,-1.8862989463230717,-2.1644116221563188
-14.452624007605298,-5.143625297272513,3.1825412998402416,0.7639375862037134,1.1079984464981516,-3.156502403158014
3.318319725995236,1.8038502501863367,-0.6526031855103014,2.114771690581454,-3.1353914940969743,-0.5269131864111989
-9.16713028835208,-4.671886497510304,-1.9499304377311113,-4.066077838061033,-0.7519539269743505,-2.6286759642614173
4.4840019626021155,2.3262730213925433,-2.606988029382174,-0.2918932156141507,-1.5345645661982823,-0.5402045468227543
4.604420001717305,1.0619788692819454,0.0309674945108398,0.6671696054749043,-1.194572579267124,-0.6721124343616556
4.470723053962259,-0.9572659873233089,0.8518235974102735,-0.6348364420605741,-2.801929922173105,-0.878735950094689
-2.391120946164991,-1.5725178192172558,-1.295008559016043,-1.0778478017601971,0.28594765827046464,-1.5431090699525731
0.5591697982980115,1.6408719697685303,1.7670553513135898,0.46679571747367277,3.320918771905916,-1.9699567652299552
-2.9094153767728974,-0.24415534435202346,-0.15886535994425732,0.3513478611892712,-2.030086103627758,-0.3975066088631114
6.354316654651033,0.7684359406464734,0.24076223050655876,1.9100183630953824,-3.0445497406697903,0.37253390049056134
4.029782164278744,1.5771287900555464,-1.026623917579112,0.9794503339732044,-0.8305248946695367,0.3349321108017411
-10.430215071169595,-4.13422778873305,1.4673736032724731,-1.2718512019369494,1.6188963719240053,2.349450737344298
0.261560909642903,-1.6698174484709059,1.475132622982657,2.018781297699851,0.48342572902009806,1.2947817649956535
-7.2500398184797135,-2.0469471937844963,-3.245376321579726,-2.1985863380127006,-2.877738798304841,2.952418760929862
-3.765822353588268,1.907261534270571,-1.6293953413150042,0.1682881551528762,-1.2912432580211703,1.5855624921008578
5.17735893563375,1.4606084561308947,-1.5028692568198319,1.2944299263656458,-1.2624343268595535,0.3182414702074321
9.573236213160474,2.889235892332585,-0.4646289452677417,0.264454913516698,0.6238178865566553,1.2608489900320703
-0.7934006790460171,0.5526860711818704,-1.449575138525729,0.41651135741148715,-1.7054335861583052,0.6289919617293473
1.398736577875736,0.6299668288340741,-0.6325562129747002,-1.6596984770785606,-0.2556057012707837,-2.416384068169962
-3.1180632467063125,-0.5147558878467217,-0.09951221883533262,-0.7301647380149878,-1.1118687289546632,0.6263984951743592
-0.22380499045573554,-2.5172856702147954,0.6753222003960193,0.21372269849556613,0.6196663179425341,0.17361671345946728
5.370802857688714,1.0670209966058097,-1.1021393468267644,1.3041403629741124,-0.5737313021770595,-0.03298531759896117
-3.8425647343638247,-0.6280812399790887,0.4796081548804252,-1.4741550556139984,-1.3822041237018228,1.0529352427947531
1.0361765139034058,-2.330495745774072,1.6831946676249243,-0.47481728055403416,3.344894940103946,-0.11847930142657803
-6.609860854756157,-0.8308916899992054,-1.6978893941891278,-0.5118439013680812,-2.0575563725964203,4.722947876491339
-3.954173665248445,0.8589915137061936,1.0938691139642,0.11354368327408948,-0.25009189176420743,3.41952715723145
-1.5816098665733893,-1.4047713411223477,0.2827816796112044,0.4281506347428523,0.43616258320559365,1.6640780062789207
7.377413067781006,0.830154825386433,-1.7077227095423522,-0.04386409995359042,-0.5123331799845925,3.840529160966982
-0.36119308757991675,1.8857848887545785,-0.059586748429664604,2.2350891397040735,0.34236643939487266,3.9122532065477005
2.9591337114534673,0.9896855881824032,-1.0667249362091247,-0.5350862132032472,-1.30314813702268,0.4262752513073462
-2.800216601570274,0.07879708396230356,-0.3299683166050748,0.4825228480669197,-0.6703531659025417,3.239436395896831
-5.140417880698613,-2.0109217500448286,0.3599080960001919,0.08958048390290052,2.3111169940685112,2.4552196217169775
4.937915933848581,-0.18877225889216792,-0.706981527207234,0.5680388672867057,-0.5567853601260064,2.3422838288302223
-1.5739842574420444,0.5642998475049572,-1.087935543395594,0.2724163645508645,-0.11648714088064627,1.8868903935772616
2.3065432218329667,-1.158869869701462,0.16228317445631557,-0.9022298226527952,2.3396996970859685,-0.2385050278404126
-2.616977405128493,0.2205941378756484,-2.140817450240547,0.10655672389768944,-2.3321471141701697,3.9841964809334582
1.2604441953946655,0.6899788396767499,-0.6299555770470617,0.21315354067812128,0.25114038185469223,3.0817999290004465
-3.3326919548415557,-0.5874624968669616,-0.11448965568733493,-0.16231293271118624,1.9988948256239794,1.3791907854095722
