Gx,Gy,Gz,Ax,Ay,Az
-8.501605,14.250413000000002,-0.10092699999999855,-1.4900000000000009,-530.58,35.443999999999996
-7.455690195992056,17.32599632282082,2.805272266128345,0.7269880318875279,-0.42049187113868824,-2.36785885869961
-4.265148169500821,11.499098600880345,0.5343017824808811,0.40261454982135814,-0.2697787145828481,-1.2054400313784153
-4.228040289457768,5.216277623585556,1.8147237841297037,1.785739226168275,-0.47454706552049286,-1.2853792608790366
-1.5766479708704104,14.42385796757354,0.5256696194003374,0.6102049502667692,-0.6695100342604959,-1.3476179623568751
7.795954662582832,102.50511411539,-55.88952347100407,9.089153269361804,0.7774768994789889,1.811826836815606
0.11761801270900518,-10.701913620375732,0.6412362236170144,0.4419932115072083,-1.291270669904382,-2.9139561725281298
0.7321067799698061,-9.894077238348956,1.9988613731305578,-1.65540650265873,-2.5769137656176175,-2.068537099533832
6.211501678011729,2.4162301153077133,-0.6273901686536337,0.2797684612519735,0.513664164277998,-0.22659962542450263
0.7967887084961127,-4.871486801026223,1.6713079190090745,-0.16874850904066463,4.30501033556591,-3.6875531606907046
-17.33111871639475,1.0967826094123998,7.444716647973961,-0.8884706872092049,58.55041206377733,-45.072669630985956
4.157629408375756,1.3649099057245921,0.9755854423002317,0.2324755848414386,-8.484736394824203,10.134794275614954
6.556730586673149,9.455900937004046,0.5235671228090643,-0.13150200251496558,-3.0877009594273015,3.651248209483532
-3.6190251303032426,-4.429966753336721,-2.1591027007571952,-0.7939059651864726,1.7419656885385288,0.7510078644706363
7.8009678104598885,-5.402873968632809,4.947103362011449,0.8057808544102266,-5.706847764929838,4.142079803527599
11.885245161270216,53.94287438823566,31.241910134407192,9.752331377351387,-7.238552473678087,0.03008137532247901
-3.8192593982186342,-5.549696174554769,-8.65320789064613,-6.184707192024045,3.4896207843291016,1.4279642353754909
-4.430092917098602,-5.192962720424644,-1.4135527339540968,0.3288503857474716,4.1531325202227505,0.45625661159270714
4.865132048556967,-1.9458436173152385,-3.255338862728974,1.1550899679726063,0.4923919663181735,3.3147410678442366
-3.492877784494045,-1.2270474367191768,-3.184790779718509,-2.381801431233804,-5.69440884212082,3.506620120274544
-0.7354812912429249,-6.263750049354167,0.8980367605651693,-1.8366200237046248,5.88383458748557,25.44371492163389
-3.790017065108912,-2.1140935557865568,-0.5163655408858112,-1.8192169345976512,-1.5370458329170278,-11.297612804785029
-7.423863941879763,-9.447657044847077,3.0170282572504403,1.8254811238482815,-1.5432594960123103,-7.228856977760252
-1.9600324174374895,-2.258486121929602,1.1942193961445091,-4.408233586813314,1.4759783418068242,0.8770354926080911
-2.472975773680765,-6.423507392175874,-3.565659731919883,-10.169036026691964,1.3519062258489392,-2.1070419121823707
-10.014061084364144,-47.350965053646746,-1.9266111138541242,-20.851850275807134,3.932104525966578,-0.5720766290241768
4.027929434075705,18.379550111320007,6.02683109580164,20.69779433273041,-5.722377960189643,-2.9076631981930205
4.364723571286884,-2.5954627791921543,-1.2904844314616002,0.2951640929571395,-3.960983579975636,0.5795540355495397
0.5154195634272205,2.5058368747757696,-3.428095401623744,0.15992770462004025,-4.710162695052692,-2.3211157378002447
1.2089325719333814,0.31387553450833394,1.6145571006938153,4.94174906233089,-6.855268100816351,-4.468429741412141
-1.8613097604846336,-4.1292875708548165,-0.4350105499385104,-2.7244097927948974,-22.09130361222048,-12.899577298439706
-2.939509009537554,0.12814998282281387,1.0934942845609519,4.83709011784781,17.05530527937985,7.809532758966144
5.088644426643453,-0.5274941094532872,-2.6628916081946867,-0.6928354498726822,0.27394951324613115,2.72116636719258
1.2913055835609792,1.8759947846127925,2.4829790456498606,10.26421321443181,-3.207333072116565,0.6372772424518311
2.947341191425472,8.986792968462266,10.497890077897225,13.424771271819395,2.5429246198315445,0.5365338423877404
3.1322033158527125,-5.16539406867923,6.505705462197549,-0.5712987782187544,-2.5450949387593482,-0.4473748013230081
-4.9290991990476565,-1.0101662942397298,-13.092646531450304,-9.656323558498944,7.255367235083838,2.259555331154115
-0.5712168493933696,4.15207080791786,4.584149066262943,4.0021578692533515,2.0026563356080738,-1.4614814738038047
-2.1680895994806124,3.253576429841908,0.4895346716231552,2.8281561147010823,6.1751909038102575,0.34976888522013005
-9.844776669026611,0.4433725328132012,-5.503229629027145,-3.059730148497045,9.750145188066462,0.5083500214925666
-4.721860684720555,0.30757426442701324,2.7915835393377,2.3749626204280787,10.622254293059367,5.159888341469539
11.293047399356352,-3.5942650928259328,-2.046640648805057,-2.8817796105828304,-20.051081087779636,1.2934276780607803
-2.553780484664596,-0.5119084920933172,-1.6956010271991162,-3.844053939352711,-0.15543738648388583,-0.05450073900139962
-1.7672557721633804,0.969870225969991,-5.188988391926964,-2.933150494887152,3.663440469271727,-1.083673390343672
-1.0415780533807346,-3.189282433449598,-4.50754791943006,-1.4265198628568712,-2.858136930902912,2.652701121374433
-3.6971941380508158,10.09843744371691,-7.455800775708427,10.783635500111895,0.10096355160358073,0.2940938483439812
4.245626421927303,-4.7654023754425,7.5159771955182055,-1.5104571189075682,-5.209304475624087,-0.6068263126422431
3.2633105022857896,-2.856516519680321,2.036907044978621,-2.8612266639744552,-3.3510111735240553,2.172524383996711
1.2719462303518196,-3.807167015101123,2.4693321512513235,-4.014493190255451,-3.394551103818299,2.5199189585294386
3.9338775659884315,-4.605349835009859,2.2053107706614674,0.3793871690658255,-5.073846356030455,2.9032920138216065
8.649994376969602,-2.4276140977466656,-0.8544781176923419,-1.2224405616623175,-2.321305016393773,2.362742112128873
-6.279844002935021,3.3820218783947387,0.6150634282746452,-0.7986976014260188,8.82511096127498,-8.433302355940008
-0.5332262305116428,0.5332914523688321,-0.866269409044608,2.125177240553116,0.3121875419365483,-1.0246149347669204
3.0871126013115413,-1.1280520969119605,4.615296397962232,2.173478102454952,-2.39944461732972,0.048955578028212265
-1.0403635787477867,-0.9773111680587045,3.0374803772113776,2.87112327635283,1.1987877122604402,-2.1208916999904712
1.2075826287568039,-3.740839036430536,1.5630706173066466,-2.3875631019248544,-0.5207064073331871,0.5833784006707212
-0.1283687055653216,6.449396118327763,-5.371325214015399,-0.7974878721776653,3.775042260331145,0.5735115126967812
0.24776794557859505,1.8235360414048456,-1.2723020153086733,1.6005316615829877,3.5182941807480455,-0.630388702995377
-1.0947912598433152,-0.4255250183632575,-0.7052802489029123,-0.020516281007839865,5.034970507620751,-2.593807248971587
2.9866807033687905,0.7802953929024161,-1.2915029681971701,-1.024514946060039,0.776033519709054,-0.43173102435307986
4.17221399261757,-1.3747092755543264,-0.7873896333068264,-0.16837479074452966,3.254009053188911,0.2664531198727962
-9.684523126988513,-4.262122219272084,0.6310445963018536,1.8851180677891954,-7.621547490953187,5.165335679646158
2.975733421792486,0.07434640804775139,-1.3314883416824381,-1.485592301421079,-2.4580937306878354,-1.4757120667374777
-0.10492510539163513,-0.2759242846337573,-0.6003043669715249,-1.7952185481432898,-1.146637196841077,0.0020222211940901236
-2.5243133749959195,0.2437933961721307,-2.5213458449382786,0.06585430609231457,-1.332075890293082,0.8598850138612202
-2.2956046715228413,-0.291443988141316,-1.263011724434541,1.3053108510076892,1.1178681930518128,-0.9680116649489285
3.0511051921053145,-5.060906739655928,3.5020740489243596,-1.3646941105158534,-0.2646241758845487,-0.9966616775264462
-0.5325953946886837,-1.8908406246263234,0.6389298487000005,-1.3322662032222432,-2.4748579120253935,0.4610854663523707
2.7099011293315223,2.0138529453018283,-0.12354771414494164,0.8768926503340153,-2.564434206182689,1.2411149197681417
-0.7689734975375323,0.1450292534341311,1.335198683307753,-0.11954601346299076,0.7040471109727273,-1.2086614656048955
1.1681375442156279,1.7957324904574286,-2.290573612747977,0.8886078521687542,-0.45715579829311936,-3.41198175116281
0.3043718098871093,-3.0801738154654665,-1.5559565156376127,-0.8280050872896791,1.4829679010980952,-0.8637185965789437
-4.0701142155687835,-1.0964383217695777,-0.5412138896173292,1.2117809412197942,1.6782782852032128,0.7913003048197395
-3.653544770530136,-1.0813530572581453,0.8078156035444253,-0.10851776236798177,1.0096029375843916,0.2262813136575308
0.6666958155370213,-0.46886432233773556,-0.44744538238661025,-0.7807645556165536,-0.13242647877421027,-1.4426527912220983
0.7001164800473526,0.7719483620171026,-1.651463103889557,-0.9150688938889082,-0.07558058321418382,0.6999411679504766
6.2413569923174785,3.6358334826168592,-3.0100047837554302,3.3078950525127873,-1.5501544671181324,0.17820434093723592
-0.46081582370976204,1.229359677575478,0.7510597497962525,-0.2742749061792965,0.33378500307101144,-0.5682111601199774
-0.4467656964953364,-1.8602099460906953,-0.070923049734271,-0.6206459970979833,-0.15766758592032493,-1.1370051639588155
1.4252296609304356,0.6838871943712908,-1.4733137111548278,0.4099251126491784,-0.878651839444054,0.45742109868500824
-5.35540844541598,-0.5903530094733032,2.0431406050783187,-0.16524595426791333,-0.41912603324404435,2.6180221572909055
6.918244978626192,2.865673787180238,-0.7666257406084784,0.5440079710631387,0.8569243654002126,-0.34494119471097817
1.4755003923000611,-2.0064371346260943,1.221901489849871,-1.5345077433689513,-0.8469730767281591,-0.26904194713357854
3.1094234864827253,0.7444613438127471,-1.0028804131547981,0.6151318704799916,-1.3656802093313154,-0.37304254583578317
-0.30268780250034233,0.03873339423897415,0.7209340535712747,0.4640372292601225,0.18024082022965332,0.96959258649556
-3.0397883463669197,-1.4503737365316827,2.671790328574348,-0.4361425831293416,0.4197160762641357,-0.46670022913872605
-6.728092745187678,-3.2187261573843755,1.1527517368025482,-1.0259664021637764,2.983537102376645,-0.4828255929909137
2.0555281749381495,0.2157874862474462,-1.1107065320549325,0.30829283610605707,-0.6241040768377477,0.1995923202543628
3.4510308487350545,-0.13324661122632775,-0.8935086514768018,0.3306947231070444,-1.044963575143346,0.3434082676360162
-3.5276680737485595,-0.9111497144840919,0.3581925159371303,-0.4382771606375432,1.1846182597430592,-0.7312942582450508
3.099473426792927,0.41969878539698413,-1.2800709171867939,-0.20899420385134448,0.1617763639052221,-1.6674094505971648
-8.54187549501441,-3.0022594614523888,1.8304457260703861,-1.6588179591922307,-0.4895389375560757,-0.02553387750437197
-1.1094365652401683,1.099417693406828,-1.838128126685477,1.0893023736009106,0.3758786661631258,0.535830447235188
-2.120616938748875,0.3538530506425562,0.20383669131304571,0.12568627305913094,1.0909412947025114,-0.08311585668360058
3.4695491262688307,-0.6320969705760184,-0.13790719130748375,-0.30734277738919563,-1.2035948244928374,-0.6027608192873026
3.3141930095779664,1.2150211944069647,-1.0023727082646605,0.7052171348791638,-2.2520848438372525,0.6928215352165362
0.8402083751004096,1.3622775709686465,-1.1824257125397357,-0.49527670205869234,-1.0574491750939337,-0.3095960651053419
-1.6406731961782963,-1.5541448071600417,-0.0399969361022704,-0.12798100321222022,1.0081028494176594,-0.5239316217965864
-1.2907095338884198,0.09298065086046214,0.30089878174432083,0.12406191927799581,0.18992080342596718,-0.04475735238955164
1.395577920595656,0.06781675765730344,-0.0010743451743052135,0.6684012120795224,-1.396610733163273,0.30042696813973535
-1.2116357445557517,-0.3707490046691062,0.10262718035365025,0.22372728484898394,-0.4480036455339992,0.16510626436866815
3.7981965483230473,0.5392060400874965,-0.8815187232318005,0.45278658649474024,0.07357826536765122,0.07295753385410808
2.2459821253116488,-0.8055085130019899,1.1924747913687972,-0.6170680663452708,-0.5591420117931458,-0.40361427139786865
-0.528586160107771,-0.8332947694405928,0.5889555186148382,-0.2989909051141949,-0.4740172268082411,-0.36620105594323654
-3.6057183156020076,-1.09447397244276,0.10498552456726257,-0.404551764449493,1.3582088454261079,0.03322170619115744
-1.4174538197456108,-0.12272971391980633,-0.5269721452076102,-0.5433948288808139,1.453616847095743,-0.8152337512602064
0.7458061666814302,-0.0484116742218178,0.4635111968599668,0.36956509283198624,-0.6334342845035635,0.48918595861321335
1.0058026463307823,-0.24178905589756616,0.6741107064381691,-0.1548041241614031,-1.144457481235297,0.23768775772035833
-0.6625445824847109,-0.3757907987952562,-1.0611951889334776,-0.14370138674326804,0.035252189591371774,0.6172795988451862
-0.014778737722693502,-0.3973711701599196,0.19656383092240676,-0.2719365309572233,0.8591405704154971,-0.49769986059422877
0.5728844345604746,0.33353707784881714,0.18784673234366633,-0.0775508018583263,0.2744320582217847,-0.47761644404274345
-0.720599642627983,0.3530406086526222,0.8281265368700941,-0.08149394620034306,0.20511437978476665,-0.5971650970815899
-2.1519166356669666,-0.6713056682710352,-0.5419774964967805,0.13497262526432058,0.03379775727701839,0.14935120548598163
1.8450497751135133,0.11269019642210226,-0.2500103586428045,-0.15116201621950265,-0.4410426713505102,0.3890361657472445
3.031061642638274,-0.859076645196519,0.31863913311148195,0.08580603806161646,-2.016815979924461,0.8276961907457494
1.0263875920467571,0.17033741389512014,0.6540524190455081,0.37465585458595396,-1.1608546614843211,-0.022290125916566733
0.5213836641558871,0.03379850283460012,0.5871020479390492,-0.06799471023161588,0.12438919918199676,0.003545262751695949
-1.294959462271926,-0.8228379333610928,-1.0326800834227636,-0.20941078979340177,0.9566892204398965,-0.3300775547629764
-0.32351230415930887,-0.04546869702295295,-0.19880750252259807,0.24878075959073745,-0.2824406545429276,-0.4483050575078681
0.2733892018364451,-1.1511539810969502,0.18879067181451603,0.10884038215155542,-0.5373887034669954,0.03895001889822794
-1.6159493274126238,-1.3662605450512628,0.24113002929962796,-0.35644872224843804,-0.025942125418092377,0.024481644975483496
-0.05720916672827636,-0.03287126918350225,-0.44480224594838735,-0.2419605290802667,-0.141268168828604,-0.20439845697101272
2.0294263769655863,0.3631367590517114,0.573551921790725,-0.15397966428168525,-0.5080047172607443,0.41066330818884533
-0.9723579709748488,-0.1916097640206263,0.3463799258200943,-0.07916142133299572,0.20418354364819516,-0.2507365914766531
-2.7841967158427607,0.22928047862094486,0.24183503606203807,0.05017847112865012,1.6511088110467085,-1.4503751313659063
-0.2728395673697381,-1.2462104683023427,-0.7706805154718378,-0.13597446366208854,0.16825697228204656,-0.1711428361332152
0.47057339868416537,-0.013340324028569078,-0.6467262515072252,0.042122214990152895,-0.6982750014355723,-0.014320260865978263
-0.3614341361652952,-0.37249292142892837,0.4126380779607837,0.16165142672435595,-0.5335847199600093,0.20673685791173765
0.677589083658334,-0.032183936109709155,-0.29986963114271,-0.4636290665656851,-0.11524316745242413,-0.10970479207674688
-0.9911150825998274,0.09617180206599996,0.4053190800457014,-0.4055438614825306,0.5518032053476152,0.31830259774973413
1.523504283501183,0.7101136317220711,-0.22581775467596965,0.054357627247312766,0.029841565863312325,-0.10453941194689509
-2.269869677736659,-0.3250774833822436,-0.15473455017373738,0.027811413202180446,0.1514725581418267,-0.28324680834939014
