Gx,Gy,Gz,Ax,Ay,Az
-16.806339,-12.001312,-6.241190999999999,-23.253999999999998,-641.198,107.464
4.045951275335378,-7.997470690184837,0.945727303172418,-3.1391672766990553,-0.41457322050543444,3.261667388095476
4.772155683030565,-13.219449666797974,1.0437253678747604,-4.271086435762229,-0.7742797424949106,-0.26256480051934683
-8.451973352298367,-6.931276157173671,-4.329517118637597,0.4116766989651675,-1.0740162071207797,-0.6575180716980779
-0.583606451608758,-4.177476918794227,-4.983321810380824,-5.355122377413425,-2.234664583259588,1.6859096495880488
10.794121642176501,119.8090343207179,9.233307413100562,29.424997330943754,-4.5320048695751645,3.355147428838786
-8.557227996445555,-15.579004900890443,5.847498259283638,-2.087471264081004,-0.6569923732174171,0.17237034049262556
-6.267315124275134,-9.722600740210916,-2.3104769335858477,-0.005500320130230829,-2.2370276476153443,0.29141550607713623
8.279988548182855,14.85528857911147,-0.7082459030951129,0.29838388854677467,-4.304850788049831,-1.9388427249671192
-10.983099022282794,13.03969144444589,-0.7539765038577599,-3.6678471528689585,-7.732846767207793,-5.021676671687796
45.42503284732995,3.38987754533067,-4.545276060376224,-0.16094077584829858,43.5194356188053,11.228322609501728
-6.969893182480204,-0.4562989019803326,0.8958370637941053,1.185379039905281,5.998912890808563,-8.322789927331149
-9.425167075279951,-19.877027757979704,1.7584614211301575,-4.264591000138811,1.8076408914021511,-4.588252205836357
0.04423279375955491,12.732725652078642,5.231808395430611,-1.795412789745038,-2.7361614744283576,2.3900043681239143
3.0526935185381356,21.981469424526516,15.336830483633449,-1.6927945423415025,1.505021531777674,-1.7772019712140912
-2.0223541363688957,-17.64696342408958,-48.686936298732775,11.18972134315036,10.720501304665252,-4.7070614360117204
-5.214293537478457,7.544610778459896,9.78436663770173,0.1918160745681246,-0.36438468873404833,-3.134603172678246
-4.292419488147701,7.650901226027068,-0.6144616770787359,2.3011535760201136,2.085263529719119,-0.4307077193238571
1.6535566178064345,7.283548013499514,8.673975388496588,1.958258488891886,7.45089774438754,1.5887279493827364
3.490315486158976,13.513967367776685,8.887082394055355,2.6566820192805887,6.523968112754833,1.5311774242637353
-14.214586836844791,10.680512940638959,2.699185565883535,6.287339837418834,-16.911234163735948,-10.398489015916704
4.594373144540272,19.263365606544717,2.3688467777018944,2.1096876551458705,-6.420031731892531,5.382844802816518
1.8796836452094592,16.061142934870077,5.8263212390848755,9.036652043799148,-1.4360561586220923,0.5105554687975153
-5.943870792508902,3.4828678638108324,-2.175822325297289,5.015988601444853,1.4619321222084787,-2.084909017742238
-9.819211716537465,-12.095202223104291,1.419542756147438,-4.0703505986317605,-2.2811162097798854,-1.098475481314066
7.3172283772873055,-2.330260485573888,13.212485470272515,-9.523414046248273,-1.5030677892584103,9.032553452320913
-9.403705078965892,-5.8930782327998825,1.8636662808282816,-1.7577510680980937,-0.19173738304550647,3.7296031197607387
-4.572463325274153,7.563278313313708,-6.416463030414878,2.2451584062263015,-8.914760030655751,1.5947954122733192
-6.332923355436003,-9.087854730793284,2.4953100300627313,4.220692986451111,-3.840303594021523,-1.122496938224731
7.224649982502238,-6.165722765498842,-2.6217049156246173,-3.2523102193401754,0.6279478352406757,-2.9569549115799316
-2.8317307414630637,14.118168326360504,4.081118587719648,3.499911637643822,7.081893643188627,10.375391026611513
9.45382867919425,-7.030788905308542,-10.306637492623466,-7.937717335189273,4.413944837489512,-5.92875424551182
4.882214549678351,2.2870759684779993,-9.395372648771191,-8.098271163192202,5.604664367365781,2.5298986627370956
-1.7957389187438277,-2.9171056055518365,9.020856292931404,0.06598333784217557,-2.532035607004812,-0.5413131252585576
4.000354314572148,-0.11716580474520233,1.7326063778782816,6.079862408863176,-0.4222832244076493,-2.6545040748869857
-8.977002822966073,-7.941002828430617,-8.560183654437385,-8.301671452301779,-0.9587866581167325,-4.8790778200268035
-1.777236511029393,-1.9838345157461763,4.2716575846183575,9.422325117883194,3.1330570859175535,-5.060393329402408
-2.992867066315896,-2.8107209427157933,2.9359253836526538,2.691093543416884,7.67596860612041,-0.5089567096701666
1.7554045867845183,2.161155383249982,2.34487462511448,-2.1137883182722894,0.3038266523323579,-0.8137979303442446
-6.825283904961146,6.516366903971947,4.196418029934743,1.973903597086871,-3.3433644977369195,-0.05134240649014715
14.67403822893129,-0.8181169649596898,-3.5043940787176444,-5.275130146415691,8.723815014847276,-6.4122464913127
-4.542169272015633,-5.176915962011407,10.357352509918837,3.4325219942378515,-9.75179667500423,5.476380281463269
-4.726051688157755,-8.037338867103331,3.7597920354670613,1.4752888112487472,-4.342405180399057,-0.8909260770256626
-2.6852166397789157,-4.958959038086625,-5.9645611863878845,-1.8510909040216033,5.561012475475726,-0.24763227517347874
-4.512879238245789,9.74343529966438,10.251799380605394,0.6917461183478186,-4.905354018025174,-0.4938624686756198
-5.711173308463873,-7.5289441928262795,6.729888109381809,-5.442195668550912,5.67685904638588,1.213717768397248
12.812980360503548,17.635384697216097,8.905371631095857,2.9582629778172636,-10.94446659707716,4.216267602581928
2.672247219353691,2.745514548872803,-1.8699079966355963,0.8445383585986893,0.5246569389923996,0.22271017447385744
3.7261021088765416,-1.357161613723905,-7.797123630853936,-5.60526604173159,3.922538815846997,-0.38555082217440295
-1.6258564799744912,0.9728317992665872,-1.8558539328839152,-1.9303219722221572,1.00589558450774,-0.032653511934720714
9.583900671308179,-0.9147167772402753,-1.8214457683741474,0.5337493802268745,-14.22529595983631,7.186061318261591
-10.609721964145438,-4.459663748622861,4.2437459288368355,3.6540777023220197,8.929740484163347,-1.8530631437942646
-3.8614051873557265,0.9447093543814575,3.8108480118800827,2.272940121844104,0.9572221317606991,-1.6703751640278117
7.49491647030127,2.9301232881077994,2.8801188095993853,-3.486164294478291,0.21339335599876896,-0.13759080115935096
-3.355818318478863,-1.5156145833540098,-3.7529525186494954,0.029221481275839345,3.6103069400782863,1.1264485818141372
-3.0890584787657267,3.657074164040952,-1.8043071895533673,13.453260245744916,-4.367196398462514,-1.717854213657739
-4.7732784739772445,-10.690335833372082,-13.528926788072324,-8.489553207010214,7.136579360391915,-0.9574087025139302
0.4168979259658059,-4.835470764873216,-1.2603560511452268,-0.11682061217372208,-0.7831414281437674,1.6966416919700937
-4.14337019694868,3.714023423764795,7.121693064679928,-1.4099943364145773,-2.3144705326287807,2.9360576106185574
-8.120088066974496,2.2664617190056386,-4.455925930242207,-1.5165949783911314,-4.58445663668652,-1.0844488952891762
-2.4178948293414866,0.8488783891235528,5.060783488625994,0.5324461226890558,7.0325323370174155,-4.371260573477202
10.99942633261941,-1.9672032171256553,-3.5812840049607466,-0.09341249325465428,-0.659374485901784,1.252366751747251
-2.2368054348997957,1.1825707035033854,-4.0782489939221005,0.6997946550599654,-8.373693794777267,1.1864761097972172
-9.173897352642843,0.47476392382171184,-0.7252523420015371,-0.23385474575949505,-5.031448680954027,1.6046519911626738
7.4282374919007195,-0.420568601832194,4.438909073363604,4.3318826126135495,0.24836570477374342,-0.9367627457812074
2.567503311403299,-0.3509734315123556,-0.25913638777253156,-6.443819949757816,8.695886886176536,-0.3184715585347916
3.03042952222634,5.165622542722497,9.50254261878235,3.3048494721960573,-3.4091298548639677,2.483319972069843
4.89285743113885,3.3187133309655588,1.8429751647523442,3.049551499813666,-4.56176595022869,1.0677949731961531
1.2859816553354488,-3.037858987754797,-2.2560158687052403,3.369806697967291,-0.6806060139810586,-2.820615998650212
0.3881810969259183,-1.0411432640258336,4.484564045036709,1.158098982091326,3.9889254013569095,-1.5620944086477582
5.839334719887328,-2.154781291290571,-7.782681359284573,-3.6817537266903106,-3.1871932494934763,3.951635435393989
-8.192438600879889,3.145925751211482,3.7422945062586797,3.708281705409822,-4.094023093147085,0.14975489250189233
-1.176837788533088,0.4769183091264386,4.188419419816875,-0.07875197007501189,3.919138146108883,-1.9886333436041075
5.020311470350936,1.8715149115742804,3.1648762288235437,-0.42129593421730505,7.486135682296227,-4.340789169946005
-0.11060214969875726,1.297130219742185,-1.8451336191488943,-1.5822017507331303,-1.8876883995232911,1.2189750289689858
4.13873288213839,2.6046887178694775,1.5719886494650368,2.294530689760215,-1.2602959805508989,2.4173476147337443
-2.10703381140003,-2.7434534807315822,-1.9825818894272398,-0.2166680321740153,0.4929142644029997,-1.8098878613509903
-1.6125044230172327,-2.024067964429916,-2.7694653888802927,-4.464832696354344,1.7198446313386975,-0.6533938844973837
1.756137433077222,0.09278644380963408,-1.4144781015442665,-4.0003428945268364,2.7726771553623926,1.520577210653487
2.8706354360018893,-0.4358746089217609,-1.8929456410727459,0.8215596055957445,-1.533505471417643,0.7472231872764299
-9.626917019084921,4.9970043398321575,3.610424909134261,2.2454297244015224,-0.4008183258569815,-1.5094326829943512
3.4950505156645932,-0.9163167360529119,0.11996972812693785,-1.4010650174945685,1.3637319901148917,-1.3060647669874248
4.46276909928044,-0.17082069002355382,-0.9524646405687576,-1.0850807172064698,-0.09518450139050083,1.321162891992663
-1.3060418431129892,-0.6141440017134201,-3.7400094132406965,-0.5547957867534214,-3.8155775849142803,2.564337565004754
-0.20988813900503356,-0.30960858281838055,0.07866692134276843,0.959031619633669,0.08113862960734708,-0.8947884651244662
-9.142427078305584,-2.9525938357767303,0.1311201561081079,-1.3692679958641911,-0.008955022711170324,-1.6873435187197816
0.39646915129529825,-0.6436249228698698,-0.905446916139567,-1.6175827157884384,-0.026711208285311372,0.7508684488509236
-0.5871513519960885,1.559984649066442,0.6739079227135334,2.1485573363998793,-1.9662047964165401,0.10577668611478375
-3.034695879616851,1.744358471670326,1.9682705546924608,3.3240099140547117,-2.874778933658511,-0.15420072864638512
-5.841581796336467,0.3306116175416447,-0.542136679854444,0.4738752473145992,1.2184580504678486,-0.6644456367380164
4.110309779873796,-2.812767189830639,-0.650256972061267,-1.5250885313229854,0.5675305938137503,-0.5975906372947778
-0.22892245567231984,0.6358140684961568,-0.36304888242426403,0.6831486672044421,-2.5570562505516907,2.408245816618468
-1.933239773497316,0.9349788174009126,0.31910787353955583,0.23575542771711389,0.9115856420579059,-0.2728976166451227
-2.7457681520091852,2.4042589850074725,2.220553816339958,1.65443534607577,1.5260594331585475,-1.5640536757371732
-0.30985774362161367,-1.8143429896139387,-0.1962802879540354,-0.7678494973679806,-0.4614196526042218,-0.8736101818427648
8.559436800464765,1.0423002273787108,-0.7571857398168613,-0.38877616614942756,-0.7965785276922893,1.3821169392389656
1.5983978798987262,1.2133800607475762,0.37519673898267003,1.9932585230044237,-1.4569751704899137,-0.011991231365988009
-0.5627778165054664,0.4682042753449909,-0.09685098198622422,-0.7606869722707681,0.429671744045127,-0.3779714656477533
-1.7810150855781428,-0.7624434485984981,-0.05934253391134514,-2.7762462556930387,3.180345898914469,-0.7295560467254951
5.026774128933356,-0.07415705482362833,0.3758274593414943,-0.08869566483792801,-0.7886645695234504,0.6010223524602095
0.5783320736919708,2.7310413165089447,0.929601614593097,1.2049808962679882,0.006389966924291723,1.0639316687076281
-1.7864976099866996,0.3343712295955603,0.8407215096621639,0.17313735021720078,0.6989707640795704,-1.5248748380126647
0.7057194283386581,1.1367366743263487,0.720536640194829,0.3997257084421281,-0.48678769065888067,0.6397489368176645
3.490800378205848,-2.2963124735641602,-1.2250871197989075,-1.6210988659546337,-1.4058606571273922,0.9663622442416844
0.9800379415413509,0.9758738795330855,0.6955713383187366,0.8772875700504434,-0.4714630068604837,0.8968616755868042
-3.589675493185081,-0.14376309505213092,0.17440385896332233,0.9488332700439037,0.40578268101101356,-0.22374815478429277
-2.162008449561914,0.5636067429483145,0.209558514768738,-1.2683270848176287,1.5320665872648465,-1.1516837442487504
-1.5442380792252495,0.6954485296701876,1.1355840246581939,0.5693199789762995,0.07541044213279102,-0.11270920082896474
3.276321735739031,2.0425297885603593,1.0951612324136362,2.8280820213106415,-1.7078498967103526,0.14887698951585193
-2.905447667059492,-0.027791715427967212,0.11815337211813448,0.6691166065842667,-0.3822572428964137,-0.43102426049728354
0.33579884236826274,-1.0220896111692366,0.15620190548432733,-0.08043817448881674,-0.39623889888070396,-0.6731039792586221
1.0116629198281446,0.5777108185726156,-0.41523307419498556,-0.5413643225937426,0.43574334741426435,0.9028300068187772
-0.46128602263671836,-0.00951319310995169,0.0527907624684949,-0.38767900662771987,-0.7748168114367566,0.002165154347913978
-2.5073118144296997,1.0641883169654713,1.433784611863322,1.2543428283193236,0.546405434557562,-0.3635665469803846
-2.4780663803191394,-1.0501487107887426,-0.7058067348560524,0.1320718702701762,1.9650897998630432,-1.1281257269575276
1.874995189673542,0.8226715996114375,0.9314449025490372,-1.370165736995863,-0.4137226535845989,-0.35822459163362796
1.8387038566255802,0.6281101622717795,0.008596696136198734,0.3992758592660881,-1.1276417541542583,0.7085625461632532
0.251299335391332,0.024966710042997775,-0.07934987522845754,0.9351362041931364,-0.5129313174806869,0.514090994133034
-2.8028447439790938,-2.080499568820463,-1.222395983986444,-2.3150526372583236,0.8604814726954633,-0.4933664013863788
1.545041735709582,0.004691492615263471,-0.2821840857285847,-1.1630046555782139,0.8964893517167387,-0.24363394532928973
-0.25432440856992855,0.7578741458560154,-0.41542141853003134,-0.37487906174361624,-0.08130892006404,0.5923024389469526
-0.3328642097992831,-0.1911421628854395,1.0238418024726486,0.8042151954765939,-0.9526894949981921,-0.12515812196520332
-0.45923860148410345,0.2842418816830161,-0.01598168003789957,0.23546286018976592,1.2508113085061505,-0.6228877149567371
1.162540426588742,-0.8188607985941587,-0.5451447375363725,-1.0909144783717952,0.140332083416149,-0.14514932568268257
1.282241988526819,0.5573532108006157,0.8929533520606245,-0.7033079929127175,-1.1361894780774007,1.3440728075752735
-0.18127662362786667,-0.4248866362003252,-0.11073843118490312,0.9001333787603292,-0.42336095153355724,0.25725928130008774
-1.8031777121841153,-0.3878657094540001,0.10481987479030591,-0.06624464910048111,-0.11775749215173287,0.013440075656367734
0.3581893023472613,0.32562901680142975,-0.1639005434758845,-0.2674063352432381,0.15342894546894367,-0.7501021909657872
2.2374843432374503,1.7690511558988344,0.660336411296766,1.0490088637561925,-0.6369036188162625,0.6005429390412189
-1.1802830728614162,0.7387991250414159,0.6991312680696746,0.5903190824490943,-1.4755957449407962,-0.06848725157008206
-1.8623832994908822,0.11470286916447942,0.49352588010693205,0.8395690407619684,0.45731349571474467,-1.4310272270761335
-0.17432333182843796,0.6642863533684893,-0.6471073312238325,-0.7092571067153457,0.9467140829444168,-0.2653049596873776
1.2930911085770536,0.872381215312863,0.06517721027664786,-0.6222008874555984,-1.0645609505340121,0.5251748468866422
1.198691643880445,0.6185622447941355,1.0084972287700165,0.5195274324486829,-1.1953126114539072,0.9724281294777395
-0.8892417826392336,0.4032485943276936,0.19015770030199827,0.9564904909973933,0.19883730052434,-0.7980234414125104
-0.6882354534712317,0.36232223340644465,-0.15608147849558707,-0.33993805482089784,0.481798595636187,-0.5775174302758914
1.467759111684018,1.1960904393662788,0.45204063532265626,-0.011771319486125753,-0.18193370055334282,-0.18533677984969715
0.3500127013417267,0.2921813934872447,0.453071915173812,-0.09351397630821057,-0.27976884075413966,0.4614956741246317
-1.4499558673042627,-0.331747184415248,-0.49866766236908205,-0.6185846805243471,0.10722952124764445,-0.7339670202413753
0.2594463813380076,0.32101970204974956,0.2790116041263516,-0.39338884720613876,0.980659087894866,-0.34058987103227634
0.5235685053880103,0.7497085365463994,-0.3754426863097324,-1.2388210268757724,0.22204787828721062,0.6277431339395334
0.47361210255406405,0.3981001569268824,0.6169813408644194,0.3233516103381473,-0.35633037068342027,0.6109684531396757
-1.1314986650173904,-0.19743598641660948,0.23791115128943507,0.31940736346177867,0.4100067589544816,-0.06689468947768096
-0.7083489643747003,-0.12270171270479158,0.2985657383028928,-0.02381037293042909,0.817028436909313,-1.0984830802235803
1.2782097889772546,0.5195454571518421,-0.11652405379425755,-0.8610839632261931,0.5938150074269931,0.1930434524791283
0.5104512390853375,1.037056990466217,-0.30656025057623953,-0.3302542895619508,-0.4848061693170717,0.7846801192856107
-1.1844341335163509,-0.39904429123631646,-0.2828504130713091,-0.2110847942389923,-0.4987790147382349,-0.09983539069207925
-1.360438844725964,0.6394666960656044,0.050071532969611296,-0.01877703505494266,0.4920865457232494,-0.8651064938906374
1.2989323118889895,0.634556562450241,0.44783582600273036,0.17447801971652144,0.13192617914601956,0.30555408773801057
0.17879268259413328,0.14718147758165578,-0.08166451601912439,0.06234225977144947,-0.5286032075653566,0.2511740774597085
-0.5987848417490056,0.08500457098790778,0.7503667819074848,0.8769236353715553,-0.45050734498276657,-0.29103834784523064
-1.135087533557685,0.22365858739002115,-0.04816330897762122,-0.2768236391711647,-0.12097320026661557,-0.22620428240389
0.5707368200012755,0.43901828794002296,0.3555309701957899,0.1613640208610525,-0.012819302735352839,-0.21445536493722234
0.8880207973602716,0.21181100043135914,0.3763772031774695,-0.6837558771079837,-0.6425317879190473,0.5124258519959606
-0.7426481361956573,0.8756196253398196,0.36051985122564023,0.1977454975424521,-0.7466424806458019,0.0800110861747218
-0.884216097234859,-0.6133915973047881,-0.04273454482225969,0.9987000168089207,-0.05075039511628854,-0.5869005754374796
-0.4219954952693309,0.3250238886146788,0.7445197361916956,-0.21968323071253748,0.49914990262234576,-0.2187651495832182
1.9115650748988633,0.19224221044029055,0.6094423595323388,-0.23137296574335695,-0.36251271850118816,0.6414789507426206
-0.6394241408378372,0.17280595370250273,-0.28238351193970224,0.36750995154856314,-0.514991105708446,0.12092230133187554
-1.5652752804560623,0.6685114375209346,-0.5848488452086924,-0.09494895259410002,0.39908410559414825,-0.3754001820413083
