Gx,Gy,Gz,Ax,Ay,Az
-8.851219,-2.4033609999999985,-5.377227,-28.181999999999995,-419.518,67.54599999999999
2.873825968893578,4.925640565453424,-1.2057746482200828,-0.9862673395235984,0.1837056015327033,-2.2662788110062277
-0.9859468024422808,5.367910650544207,-0.452696193832123,-0.36801041902393256,1.8624114751867396,3.5415516212040967
8.655647336915456,-2.1316274512547793,0.0008724008677649386,0.2608239061483277,0.2804438039807928,0.5782761353656731
-8.370882560507004,-0.4848673080730548,3.206343592966884,-0.7969589152229533,0.45672678775432246,0.9225595022385149
10.288067633497947,5.199385349821189,2.6739991549092865,-1.1009903421980844,0.8346384864572559,-0.46751579620365524
-2.318139520633411,-4.281821397354422,-1.67806309534324,-0.04940283425528419,-1.8981072390697589,-0.2497119682723896
-6.633259629233438,3.540927169843329,-1.878388505373608,0.6874371907070542,4.037816004617661,-1.846491046022885
-53.148754439268934,35.225503114437906,-1.1019527736562658,0.2859497305062426,67.71174950749068,-25.455139824094744
8.531332288598739,0.4536672166359468,2.6605436589379883,3.7940368107996942,-8.011965952756958,2.7710962991524295
6.7011699810533045,5.977021659893021,-1.7251881901389172,-1.0780235704272292,0.6174272910320857,-0.28658363654129415
1.285103284138387,-0.7788940837983604,3.1692403476548243,-3.5515624193778574,-0.6805908788532355,-0.6831576957483697
-2.5020089200978566,-64.96825038074152,12.966039451058762,-34.73933170989469,2.3243067797286745,0.43571055448298845
6.823554220690025,3.539842890404445,3.821557077372309,8.27562745717005,-0.9137322667272954,1.5445255782615108
2.011621282398243,-6.903023137096715,2.928507501227694,-1.7621905009301788,-2.532910308983124,-1.3554329819592126
-1.3330788159305251,-1.6287567988909761,0.8987144515464283,1.1174988664614598,1.0034685642309604,2.9953781894280866
1.4792596547960986,-5.81738545594391,5.378538331391523,4.409617648051182,23.1156816178219,21.609723108555855
-1.7799073499267586,7.044934528042642,1.3401976306559709,2.5941622290516158,-7.251612210515158,-4.504160692016618
4.046664064303086,2.122011064755775,2.717699935995644,3.2507467723292875,0.1903055604652124,3.282315340462369
-1.4043733145785846,1.7456374360586104,-8.821873574388492,5.374378027973831,-1.6391320536693597,-0.2062082752008061
-1.1763274158979473,-10.473014222254472,-29.88785607723168,7.761072502681761,-3.8961283203898516,-3.7490551237197334
-3.898194817236821,3.2843045732981766,6.164841090256278,-4.0129702631216,1.3712530650597214,0.5917446997759956
2.4845354314124233,3.5384329077316568,0.09449270340350721,-1.8243961424994013,-2.328146665759856,0.4342141966158164
-3.297368241967809,8.437990334939267,0.4530288398537309,-1.6709635560272889,-4.411957120349521,-6.4253243553363895
6.478783344901338,18.632862939355512,-0.642880620066744,3.7579476479523097,-23.511310301480272,-16.058611506921554
-4.844179393574549,-7.482721248878393,3.396548596919211,0.6205154146566233,8.1395218418714,4.80270080007596
-1.2127107200922498,0.8394362118129494,-4.304081185383489,0.610150802361882,-7.3862100512797,-3.3819775214053482
0.23362918255563825,-5.215206681968917,7.320500795959209,1.285931754623772,4.940091627808103,2.0606426276139005
-1.089465503775522,-14.680823546247916,17.76189443189026,3.92229197136568,-1.9820849746899847,0.24175194306193795
3.726788371094108,9.855731893876747,-6.965094589605404,-1.1910788480856833,1.9143661977038784,1.7292980449832278
-5.444223547915772,0.49311862174501275,0.5280160363831963,3.4009944391530817,0.6090900241143385,-0.6623486334756884
1.647293951412876,0.8736590059041989,2.2962232917903798,3.644369798232092,1.6691543374247735,2.4259826485212144
-1.631712223934269,-5.065708429740085,-0.2814960787621599,0.5271252941496634,2.9257547756478077,2.480655633186282
-3.2405172970293274,-0.29984153301349636,4.8507751010563664,-1.6028545354724515,-2.3463927799663176,-0.23298990307559259
-2.9025384536975984,2.8846586498380633,-1.4635479072658273,1.0957348798853792,4.334464342621125,0.8502774014124964
-0.9515160642855639,8.254015961087251,4.290606284786294,2.998499697729577,-2.0597147655060906,-0.3972807210273772
1.2521567584245339,11.408653442680096,4.247061362621304,4.144848319970268,-0.7852845600527035,0.5777392494074743
-3.0206902101203643,-1.8491684916301336,-2.815470187325835,-1.3441376861786087,3.588104114041041,-1.2066059550841688
-0.9331355516686065,1.5980338463890897,-1.6942660196165986,-0.8579896951900858,-1.5689945845962516,0.295086524996541
-0.24808226131914923,0.3517126600194192,1.8199169560254185,0.8604689135750748,-1.41095791165609,0.23035489201799905
1.2110756572130663,-0.7583685641919753,0.8692168457152121,-0.5713275060590308,-2.876444967577392,0.18274116854089864
0.6954826434300942,2.5437122205201033,-1.992581274407982,3.2579356792086007,1.047101668623933,-0.3742374784944582
0.7945392480110698,-0.48656387609754814,0.44040868500232366,-1.9478683923615154,-1.024246546458889,-0.6143221689544767
-2.557177470983131,0.6612016003919201,-2.409519810956241,-3.6768711774248137,1.3446052871998386,0.10664462857624785
-1.2278297078922944,-2.5502226973881394,-1.9289683320353177,-5.445834026593959,0.26181404131159064,0.6852784070188354
-1.1249776987822384,1.939561997005542,1.351542952831995,2.583135796185467,0.6563004017007155,0.8812765722913227
2.5852516887985577,-2.718425799133333,0.7725665222657465,-1.5228990658388106,2.140144771712744,-1.1348691491575327
1.4410434246856454,-1.3804612528209037,0.6516707113259033,0.29635585930829733,3.004584709444943,1.403690226174797
4.5162428609640735,-2.962409598030198,-0.10061907136626179,-1.7499813204711858,2.9955635266452907,0.6262622384547964
-2.879462279025099,3.04651233085044,1.038122481020867,-0.5543200882777081,-3.25019035917079,-1.0197930919607263
-0.9924306921859365,-0.3188200066845184,0.06593760646202651,0.20196223615993197,0.21444928054081758,1.055563847920083
0.8479098620837175,-0.5306454308177189,-2.1134078001781145,0.5172847272724064,0.5570576000940592,-1.238226986432576
0.5197587460392123,-0.45066777237591094,-2.9768119805384043,0.7465107961916214,1.405860360964955,-1.7176364094748027
-1.9441780613489865,1.3356075604319708,2.2777293453890213,-0.8736537515573577,-1.541339863544454,0.9197754538456522
-0.7145718329915054,0.34634373719439526,0.08523895367190254,-0.6091920704903773,-1.1012707306025642,0.04078904732590183
-2.521647263083015,3.194221296845714,-0.016188880152529284,-0.07742663354099055,-2.1235965420702865,-2.6556707252354554
-4.830651926578545,3.2955725047968025,0.8434249141832609,1.5235238910473021,-0.50643209392775,-1.41842406903368
5.3731644406167165,-1.784416239278955,-0.3382260894067751,-0.6842202540389298,-0.42982396485178587,2.6618646119546208
-3.556958892705814,0.4327784284373518,-0.0667356696233503,0.6211528505052057,0.19927387035029098,-0.8161686206765761
1.9184487091219307,1.2862555852820161,0.23125527266759072,1.1689413086901244,-0.6347330717862772,2.5848669759047844
-2.5487674237961486,1.2663880673023284,0.6367856787464805,0.8815252070942177,-0.6129079435134263,1.8492260437041586
3.0973500977652595,-2.8542263567563855,0.36089107731363335,-1.3632074787642154,1.6997077458359777,-1.4938343060171113
-2.128908618914524,-0.35233441110891267,-0.5233201093546047,1.1229088810083325,0.01120550373487661,1.2520729838033622
3.655350516335515,-2.8735865490652697,0.3533332936441615,-1.3518489133986311,1.38701605549671,3.1516688907085415
2.605634165684388,-2.0801039700377784,0.553566474596529,-1.1108351309094737,-0.7410285373577619,0.8670409015388214
-3.2382034112195703,2.4066079159245546,0.01237866605146698,0.7145086121405912,2.514275438306672,-2.7615533877605705
2.5751463405785624,-0.8230303879601374,0.5367024655805117,-0.6080652481117209,-1.8467727124916333,0.7646814557856074
-2.353126920977984,-0.19076489701869048,0.011225413695725994,-0.7643673815304408,2.2321746346779974,-2.3209178053779036
0.2065555186004399,0.29192855295620923,-0.8643281489097445,-0.4481683028401281,0.0064394413123780025,-1.2455826429345649
-2.284472582289058,-0.7179714035820651,0.12962265121197525,1.6014634373540173,-0.2691239726042337,1.0691246022921905
1.7490826130058925,0.24192276236891683,0.16054901335512958,-1.497892173374233,0.588381181408913,-1.4616755306202376
-2.9224040809487395,0.8114225925024754,1.077181859307097,1.7805009102181508,1.0563268956061636,-1.5409608248753226
-1.7066079969286054,1.4384387825259697,0.15862216930739653,0.01451611492191722,1.1023215090207608,-0.2142282829285048
-2.8640169266526945,-1.154531051394623,0.30172323510166693,-0.062151017371579784,-1.2102636460107286,1.5772837287873094
-0.6723800698954558,-0.6736637691917499,0.2131481437060794,0.4425128938427463,1.5642209266004106,-0.5275032312512141
-0.785326230304122,-1.3625944494873787,0.9207619659097004,0.8503180451015149,-2.0199578469380293,1.1348446598901927
0.5016674854927319,-0.6248965236734008,0.33404964284038774,0.19437243271648147,0.1430449130051261,0.5419009736369672
1.3723406756575396,3.271879839866492,-0.8293187056528415,-0.9352933385815277,-0.34576027866815695,-0.6558383938313904
-2.552574126057247,-0.22524345252936534,0.49461265399231835,0.5243025773435941,0.21186630095477393,0.7937542881587386
-0.8862320203337627,1.21202677130921,-0.8664779187122948,-1.1529134345129686,-1.0331984892101762,0.34922256467035295
0.06812751667996637,-0.8947739797329226,-0.07150690970101778,-0.23101835012282612,-0.7181960098586477,-0.052719301009534696
4.739715385967892,1.093282701069369,-0.2305782993462035,0.4142293380170508,0.4921990415439609,-0.3816270044985527
-0.20418824017452047,0.9069818566875099,-0.06505692361797,-0.7565963169286306,-0.5015237962959895,-0.3418418955498614
1.1630980940999247,1.4544385454878275,-0.6551576352186259,-0.4963147614231981,1.5260716210710992,-0.16864659281401154
-0.903715826869347,0.8605574172275092,-0.48578779290788104,0.17724694973938027,0.29221053141562625,-0.16255486161975188
-0.8268381477914045,-1.1049039578403965,0.2682382699040651,0.831573293669272,-0.04455706032221132,0.13314624739717096
2.1578101043331857,0.9566808001962288,0.23129481693200504,0.32571443317282384,-0.278130446842721,0.5272903750432194
2.2595769231931064,-0.9964556717512265,0.6164830600902675,0.826673572817234,0.5292819876999156,0.3046203068571736
-1.074263073814662,0.13960150520875583,0.5388950323287489,-0.18879315840955943,0.33025824438528184,0.2500355493594623
-2.6679853808913303,-0.5853940841359451,0.18025508190343145,-0.5751442380019023,0.27118260366981073,-0.436501434750064
-0.5218799071063469,0.04617425810852377,0.5471530891257008,0.4297404299161548,0.07967044250240006,0.3956785678243018
-0.23198674444231282,0.31598311798277134,0.19805740403494793,0.4244205109682141,-0.7803706371782135,-0.3551471081608155
0.060337358601222885,-0.23160405148119684,0.2719083474547475,-0.12535551496586686,-0.23997572706620565,0.4694707167257629
0.2562376563248014,-0.08576572832696587,0.22076612790295821,-0.19803890492848808,0.2637655586730024,-0.18755434142191305
-1.0862981056706285,0.10286997581243719,-0.499734721974203,-0.03545066022196042,0.1822855755564647,-0.4497076515951748
-1.2414366412475615,-0.056493568528105165,0.5920282984067664,-0.536233311061047,0.4330564971438183,-0.33982728501856574
-0.10030433962446485,-0.12729409483531196,0.06777347843375581,0.24695270426937496,-0.11313011710290385,-0.0035024571282428543
-0.11722979651180865,0.9235425120823829,-0.2538388916554717,0.21985945710996224,-0.34824712520797024,0.24363378057491075
0.6907816286925283,-0.2542978287326196,-0.27868810826813173,-0.3957056623595331,0.32669019622041207,-0.21930549204086527
-1.026275582056791,0.475817528568772,-0.10504562054843762,0.3024527942173356,0.6862782801494309,-0.23601145532931236
-0.2957227263952635,-0.08886698758825848,0.49762746814103764,-0.1112373143539055,-0.11020586609979142,-0.1957996697307095
-0.8965847181459653,-0.12273347467430767,0.07355251469805266,0.04257915097069454,-0.15771398591659497,0.08193188115556371
-0.432576128221938,0.366046474987503,0.16582826314730742,-0.005316873984085896,0.09485047491778388,-0.21646286994566116
-0.2005056061393249,0.5665979207961467,0.3026310452978924,-0.25490728809648366,-0.33421497012668905,0.052617148350920614
0.7667748852263953,0.15765678083914064,0.3935351807132958,-0.07594894526596316,-0.1218058186668398,0.21991329302369517
