Gx,Gy,Gz,Ax,Ay,Az
4.436148999999998,12.076706000000001,-5.926284000000002,-31.644,-554.2919999999999,41.062000000000005
-5.727504348448965,9.423354067893237,-4.122530719125816,1.0950764467973344,-0.46220741901959084,-0.8534401898598869
-1.5614668059782384,14.146696818271476,-12.674434459213558,1.306643870452437,-1.542734806304191,-4.518386823939746
11.30869202730269,38.97730326243512,-0.9520686877854341,0.41911600009652306,-0.9083426628422461,-1.1084301817858004
15.021012680147392,11.401665107808263,-12.606632987523717,1.208004246384645,-0.3680384016715136,2.0103845410797185
-13.258092630034628,-295.004942336019,36.36903887538592,-1.6660146203526376,-0.9087979531334014,-3.684326758749735
-2.6631453059917023,0.21471008238498046,-1.3020296677472807,0.4341378780163556,-0.23555382503876715,0.15255260851885524
-3.3492270884709576,-5.287525662229996,-1.1017657114039214,0.9734387308300808,-2.324862642045848,-0.9772327768336108
0.4502958708701742,-2.0863088138595605,8.770546209097361,0.9085015398838605,-2.6222983333600682,0.6403531047661204
2.246299483573429,10.447627944565841,-8.352695425027983,1.360956369177293,2.1070475344253694,1.8689644453807888
43.15164033941113,-9.049893576846248,-21.135018788957268,-5.887711080582633,56.986917555643714,-15.460462869235172
-1.108182715475938,-0.24016067389868434,6.354628062680265,0.05979913299301893,-0.8788537882455738,-0.4617246672636356
-12.137251139522963,4.032088719020099,-0.7272366444325374,0.8952761366250273,-2.268653178419409,-1.2159588735002518
-6.2263815474311235,-8.261593731787519,10.744877305081658,2.5953606439257486,1.2312293050784016,-0.26516613960331675
-4.548189632362983,-0.2893179673048145,4.43746601832379,-5.789758346561534,3.0643491098294042,-1.1302115193992985
-6.170889841473981,-52.64367633856197,24.470839189709018,1.0861420081551043,10.765711861562242,3.0470623229395364
-4.416576846031043,5.28709533066196,-3.362940972935797,2.338135974453333,1.6416659821455606,-0.17022978740163475
-6.8656315322887265,-5.780059965392958,17.540545394877093,-7.579773479524959,-3.003853802568742,0.6485148014824539
-0.08115979978577048,20.216225059866023,-7.831982595714363,3.909291832275057,2.738143252637671,-4.196682643787009
-2.607134165977783,16.394414495664705,-1.957823162684218,2.232269085100347,-0.5707085513920873,-0.07064810984191888
-11.373360047536744,-14.396800739079989,-0.911849200981802,-0.7963545293137577,8.530982137622747,11.359692201483968
4.764556333344954,0.8150491290719906,0.9361366404282703,-3.945278093589941,-1.5610319081818882,0.4280185642757981
-8.428576341679193,3.8524108548661617,8.418984244310357,6.405961653823862,-2.8251535344219114,0.453383310758524
-7.449929286826107,6.314132729324841,-3.438520674028811,7.825705875907271,-4.441884764372679,0.03807880041700498
-1.0639889503479194,-9.144232084860388,2.217820744381286,3.209705032752874,-2.5575727338120777,1.6247620837426944
2.374727462797787,66.53305720944144,-37.36826877358136,12.132626353805133,0.5858681909206709,0.216581675748316
1.5574362835012208,5.056869226800826,-5.471264823449609,2.817625139297215,2.081099945175788,-1.021035717005396
3.112690437260973,-0.4708489751780305,-0.7922421350928666,0.5922647330760965,-3.650349246895794,-1.3303138826314007
-4.2256512474981545,17.379905916064374,7.701733577944372,4.531127059786304,-1.858176986050216,1.7288165946502978
1.9802424881410448,-17.225821788463264,-3.584665101746713,-1.1678342045832895,-0.5659467075554689,1.9164016273467732
19.125333329050477,-2.761398642412649,-2.6041851206806146,2.203806432759823,-12.45196045735877,-4.014480350732343
3.7188780561157313,-14.736469829201138,-0.051523781816355,-7.133263181953673,-0.7025459758409793,-0.09777121554138324
-3.0729255827996873,-16.203355402663707,3.2475768818141155,0.3637758665205806,6.921648735861819,-0.7881421216449991
3.4549253223656735,-1.340135625152641,-8.316146980102467,10.22961929235928,-7.455272302208032,-0.8450764056526203
-1.3036351526187684,0.9327372823157498,5.6769814804917775,-5.422864668306696,-0.5645736097974203,-2.4996106192670684
-2.3069445726154183,-6.01315850731913,18.692424629763963,-12.57084376750349,3.8114387188388097,-0.5000715968577965
-6.7367923315432865,3.3358398936485205,-1.6813205874463553,0.9873378728208376,2.513896322900676,1.5658809439952361
-6.431464947072472,-0.7097319966148521,7.9082112769642725,-1.0947849880409426,-0.1180415930023122,-0.4170130292533597
-0.3708143544773854,-25.504476630083566,-5.714472920222948,-17.832513948736143,5.943346210932798,-2.3307089886294774
-2.8074481593981493,-5.994279810191173,5.382234432188143,-3.3834176425556977,2.4658210114399344,0.7366402035160646
-17.801791019674912,3.7767728979886677,-6.293575096067768,5.278539847161099,-1.5640666852605634,4.100556871989147
1.177157803904294,11.870501691421612,-3.5469977163590793,9.25571044208887,1.5196250748053144,-0.7262036078430735
12.350034711321774,12.869486804999024,-2.6150972625898508,12.783404772972373,-8.266793309021407,2.9229111684309115
-15.228817317714006,10.001028420934345,6.6170733691895105,2.191388509711463,9.783658188654965,-2.519047374885985
-2.9464994909917674,0.6153239071789822,-4.512033335164375,-0.422449072914737,1.3300532300055066,1.214095938325889
2.2390435258904775,-9.458895321996824,-3.90685793487363,-13.088647322888402,0.6638351188655152,-0.038575824337090614
-0.13979520547536883,2.479777725408747,-1.5896731059150555,0.6548736071078898,-3.3187961026033954,0.7494930289720256
8.064210084503927,-14.356271430450077,2.3528173988621193,-7.6328382049315895,-5.092887118584073,0.9041119006538603
-3.6094780321350335,6.3981067060856205,1.3127241997152792,12.55569345847335,-5.9958141179135795,3.266945278984381
1.7414711737548731,4.181504469168702,-1.305700096922642,3.8399032602507512,0.8240109173426087,-1.374959915168844
8.275499939369064,-2.346419354473646,4.387237127841342,-2.2890225174675596,8.17361825681007,-6.356699227708317
-2.6425517217305132,0.8731826653190775,-0.9766942363621733,-1.6808475911217013,1.571390542841517,1.6842775131939907
-3.5285513991711004,2.5370241245319605,-1.3874236539176927,-2.6092552983324193,3.2202222466001973,-1.4665199033434364
10.734987848176674,-10.203279988130504,-0.1947485334856756,-9.207113474223195,-3.3569063070864313,3.06417209338993
-0.9022849118132416,-0.21920481292458777,1.8618720368239794,-1.5598145078085315,-0.7069946125789608,-0.19085607891095013
3.461162466257969,2.909775501521122,4.407289067794656,9.91024387614799,-5.750336751038911,1.2317058272724721
-4.760048049414126,2.09474280299238,-1.0444751967476622,2.3761388992491477,2.5835670539294364,0.20105986872228315
-3.962841309716738,5.485883063028507,-4.112260493920833,7.669420434508445,5.169549249027968,-0.7114004822067128
6.720900152845848,1.4499042643891036,-3.233646253633517,-0.2728758520120582,2.553087119532093,-2.530412534885443
-2.7259049998776455,-2.523007206891576,1.3283513712282011,-3.5027231689616536,1.9356787345285307,2.108488961638522
-3.6287482788666767,-2.3473992739258773,-0.044813743870144584,-3.5414460381124444,-8.465721863451979,6.0889756233042975
1.2836971105129777,-0.8535460025709646,1.1339343570427793,0.5532751479099369,-1.4612568712821699,-0.25418529610820856
-0.4284659599677031,-1.0395070015793202,0.014060737343375235,-1.493933467797441,-1.4505431507572126,0.11333084491289167
-4.226426077745479,4.323861802706649,-2.031861092140769,7.89497114159102,-2.3841122087007083,-1.3333776845829461
0.17683276312200052,1.2690947564070707,0.7253002527675192,3.046636882187638,-0.6756281211203569,0.13034580534547735
1.0876854575598407,-0.25980725218576395,1.3046869686971059,-2.9480271576837116,3.355248906803467,-2.580132911735662
7.690527095475267,-0.15547505792692995,-0.06727680840057537,-0.2801956577189597,-1.7842206120404094,-1.1649896709810064
1.6253799545778826,-1.2968437892657778,-0.4204235742500001,-1.8953648466994029,0.28596066939415576,-0.08404517678692236
1.1948014981276185,-2.0478844191628593,1.7209566674607608,-2.704120863850648,-2.21390747918622,1.7858168530332197
-1.1417713608070195,0.1316888281408462,2.090870286535199,-0.7966552968865164,-1.2583279098796605,0.83600249267991
8.13854362651838,0.9483012148777826,0.2320196971660703,3.4852895869740093,2.035861741899079,-3.119307782487974
-0.32486240210169304,2.2258137758487733,-1.312651160781381,0.4471605441579731,-0.009511466371812216,-0.48391238287303495
-0.9602412534748687,1.9879541605417956,-2.7881534027741175,2.714905870758001,1.356471678658664,0.4144677063757652
7.480027817813438,0.974981113597534,0.012986107869656665,-2.3781627091117317,0.8646952024774498,-0.43800803144695066
2.7045772600660762,0.01351639987443369,-1.4316463035621447,-0.8356179423857034,-1.137992669503739,-0.28790729977012175
4.015912784362038,0.223824638393811,-2.161808481087531,-0.06070355364614688,-2.2913092380598843,2.6899055389002604
-1.330472096875181,-0.4235144256308556,-1.6735408824199545,-0.4633712961001803,-0.22133506223183697,0.4623040311783575
0.49865085892442523,0.9269740031477678,-0.06442904778420216,-0.7373949040150977,-0.2975140887103087,0.6995108692347951
-1.17076070250969,-0.7493643082949395,-0.6400315999068305,1.0919608692032838,0.7810764454204855,-1.2837512033373737
1.0859476018335947,1.3527075720180177,0.08136269490266534,1.526420917566704,0.8729777932252631,-0.8172755423356103
-4.789134267232298,0.8009993260866995,1.3105683310072984,-1.555542414418346,1.975314457355,0.5103112014443238
4.0167334259041505,-0.06219708344851205,-0.38614146962359913,0.915021353507796,-2.125054381877551,0.06354811382788786
0.31353830790576925,-1.086670638221496,1.0816048175338067,0.296653193116565,-0.9944669400283025,-0.8559984202061551
-3.8728464590121643,-1.7398931313075585,0.7243504036549915,0.43362177604401336,1.2619055154284469,-0.1020348847523066
-0.40483529823019726,-1.514969416054512,0.9688448059962946,-1.9048434165153973,-0.010456279359187581,0.5030559439465747
-3.568980316023097,-0.5093408447763434,2.3113625696522497,-0.7300987176298765,1.9305860386502083,-2.3488318071840513
1.8967545753478035,1.987484847445781,-1.3346507069500293,0.8202705387645004,0.7244775166796746,-0.24219898670749465
-2.2926770040346773,0.7604851558667576,0.3655587178607427,0.9068861934363278,0.8088852752187301,-0.2404938126950419
0.022977052081789795,0.21020729877248245,1.95437617794736,-0.6884863111341061,0.26819963376228995,0.897403315352044
0.8413606387174842,-0.8431155637631446,-0.6510718769206092,1.2355496994220707,-0.5736579436351853,0.2433049977703085
-1.630140805717568,-2.2782590634672246,0.4799557361774443,0.11817979143248737,-0.16010329909322882,0.8012036966744157
-0.250563621996326,-1.08222010943793,1.1884427960635555,0.10734926526424471,-0.5342086211767948,-0.9984927766267468
0.5475974964653335,0.7676679597979258,-1.5647049033840543,-0.8157767765246459,0.6849720274528546,0.5230071718159439
-0.7443556771835358,0.35185802259264176,1.0112619908006752,0.05366560296272699,1.3319308205363791,0.7177508037033545
-1.8632898035813301,3.360629078374953,-2.106342087458932,0.7137125066034204,1.245041832718581,0.31778765344764903
-0.3726568351157613,2.9887625845514005,-2.8318845974385893,0.9881071597106248,0.6833616426457693,2.544054926314257
-1.2757350045515627,0.06228978626851844,0.6108028324265762,0.06048609430505608,0.1346828057715295,1.3557375697882605
5.848638423921109,-0.973843865517168,0.1725159339865055,-0.07761334474020512,-1.9781780560999909,-0.4007013133504294
-2.275059612124636,-0.36270714758330624,-0.8976219064033992,0.6827215843706766,0.4280197678899477,-0.8548557326249271
2.190331675800387,-1.273434076629016,1.0460653643443778,-0.5278696738431068,-0.17046860798400354,-0.7642748505190391
0.7811390092062233,1.3064226483894679,-0.32039317176921167,-0.41509151329922467,-0.1659111785045273,-0.038933673412641034
3.0452725706554107,-0.33857730125855307,-1.0672503464366492,0.19759048476573635,0.9687549047140651,0.5862763539357927
0.6705261772057703,0.06883054249681186,-0.17466352615909428,0.5630607784378159,-0.6190552408247211,0.07873504715699338
1.0510130427997944,1.1379021307732242,-1.326233158845252,0.6379622602336504,-1.3658041576634314,0.9440175271888446
1.041651952026509,-0.6610341509903364,1.0802475415452446,0.6769498062505949,-0.6324009737014513,-0.30786669960138235
1.3425761918377388,-2.7652333703529766,2.4539948147812427,0.7220478222884181,-0.5230977679003246,-1.2944855678683964
0.41847108308942543,-0.7943139632872807,0.8111718665838512,-0.5163675091751099,0.20892611307662984,-1.561224028884323
-3.122820386395338,-0.45944309735598127,0.8003749410233498,-0.2665084250324353,0.7639880356907714,-0.4681644572282552
5.429582540395628,0.8589568612530619,-0.59702374074097,-1.1557767857751862,-1.5687351597195232,1.1004220512680756
-1.9880488140844759,0.7245776351874157,-0.35914496996034934,-0.1740438960853694,1.0664622049352779,1.0169600430987442
-0.8493029143279996,1.0699695251461696,-0.1686327592871898,0.0811470398407437,0.03191850272513454,0.6466672130762234
-2.9414043559580954,-0.3888015431403321,0.5413548329898917,0.7595563876620901,-0.4396198620116581,-0.3221204587997747
-1.0326495833178226,0.5863450187656848,-0.6552124997528045,-0.2225189959451257,-0.36185380787555643,-0.10651825050274019
-0.2774488231184673,0.497470578946827,0.9478801997672803,0.11342510183212817,1.9904652117505985,-1.185565830816593
0.003243775591395645,-0.31115618521929883,-0.21773137074281249,-0.7239107118188102,0.19266646345857485,0.07124422810595193
1.5380092423310243,0.18977592413951783,-0.7642635983919939,-0.5408904275615299,0.1287431728074487,-0.5196928644960446
0.20125705054681786,0.6424905215002087,-1.256302516281371,-0.03622645797903051,-1.2779827134623427,1.3540481141990295
1.4812019670815346,0.08315156732273205,-0.07031688486950352,0.7050184890705951,-0.47188816573377085,0.25786614126461443
-4.670499614429748,-0.4174730482105931,0.48617890707641687,0.7091152807112806,1.1702853972481329,-0.6088219511122005
1.0365340271769785,0.38871617259201496,-0.7930653131332736,0.778874025115109,-0.08433333714103826,-0.10762568762029505
1.2310440286740683,-0.769129656790049,-0.7302563909790156,1.053921075455436,1.7636161489241222,-0.4652281956907397
3.5366457191282663,-1.4000681274198366,1.173011795312894,-0.32645112678193006,-0.204728146215096,-0.20902039024601524
0.41771701916156245,-0.6339978739442478,0.580052692008071,-0.1892103763603635,1.0657203447006665,0.20072818061432418
0.681628834794502,-1.0413409478749498,0.8495946664857427,-0.692198790635337,-1.8439615999741716,0.728349875011047
0.3966593477837734,-0.4046825158915154,0.25798253237506974,-0.11252413743380646,-0.2544295941359768,0.22917455269426723
-0.9017505620072727,-0.05315776751314233,-0.5583031514003196,0.47808802275946627,-0.06325591329998836,0.4545279546697353
-0.09146348899700826,0.5982246888081538,-0.17044945539093675,0.931451946875218,1.3538670903513619,-0.7483869780050932
-2.622344790389926,0.8495652275854721,-0.3492853175523608,0.276094454958218,1.4766435282238504,0.33432538344839546
4.352150016064555,0.5407901764149596,-0.07789021014333282,0.19234678019487397,0.03854576197871565,0.3908410867955475
0.3351279295547981,-0.47322116489637506,0.7437230071218742,-0.4192596075003177,0.4707185650324148,-0.3576529601736718
-2.186175062973555,0.03930915863166814,0.18755848745091944,-0.8725445357311103,-1.2613901239040237,0.6125831446735414
-2.4319515999628565,-0.1498669101463681,0.14332709409364675,-0.28814058515813895,-0.09329539778336648,0.3975617956520449
0.8120011045074037,-0.28912360718172175,0.15498594828118767,-0.5453003321817974,-0.8073194710873695,-0.1463948426587412
-0.9336226885702392,0.8304547192134696,-0.4940637276583115,0.6450473709916147,1.5175950601022064,-1.0553655774795447
1.4610431448604069,-0.027426351638308075,-0.26521141638295176,0.4996321851108269,0.36805536975570535,-0.704592114225171
