Gx,Gy,Gz,Ax,Ay,Az
-9.474992999999998,-12.912766999999999,-3.725155000000001,-22.878,-456.938,79.398
-7.402937572775673,-19.18309115184889,0.30747853409745146,0.47174907296738583,-1.6833088002390122,-0.9580039050959045
-13.077395015909792,-27.90867401411635,6.776192435774505,-1.296173484295478,-0.4747131876277629,1.5846744580367655
0.04291676727782784,12.3489655788033,2.9804805613047383,2.03989304067232,0.7606016913788604,4.855224616119464
-8.669577295295014,41.89948263631152,-8.127297819993625,0.3728908677960304,1.4006752708876549,2.5790116173300763
-2.227011578538847,95.46010002477517,-46.00727562221689,6.236585801724855,0.3278957678663461,5.533016030119194
-8.639380045506016,-1.8750943069600725,-8.295016235032957,0.11846557853349679,-1.994133048584488,-0.20619584029040194
-6.300979288648529,-12.805704887181099,0.07655860588443142,-0.528998388198809,1.1092985181572472,-1.7629436891971766
1.8732734434952838,-13.906004590890287,-1.812577863412705,2.2323340985410103,1.9083729433261596,0.46628920954065256
-13.975094629439681,9.357965671567914,11.440579193101147,-1.7791115221035305,-6.588796891612621,-1.3962782021233253
8.44037952725023,32.88637566140535,-15.89335565764234,-4.969233025347336,62.901528037630975,-54.63549443985969
0.31129371808423617,5.140972267856679,-10.26664270938659,-2.9955798358582735,-7.412741102676604,-1.075529324317133
8.732838418111431,-14.674232907298371,-11.420362947610975,3.0331226394655895,-1.1608167611575622,-1.9040331404241795
-14.536243078407637,-6.712675845171301,-7.497798342791617,-2.13858861035765,-1.8494628860642779,-0.48598910348364865
9.403280663631827,13.931789894915026,2.282051620436866,0.7688079232571344,-2.0824391227047023,-0.0031016593294528327
55.304019995027076,29.633701878821125,63.26418206402686,15.206211814377363,-12.619585633413848,-0.02752546298114785
-8.787498887613818,6.851929613569232,7.172475185055621,-5.087635352175207,8.174572171533814,-1.2262885257627467
4.495368947809476,5.857363746618008,12.246013180066228,-2.9224653614261014,-1.594425775246511,0.7155407483237165
-1.778475564991573,-5.133593604992754,2.0461328360023394,0.9216128872101211,-0.27307430705536584,-2.6094405029462386
-5.025749452928151,7.188931269441973,5.365694275635085,6.093936722749777,15.694462629536215,-0.7321424206071971
39.756673486352426,1.2006271465956644,-4.871258260182086,8.547878221430837,-7.0010489176582675,32.51175787963873
-3.783997220363295,6.656079538138142,-7.068240055962154,-1.6403394713305375,-4.529167409080794,-9.71848588168493
-11.40452844972285,21.04110594491053,-4.482337020529268,-1.251886222608976,4.437595982678692,-4.864444213281007
-2.974027092046204,11.64226033122449,5.608757427903466,-2.9897659184436955,3.227608368858502,-3.059515994373962
-2.2230218447348964,2.3524344713980145,-1.9610013670999633,8.441262605018377,-1.770255573047751,-5.878253996056179
-20.884701910261132,-14.296609105247104,-11.335496201893207,-22.685560129448433,3.124615716241047,-2.0007998077736016
7.744402014858248,11.317149371333874,13.73035016377983,10.784161336660844,1.6806050807804827,1.7570502043418819
0.40189427196995187,-10.672357261648195,2.742045100079738,-4.737703649402407,5.284480649891944,0.9775615535799856
4.61044952047797,-4.854024889314708,8.733930387524124,5.658627596024268,-1.7414681708140693,3.102541110222873
0.8620607936027807,-14.546132629135894,2.4746785098912607,-2.125299313431208,-2.9933004273287285,7.469910913779797
16.884967947814154,-1.4458788708941785,-3.9282970472026557,-10.521016706793043,-31.7873027313353,-18.668435680945787
1.9992716033689342,-6.600517513743706,1.4756236321286205,6.9586195369767125,5.804911942710902,5.509386640273
1.323128362411679,-11.074737837571464,-0.04269641578339001,1.461167695860623,4.358148307845485,4.8936871490394225
-10.44601988148482,1.1808335797947138,-0.7510930563075354,5.009483425738155,10.221513210234448,3.326953837588705
1.295650503287749,-6.7821394687859895,5.351067503168251,-8.111209297695606,0.42482275181584805,6.995749457421099
1.135462538640276,5.454874027364575,8.950520478370096,17.72603476578709,0.1954435410861759,1.7085970153107106
-15.355755524935375,2.251529680942613,-2.150813329839524,0.15980666333980054,10.499424426631936,2.78853595946177
-4.6146123993218575,1.418728944304584,-0.9925025516741577,0.8031474127202338,1.879055491116079,0.9987576388779742
-9.664887625232716,-1.190891839816575,-6.857683290968435,-8.276612770438,4.2239623237252975,-0.34748833974083493
1.977211386802705,7.588145569726949,-6.362518338251117,4.391487562194937,-3.876368472503114,-4.899854169497367
-18.115287133258974,5.108446522185201,1.3019074965763169,4.187372628144461,21.0489837112929,-4.955174982054688
-0.3208187001858631,6.691499768983876,-6.7925137820923736,-1.6123659768563288,-1.9404643422361336,-0.7696920618748209
11.131233656547508,4.441494911756898,-2.386390306502322,-0.4121627193776095,-7.967380896367655,2.3606528931219395
4.762774427072626,1.0074631718362788,1.8982214136639253,-5.47354703270424,-5.65090720227679,2.3216364336187683
6.158313559978085,1.398641602527852,3.4341002853625895,4.455898021931796,-2.814972007702897,-0.5571504040140549
13.735311750848805,-1.9467356618448874,-1.7775430273878734,-10.354927030395435,-2.481984208188168,0.27807238986082483
12.544495969197904,2.007089447972186,8.125999500676713,-0.6952044567717741,-7.1711763629551655,0.7687716300938479
2.9583887465206606,0.5435032359865135,-2.8887935176359423,3.2985753746051207,-4.704766665121609,-2.094166126689323
5.1315342660116965,2.5527409218466586,3.9293054940725387,6.957882215062199,-8.506208118446237,-1.1944549408922978
-8.991158235503239,-3.7065085132101876,3.4789318384449315,0.02908904082821806,5.97625883155608,-2.665894675031998
4.398314418543241,-6.48982498520037,-1.71099085104864,-3.788569066070082,-18.208685414312832,7.685832028722952
-7.2664952876035125,-3.4641156831067352,6.479165187924741,1.449497091774485,3.3778153376473865,-6.1885679821749005
5.273185241072562,0.11337413164797905,4.2738098395482425,0.519597384736707,2.6499314816226125,-4.805495048292658
3.9974969285637005,0.4657134625862871,1.2630958716773613,2.837232267577847,7.607453447550102,-2.9218148279145124
-9.047696030287874,0.4947711060037722,-1.8694653975212467,0.10933670414879049,5.925778664144077,-2.2174009624651387
-13.776411415087114,0.4982211608023035,-3.0437936335307834,7.286746946413746,5.279943610077274,-3.4411468064678505
2.0335907257575467,1.2751340465573935,-2.085019566620675,-2.999646237265715,1.9861052377605586,-0.8630505339388934
7.5272513026306775,1.6326549230237233,6.751363077788207,-4.0764218409505695,0.2472947367543219,1.4796774788588747
7.5220375502391335,0.9707047055282795,3.1096150436312078,-2.7895843493130554,0.49368244548083395,1.3154091304914683
9.62020760677782,0.5986522799618286,1.114625038463906,-0.6409080490823558,-7.4896886609336875,3.841713281320385
23.101421102433655,6.129629955789486,1.6595627326278186,-0.1619742180264909,10.262025924855902,-5.371995560646472
-2.578910979006621,-1.9304152835585222,1.9120616382542006,-3.0920918998105718,-4.540821973562061,5.347057785301163
-11.815637523422417,-1.7457969432693805,0.31190605846667663,0.7390937230408999,2.780831333252137,-0.9098506703922737
-12.195212159673158,-3.33969526246841,1.53695647133661,-3.4570745153585194,1.068648849558268,1.1260693196379385
-8.645799155715553,-3.830036824232304,1.0149346870203433,1.9317134701494891,-1.3041561232732293,-0.578058760814796
5.038521171974693,-0.869279400576624,4.357795589008245,-3.907982431259472,-2.6675861045377216,2.064092022779845
-6.8732955677567,-0.3363846956273826,-0.2583276065810618,1.1380023904062968,-0.4354210471179291,-1.5507215278025197
-4.6693669366403165,-0.8311457982790096,-1.8064654209132303,0.4973608691665906,-1.3788084248187595,-0.2899283861259981
-4.54155235604029,0.5188171194293525,-2.567756865524091,0.38142831004494415,-0.00015154328241401283,0.18813314324309147
5.684648690309045,3.1794860167245624,-0.7403083049522564,0.7896296497685813,3.7425074530225038,-2.336862908595248
-29.681046515628985,-3.432776850768289,-0.8942485969170664,-0.3706887791327567,2.911464457513231,1.2461371869564295
10.330757558673259,2.142732644840076,-0.1433280269464664,0.6743465686973724,-1.6819496689111428,-1.3156735290847326
3.343995517250698,0.5640042223041759,-1.5492944646666338,-0.4834597890063247,-4.844007371707429,2.9325149577396306
6.618934390180304,0.6165297102791154,-1.5373790986124463,1.681431378722046,-4.02985619219756,1.5803072099110267
4.233075248219987,0.9067255799663027,0.057830333107719234,-1.8239318263760154,-1.4868709542928298,2.1510889141285197
2.6781467920545623,1.39869512694855,-3.0874971487800384,1.8777448221862993,1.767783192970435,-0.6919399315125712
3.8527663497983258,0.3046322644797629,2.5151103591983133,-1.211627652222824,-0.9198270247966898,-0.2938719794357215
1.0582369995514957,-0.2989511850843469,1.557791395908297,0.03626769998284407,-0.5979091765714537,-1.2701383157519652
2.5377879922297626,0.8769220462028762,2.294184347727557,-0.40170879296772033,-1.5677668101881286,-1.4347703545131165
-13.982722399566889,-2.2798736226600713,1.1946201650691624,-0.715964646078449,-0.03494620814741706,-0.48715662070380583
7.875794839184185,-0.3805381342747154,1.0134113355222727,-0.6648018576436188,-6.133766441131311,0.9419711837496723
-6.559862742243148,-1.1297476638897028,0.1467427367232531,-0.33492977701248206,1.986938890540931,0.11873371540671085
0.21956470154377222,-0.8466212744386327,-0.1422893003201946,0.9412772577934038,1.297775774023882,-1.3429263508332931
0.7161006784802384,2.1110299740682468,0.07865911799107755,-0.49092441071691517,1.792912110920514,-1.5198648417729805
4.158604846298268,0.9920519508218792,-1.2966238744327596,0.6076092610779997,-1.0582363832427666,-0.44484527472330093
-2.254215720303054,0.10518515743405771,1.5729179884980187,-0.32155861372788064,-1.4423807502896606,-0.3339292016060111
-1.5877059738699686,0.16807822119014112,-1.9860238785542321,1.3118521739267404,-0.19435450121127631,0.5140011043321814
4.227178430648917,1.6860991250181676,0.6500734567464284,-0.31100967331677903,0.38751102399504045,0.4662195952110959
0.15105831686021703,0.15698307670990663,0.23313358093175723,0.14018627129502037,-0.05235349968250924,1.6142897781244365
11.031058364179914,1.877439493785669,1.9483562141549764,-0.13472132419285654,-3.6229775605946695,1.9183949050652322
7.189683360366369,1.356963884954553,-0.35976962479753466,1.199142644940711,1.5603396501001818,-0.2202311282174036
1.8501788868477702,0.29602138816304924,-0.2932691500830303,1.4986249577336477,-2.774001824072522,-1.0436945541395335
-0.17531164491783768,-0.22827419339391458,1.2757954120524893,-0.9133698836593809,-1.350132217118351,0.856824261071363
-1.6518496546767372,-0.11353599808659123,0.6017491294712038,0.9316789234426393,-0.5084670377875901,-0.0946039810956466
-4.035507194249202,-0.8735123428657627,0.93444640723829,0.4278634433850198,1.4131665251600105,-1.324179413971571
2.0185164589639717,0.20771221207448984,1.6557531625129043,-0.7529761427165962,-1.09647488839821,1.3016175766385136
1.24068894526592,1.0781476253647033,0.9359540295085851,-0.7488937874263375,-0.16434976169488835,-0.6658185585558208
-4.250564639848103,-1.2317290544043227,-0.7765739589373488,0.14498514529551954,0.18357204242003966,-1.462676769827892
2.9344086706654777,0.6352079724448972,0.6947369181034788,-0.009233038548675026,-1.2123575296903077,0.47712532373974736
1.3389135308177105,0.3167910809179416,-0.833095547243249,0.40461113322324227,2.7700998953264158,-0.5849285726123016
-6.728410427948924,-0.9746947065574794,0.39300803194504697,0.2118440974390246,0.5152146978756098,-0.8754502170589589
6.45131944131521,0.7922298752301715,1.1288703284024983,-1.0640227287065467,-0.631747045977665,2.39113406411933
3.1308722470703994,0.6243153154345102,0.16483977185239962,0.9521706758128499,0.38300003553384443,-0.9029356209544293
1.5955656518175139,-0.7191116437863427,0.7838222562679327,-0.14815696761583597,-1.1348982630991267,-0.3185989746349851
2.8294006394591484,0.8075332549714278,0.29524811226422115,-0.26496228960688734,-1.1838204753729091,0.9197838698697255
0.9868691709635771,0.2579287997206886,0.11956251733163424,1.0986347727317423,1.8993792184290297,-1.1545273250072936
-1.7810531553585416,-1.591454922933965,0.23639756856070715,1.6282142855071846,0.11297781525392797,-0.9704559165600906
3.513482869528337,0.8722797922945769,1.6527505252700585,0.2626243248589698,-0.4606240767293972,0.4403301179699704
-0.9736025912181222,-0.4978082984258439,-0.03644909841624802,0.8908000475718509,2.4498915395477847,-2.552432696971318
-5.254105755434305,-0.7521645711832943,0.3862956075971733,-0.002548015138023184,-1.6931110000455258,-1.5857563145574927
2.920075331639563,0.18096109182165426,-0.39358208999925914,0.015013312837241319,-1.3994733357522027,0.41416951137156705
