Gx,Gy,Gz,Ax,Ay,Az
-18.633642,-0.10094599999999965,-3.9797479999999994,-56.336000000000006,-598.376,96.524
-2.0403628895838306,11.30244505520301,-1.3168724455599614,-0.7061978031052505,-1.1997564100631832,8.897073271227843
5.366269153413849,11.968718610310974,0.6672271127513911,-0.2459946126021798,-1.9486837326884856,-0.23895025794630242
-0.08927294268181646,6.6980545835870675,1.3069069122802832,0.08626030259126427,-1.6509652483870934,2.1914477018060348
4.762862163032732,5.535623897614153,11.344970419458544,1.0728385775967704,-2.2568903337716635,1.8568359995520698
-6.6528197353033125,-50.40611411093929,35.556988203220946,3.6586537240558896,-0.7314456075348419,4.361650874494604
5.4804016874568156,59.89243698817887,-39.87637020567165,-3.57549517702065,-2.732700793533717,0.5659647534283747
5.575136801489315,26.85030866477456,-20.721662957467636,-4.024173977942537,-2.6129909175374215,4.603886947519336
-7.52658435049112,36.37468510529264,-11.966149109527109,-2.8958438094562498,-2.6456711001314277,6.294217002043672
-1.0393848866160573,21.359809913415802,-5.210958659902498,4.831570788469625,-6.2690769041156615,5.019960287500892
-10.347231777000843,22.630228471837295,-8.137679206005355,-0.3842160642404509,-10.007605961390123,8.476263614042153
18.500977376152473,16.355667673204117,0.5887303078203612,6.75904850018237,39.3936887006711,-46.808322898352586
-0.3277128399148165,12.207736678412491,-1.7922703616072784,-2.256759527778269,-2.456699157905364,-8.442902163195956
6.82820984688215,-4.982776410824964,-6.073038050379567,-1.1260819746184412,-1.3211033685054574,0.41651605085190613
5.622861856712214,2.9647161869684786,-10.849109290236292,0.23053001412516516,5.494937834319938,-2.201375467167819
6.654970951270063,-4.472079685273698,-10.132510239106665,0.5296064388629536,4.254325814128976,-2.003959431902264
1.3233439407198726,15.069400459390687,-71.95560885741737,-3.0465159685231353,10.661838838195678,0.05376465557533461
-4.080795164035591,-15.122664945843937,38.86583651266183,-4.616698842187377,1.0619312040763478,-3.3119320952362648
-3.9626111350103312,-3.104638802108327,15.059966937179944,-1.5920440326378338,0.6808663887658628,-6.050324874515693
-4.065297982725376,0.9999398040082772,3.072693359280028,-1.9508928485594146,-0.5695490470271528,-8.94269013119763
-3.0252696634989515,4.3393107810462075,-1.9659530078557168,-1.8114562848701092,-4.083629468847432,-6.67485078819905
5.7241973380812,10.696489953608156,0.2760647398664293,-1.3954001042384856,-3.0978830693463806,-12.860532911815758
16.594599011893763,2.8296323116928845,-2.0739352820291685,1.2285540790040108,-4.994606890455964,28.77953971473564
6.514767473750971,-5.6000854655312295,-1.8160302684891068,-0.7838209301781585,-0.45306319650566973,7.178026431199861
-0.6352982795588787,-0.08836024950459143,3.329881532960124,-2.9079530088822416,1.7440802389018324,-2.663978859476681
11.608319536828613,5.031126647536071,5.9928882541024695,-2.326991611927313,1.7356755549610008,5.075824036204802
7.894673176986084,2.581893439176697,1.1122902859405537,-6.344991445843231,4.8028746217189635,7.310815769751282
2.769196287502753,12.625796813963298,30.06470562111086,-6.795928445541076,-0.42906079175838785,5.3285261368821
-4.245597655998392,-11.622090456059603,-2.497387873952381,-9.853347279472,2.405730685231264,2.6487366466412863
-2.069329715177572,-4.574158834380081,-6.631019734838565,-1.0567925278248331,2.6815901383574934,1.2590184190431963
4.794563551864064,1.6086588863444387,3.7319572138974273,1.8188525855828148,8.512355753418467,10.029611796082923
9.652281648804703,11.837435230864362,3.6467387395006527,7.837285868210653,7.2529173137618415,6.717045368003256
12.65914510024335,10.885384935362445,-1.7178785243912464,9.89779400176327,9.900658228213949,21.574058038636892
-7.743897335656448,6.2870096751986875,-3.2215194940127017,-1.9802858313865193,-14.490752474446003,-22.28779722588176
-1.1625409447550537,11.281305569723786,-0.677207259177008,0.8099870368544713,-8.64913162220223,-3.5857994756558735
2.6869458214875976,12.449588780147588,-2.808897315007293,8.917505186621714,-4.381210440856508,3.171175375616211
4.276145952712281,0.9884573335496789,-0.8486000629645787,-0.1442409350268261,-4.013966064057374,1.7843080764689758
-0.22293885236917088,-7.470234086105781,1.7158576128055474,3.9371812279598313,-5.442143193490555,-0.3953406260444656
-2.9236940336908592,-15.816766626970713,-2.551692169392374,-20.703503325425803,4.474841916769919,-3.5076949162073188
-5.541161924882559,-2.0705009546841193,-1.1104920548040864,-1.6987987173882915,2.451006903415963,-1.3669156967684455
-5.121660535489378,1.54421298755007,1.5162041149201793,1.6350754601865698,1.7266278253285592,1.6148004663131728
-3.6473138485848287,5.446657215548477,2.141698013982647,-0.07729086255806727,-4.026631184059834,-3.8959348430522667
-1.9807266480950751,3.7158562318821886,-2.1211850969272614,0.18823226791850045,-10.43881682560915,2.429512413888789
3.8491686955966253,7.7662110097880515,-4.318683897648155,-2.1260829669546313,-6.3088259188797675,-12.979031642091483
-10.451103533097244,-0.9155711343714437,3.3694325416746276,0.5957811044335861,4.570580408124597,6.269171763195247
0.3714016612371691,-0.6496776931186776,-0.09864192371684588,4.632725114747062,3.708342144809561,-1.022993454500153
6.158890976548276,0.9248818441991986,-3.2707319579314635,-6.449104006656347,2.829386145121322,-4.408306659436436
5.833879545515316,-0.5179279516692432,-2.4874309427527415,-3.457443797198078,1.263935828191039,0.5994935891702726
1.3657239185876648,-4.905482420857874,1.2610488056055749,-13.794652026160431,4.279490602696187,2.8970300517543475
4.204988017319805,6.608405973214312,-1.60547567862926,27.368785960866347,-11.704828665974903,2.3043077588852134
2.118184930735367,-5.054809280096922,0.0441194557227273,-4.07234310331187,-2.4228524853051883,4.3988673870927
1.9762168129202766,-3.1466238553157257,-0.5287861659873372,-5.026719592300312,1.3151002087235981,2.7281813085618505
1.476088900241765,-2.3121266171394987,-4.225480276719048,-0.2343540190761617,-0.295691187549032,2.0274581388799113
-1.249502260697175,-1.7365341690713687,-0.5185380920263882,2.9851730302134842,6.439665001296168,-4.682279597654439
-12.549689865119966,-2.7710471892843733,-2.998452043135098,-3.1470390120997873,6.56835813403112,-1.718168056755785
2.6028428847720297,-1.7951051262850566,-2.0437794054122236,1.3318764300189958,0.37065768438320124,-1.6188296512534412
1.4142989393227374,1.3700444096100135,1.8118883310035225,-3.854203317033667,-2.3203434595604318,2.814928849027524
0.05830711828290758,-3.522929542412479,1.5227330216630568,-2.427319471857838,0.3611601101049617,4.534526858316625
1.2411803387122067,-3.8186382474791976,1.4787810972606992,-5.513975256993328,-0.03418564523927747,2.6346734464078447
2.713030108373465,-0.05932467956278026,0.6830317689308503,8.771346125269448,-4.620811548076894,0.36932222534089687
2.0727014183729366,4.980035864027988,2.767637200291449,-7.886037942790816,0.5914299806650682,-1.797571878224817
3.5411737532129406,4.7392693314712915,2.5668337441732367,5.074125325051471,-0.018615081823917468,0.5686176113803691
-0.5740275492735148,-1.4412793914242696,1.5995251980062435,3.737803815091267,-0.28290953204891256,-0.25290505790511797
3.3707247104409834,-0.457933637258058,2.785518099772519,-1.2718196154564656,0.2545953971708821,-1.5022947148252845
-9.54560393149464,-0.04106048762393466,-1.4759291532855798,-3.3954554239222867,0.40864389551511593,-1.8451378923262456
2.458852408681861,-1.0412379440286879,3.120613617431008,1.3814506621933211,-4.443060456794214,3.196037480900239
-6.97890489935293,0.3678507547591199,-1.1958608083741487,-3.1369780341977727,4.101849719327274,-2.963467887155612
-1.9594796020010583,-1.0708979797263463,0.38764449707408577,1.7321824326736295,4.0759671872959675,-0.1302711680979552
2.943532232058192,0.620087412509123,2.9019125277148725,2.9586654532476886,-1.8001316057704435,-0.41349785024946417
4.6457131360448445,-0.6603612023756282,-0.17046840473703262,8.463980812147831,-0.8351443776690606,-1.9893987795298447
-2.6759291151092266,2.765489960323153,-2.7432777325513475,-2.3163870448748756,4.208136264656524,-1.166129525904581
-0.23716358033664786,-4.399947151265033,-2.610900978298962,1.8539812586436053,0.6267491102415557,0.7333112566779345
1.637951568513226,-2.1848398712076404,-4.239792642195062,-7.23607442386883,-0.6875725024937891,-1.3254693203094217
-0.933395506164028,2.037657166164445,-0.17082034458090756,-4.182064082978396,2.3900814586090924,-1.0958673941171022
0.5567945886593901,-1.508227257293325,-1.113968273276585,-2.207142406572385,3.0784148497810753,-1.8096817567432293
2.554958781538417,-0.5371952190772213,3.1187722779543297,2.0636172267962185,0.6505790446608393,4.768808772683963
1.9038758881644222,-0.08777357475849179,-0.6386261225323928,-1.8306368910113715,2.6008123017701252,2.435878830688838
-1.2732215502208442,-1.4161062530987545,2.1403995414234043,0.5854913645152755,1.2820541938466037,3.4891947314958167
-2.5382909736597146,-0.8851856966673243,-1.1214034063177276,-0.8794010440022255,-0.9546063591175766,0.6912994051812378
-0.5871754017957411,-1.5875128837346473,-0.5528054268101852,-2.3650829803116196,0.21664477895011358,0.691038843456415
-2.586623604842342,0.3973627586996259,-3.4725485122654094,-4.314426553960008,-0.6918095194522702,1.765746460881105
-0.32763100186954763,1.1678196712591695,4.185315728482892,-0.4163411431545663,0.347819870377487,0.7143549703807222
-2.111243482713614,-1.639138184475493,0.3211002055082618,1.83354909522074,-1.2292620521882385,0.3188809276251321
-3.74369443048835,-1.7314986648988164,2.2764365220186864,2.0880502993620778,-0.5674295021616735,1.2453655800425618
-0.3178898753395588,-0.004912328056870141,0.8407821938259232,-0.11144208331448135,-0.09908800553160024,0.9519803799346584
-3.6858369174417813,-0.29021270335042715,2.311339682745141,2.0084804221128056,1.8745784624985324,2.5772835323492544
-0.5452172177058794,-2.881542321781118,-2.560200611634424,-0.7205931215857796,-2.5250116915164584,0.20530078535138285
-3.4266358359876676,-1.1549585846479622,0.10988513025790286,0.6977715464441658,1.0526467430471893,-2.8820648156391453
2.409086635036685,-1.2360290359156916,-1.800005076037401,-0.3760870001908536,-2.056757394895524,0.4753723544601964
0.03758810418477321,-0.7251372719805635,-1.3050474394851608,0.07312302238812518,0.17355128180027135,2.2967383559060455
-2.944521927477373,0.14061499599811367,-1.0392282203155134,0.7440448165199567,0.12902651599506565,-0.5242825614560684
1.8667379978231526,1.6268828509580053,2.9094625702065486,-0.5033854587912777,2.8028270602882666,-1.8788731560293432
-2.3586341660476737,-1.8962599935699802,-1.192516155491007,-0.10832402127509355,-0.2012096520237071,0.43358428461706755
1.480732066642051,2.2978151740890267,-0.8314401906966592,-0.9367038468054993,0.8157805591286835,1.803990103773259
3.7162426226648906,1.413142724378669,-1.4243134271956777,-1.846867389742079,1.4967204485905818,0.7947631711390677
-2.152846787702632,-1.702639990045393,-0.7091350727734036,0.14462709896918158,-0.21893294659670373,0.7383173518589827
1.2911488933296453,0.12206746516874167,-0.5470774536203076,-3.0688362528506605,-0.9797970888098724,2.1933326631244556
2.066355285443752,0.8776711542257547,1.4736835466526483,0.03463892647679323,2.3694883337182278,0.34761877272549035
-3.5143634384111646,1.2832465943599187,1.5555043790824914,-1.7633770204683217,1.6026202243628447,2.6788217690845886
0.9329285335678839,-0.09561919732504043,1.370343843834229,-0.12535436506001907,1.6931424444066312,-0.049367247191250296
4.435015921505073,-1.1435971787505539,0.13935562740191276,-0.4960758818857205,-0.17066359620773053,-1.7177478938436286
0.3627980360762624,0.02543789145337938,0.8517036272941017,-1.9709139175360524,-0.24478640031511256,1.1893340482315549
-4.630369866529076,-1.6041778613781565,0.466994893342189,-1.2984587633122744,2.0268505416686597,2.055339716819738
3.301582551703599,-0.3576677517092477,0.23668665235767372,0.3989687594991709,-0.38794592644032555,0.366130587728116
-0.3267335472563908,-1.7277426595194907,0.613522979493639,-1.727407621635738,0.9010246948873188,-0.7277048880232027
0.4948833128825343,-0.2596888894962461,1.0380207198293054,0.22284810635436883,0.054277003396617174,-0.6558991295015091
1.2932597662017133,0.3503919632070063,-0.19756512293286982,-0.4772737970381534,0.23035311636789846,0.3992181074155413
2.823514619575737,-0.7997185772753141,0.16457452802114148,2.9139071590926755,0.6886273855878482,-0.030547595607131717
-1.7089548050671977,-1.2972778921453358,-0.23512573047038765,-1.778386007717701,-0.28883562242889893,0.43551894466416186
3.1385891862049196,-2.5262176301320216,-0.7670714460522459,-0.19114060173629382,-1.8300410989605806,-0.19445637344766342
-2.8213325971236762,-0.3953428126245925,-0.24151231639274995,-0.6665015232034855,0.2767494415798697,0.9186973611306775
-4.425754427649732,1.1516102950247855,0.5132498561751453,-0.8286305239403968,2.074546187514312,0.9108818088396586
-0.6272662264792578,-0.2562040383675566,-0.8841319863758269,-0.37434104412053615,0.31243239783855736,0.33554495293445497
4.495673301074974,-0.8504696660705737,-0.3329070987718253,1.2684333071614096,-2.379282467476421,0.13576170503642837
-0.6381172646582876,-0.634505603556772,0.18005247467676133,-1.049374811116375,1.656644585966141,-0.1285699662566846
-0.1490679702699177,-0.6222400117738658,-0.5015240074988954,1.9578687348487656,-0.7125606223167109,0.04614382725673116
-1.6452407587895796,-1.8722433926574904,-0.35178698472592135,0.30322036218935083,1.3296188343609803,1.1205897191956629
-1.7457424701247,-1.1718058298591125,0.3178292779479399,-0.1942159504201521,1.772562895753985,0.46115597269467834
-4.336243381524746,0.43310914753288515,0.0287654406822323,-2.4443321655444703,2.0800173657409524,0.0043668265044842225
2.0801664920043534,-1.6615605189567424,0.6031259491264891,0.8785799307934062,0.7925462311926722,-0.028977031041827583
-1.8159073190936488,-0.33291515701667274,0.7436908859256688,-0.3501038833945576,2.0828721994458936,0.01673353686870438
2.925850437412164,-0.9451361247577615,0.5673199228996509,0.1789909890169723,0.8771179111482799,0.3788023249825525
2.6287701813967184,-1.8067072067133143,-1.0739319687412292,0.7377929722989064,-1.5552214084037284,1.019357582897962
0.6394719129622306,-0.07449863342969351,0.2539795897900594,0.22721817974551362,-1.075101293665488,0.4774188183081771
0.40182189147749653,-1.0631938026300158,0.8421845057779846,-2.131430955412078,2.7190680460011665,-0.05361869585107015
1.1198270771628276,-0.9472213598823179,0.010721921499193598,0.23194331183271422,-0.09618020297666918,0.4135297487513695
-0.6857308101758086,0.2637276159786097,0.4209267226730335,-2.018871769453731,0.7716798170386181,0.8213564750208648
1.155501901852772,-0.6186220546334511,0.45896456787666384,-1.456154357067153,0.5725137771089992,0.2580721224049527
-0.674345626632906,-0.6214569333455024,-0.1372259328861405,-0.7293808167112823,-0.25711053686486374,0.5359932867158274
2.6716998136304415,-1.2513014409719516,-0.21662368076600808,0.2371610996381206,-2.1458930216456866,1.3469555784225908
-2.8969179214488108,0.13605972205952854,-0.03623567135430894,-1.1258297958001253,0.3080721380133653,1.449403827631964
-0.5213478852194062,-0.10761362829997123,-0.616058908449598,-0.30819581277752867,-0.5731300782538867,0.6692141474529176
-3.306590205973416,0.05163113010989434,-0.05549093703464193,-0.8019704558914897,-0.12330191000083951,0.8358380419755935
-0.5160362795366347,0.48729322978323286,0.21438695072174296,-0.8727764396369238,1.2846434249375729,0.2998763545791325
-0.248752412170027,-1.31072709804205,0.5058588784492382,-1.6216472127825787,1.6980072686390038,0.4236622221841049
-5.187471778939008,-0.3785149844246395,-1.062168091282363,0.5793423443719063,-0.739559013835494,1.2850870750993069
-3.953580046385713,-0.10121916825378435,-0.48414934749239835,-0.8946590342888431,0.7438985631309802,1.1195905501803767
0.3318231994334898,-1.337762216860764,-0.6196937975467434,-0.12736918250211288,-0.30612547215979735,1.1420426004798125
-0.7892502417795848,-1.0276492539648396,-0.43005824990387037,0.039374299766375076,-0.20278087530610778,0.6293107157353381
2.1871285672580187,0.26851648490836244,0.1828401112037774,-0.13256111897117223,0.47973048603843405,0.6113283324649454
-1.8021289414360044,0.3777622983081913,-0.2798879612588968,0.13631168503587332,2.6729985197531274,-0.26174361758484577
1.9574900030502198,-0.5865432310200758,0.07995002720974026,0.26388590504843257,0.5132110334322173,0.07429705110345416
0.6638104635368802,-0.04145281946841889,0.3635862660345877,-0.7545438152850444,1.8413119181347877,0.19294528494514457
2.0661286773101306,-0.46934083992300024,-0.1718680650536496,0.0656583108647721,0.6458197168749937,0.013334037151874284
-0.236323766631913,-0.8148337069217685,0.10574551132141408,-0.9722416068433262,0.3654561232456809,0.9419502305217016
-1.377610172762673,-0.5402606734188407,-1.0019752011546958,0.755070072700802,0.5224207756810996,0.28270798048976375
3.9035692813867913,-0.6177771423164105,1.007011613471839,-1.1846039507871673,-1.0292559156286278,-0.06347982453587307
4.188035589018005,-1.1055515494196324,-0.048327260889495044,-0.042877652266040234,-1.4301315355931625,0.29542856240975784
0.5057080325977574,0.09021486551837249,0.27242254996437465,-0.6271479902526079,0.3317106272184738,0.07484414668298989
