Gx,Gy,Gz,Ax,Ay,Az
-2.160526000000003,-5.280229000000001,10.937821000000003,35.62000000000001,-508.6699999999999,59.038000000000004
6.015613306176608,-7.5267859827067705,11.046158252833063,0.6564663481578724,0.07855968411303804,2.3526652821421057
-13.507225724359696,2.904659043295876,5.713890639513135,3.384800833688076,-1.109661442091615,-3.190525123398164
-1.626742048364359,-5.205415888177921,9.222922854286928,1.2784993935581466,-1.2866918990969742,-3.3573744832744357
-1.1903515108224965,9.219573561147163,26.740555886397807,4.537618155088219,0.8223416676146089,-0.1375220420512182
1.8106255897739931,7.3913516837002575,-30.536310740066803,-5.713791677167149,1.1209496241367123,0.5406106701751698
-3.743605668441577,8.813003775834803,-16.105534592956424,-1.2002166535107353,-1.127864979940294,-1.7001373391108512
3.286308228586218,10.352333397681488,-9.964580216192028,-0.24605183603335823,5.865999978428398,-5.148045195563933
1.4295822981239463,-18.65956321008583,-3.1887405564741087,1.5320061150008835,11.001329101997019,-3.3519849715404284
-12.586962057227847,37.72769313075131,2.3558072364577534,-9.609409641206309,42.51401068357205,-45.113518046729496
15.122919866536275,-4.3909016977698805,-7.135708021194134,2.898309259190445,-12.831511899263925,14.815749187701591
5.073106539015978,11.014134921561473,-12.445956315277312,1.1675996031786111,-10.078404682090188,4.7690459588941225
-3.505207346508313,2.775676102043881,-4.328238216635004,2.3269486781498196,-2.258784621446181,2.782929463468069
4.109454485679453,2.942163657760048,5.032591830203433,-3.629149787488621,-8.42374089536736,2.884117943605293
-20.26631143557076,-18.345869331732935,72.78101944166279,-2.2564216015560667,4.774274443538495,3.0066079981672944
-4.428855135476213,-14.67888023184497,19.974504256716944,-0.04578701443011535,0.629985771174292,-0.5005601510751603
-2.531698960465438,-3.267863148318341,8.272110213533137,-2.858773250140715,-1.8900554743964004,3.325050616351583
8.059800679369047,6.920012437990339,6.799169775587238,0.43288698287175453,-5.959470452462686,5.058839334520616
-8.278206050755802,-0.9764405348872811,7.7566721558923275,6.034964278254181,2.0584148429217537,18.70921172424046
3.98990792424806,-27.724540284171926,7.833261922476719,-6.546154885902796,-11.497227389269298,-11.545253695034884
7.46275330615062,-0.5655490148725217,3.9463263734116105,-9.48486704221366,-5.218585082087131,-8.958825579483264
-6.052870721443256,-2.2934217762335294,2.896450391353053,3.584975080224826,-7.1283199171053795,-1.1231220541829217
-8.064108236288726,-35.30277129574385,10.08390758115446,-5.026407829197449,-1.6262384389203541,-1.134430568100329
3.1191039886050382,40.31947409945017,-25.636153552246178,25.633636376896597,-5.446833067619906,0.7368290304625358
-0.6235178828913854,-16.275356140390173,-0.5229241952325809,-1.0069644026065068,-8.466842514523208,-6.172407671282043
-4.4387834327056,-8.534261179759858,7.849629698970725,-5.923324317346356,-9.09167050128347,-4.595528631469117
-4.535114021861539,-13.516992661825523,-3.87943800719725,-10.201477451142555,-15.478132465272722,-9.591264589442194
1.0358661475449644,8.49375889026279,-8.883413967332121,-5.987806083043967,-12.389519597376323,-3.1527399540628185
-13.698747245836218,0.03293285012692504,15.926175752770263,-1.1398577119394624,22.666421905433527,8.834150766337757
-8.390092894564738,3.1604132082431424,4.837208308245831,9.812143101343464,14.166797491192174,9.496885639115117
3.725298898347491,-8.289816276786159,2.4864817219211477,2.221813760350749,0.7348884754040927,2.727495941892899
17.440603559022282,33.251288887637784,0.018196431687560466,8.838845854069872,0.7458226193123441,0.7646220445949308
-4.292893516153896,-3.90092625359091,6.836327171200523,-23.48494903792583,10.13865479517366,2.989933604740064
7.053299379869185,25.069163867176243,2.2217089758609028,27.80413108839911,-4.896160066845904,3.2428303831992515
0.25667732403970644,-9.119696941286376,4.349473119078788,6.220656993474947,1.0491289644860946,4.556503785303933
-0.9402816937308289,-3.6397270207339796,-1.0641022881152455,0.8923693994395269,9.822368470587882,2.7163862333678015
-8.313586027692235,-2.2877574481056544,1.442795953396204,4.295530424236389,-7.286505532608144,-7.18629922290694
30.062689361812005,-6.718891714192569,-10.082242351120057,-3.8419419550349705,-24.168818908881363,3.923829218327117
-8.00926162128609,-14.326688071621291,-2.2412176600320537,-11.052177306360297,-4.399536558612878,-7.244774876273256
-20.125004026421713,1.7931269131706742,1.2672668899253512,1.7206721657669029,4.263329044640784,-2.405355539772242
-27.004140029650685,-9.48693206116244,0.39666826269593103,-5.15775929600412,5.910609493138775,-1.845207326738906
-3.0006226272905865,2.023631735085964,4.524394752287266,1.745565642492827,1.467761447528825,-1.2682710442136917
-3.578637117822069,-7.336038301146808,-2.1404691045450566,-7.019886145529521,6.48578226474077,1.3274331244759594
2.6123560866877327,9.449790708172396,-1.3353667923599315,1.6336341399712702,-0.3360837707735077,-2.8373665613233983
9.0140506674663,0.7591639518320488,-0.6882322947669498,-2.6701972345033864,-5.307291856889776,1.865058544661017
-1.5295503862453916,4.114175110590185,-0.5815766046592896,0.30137753198469786,9.845148700830553,1.1603085874664103
-4.082344932526816,5.1885600953402715,5.683027064827555,-0.6867434006050237,8.564653147826796,-4.549304480676804
-5.184823929502681,0.5366866942209181,1.1255617601704069,9.239948461308982,3.8718636673684763,1.666996851489329
17.216694715977972,-2.3304681597140977,-2.618043508748888,-1.6559616289487524,-11.779967532934826,3.105671228101801
11.840689686242165,-0.10388305695661648,1.317891802953742,-2.8693402358442768,-7.314374411382097,0.6346986931582821
3.2278118427456715,-0.2864684890215572,-5.034308823414614,0.7100062853716868,-2.799837242909531,-0.028672143724724153
6.818091430304976,3.63801416456705,2.3489392604170654,8.49503194266003,-6.671062725065894,-0.5077274486561962
-5.697904351075686,-1.1443866276952743,2.048864931083627,0.3815979172315983,0.7925515956915632,1.4223684998349895
-3.139970443884445,-2.389803966739495,0.22573718672414833,0.20708714915833554,3.329891697675571,-1.5196694338991512
10.01607324186959,-2.217686885316155,-0.01543497822018014,0.16179844610198613,-6.211822289296731,-0.04797913040751878
-4.622889427036664,-0.7772618068884736,-1.4650210446919036,-0.7303535893696568,-1.1036404522901828,0.28639549975584
7.987235874782451,-2.5145974622630263,0.7779316713267672,-4.57801725058243,-1.8486928957978392,2.4306554348340277
1.1588271505163315,4.543194041311189,0.6619391376632011,1.2246468432855595,5.80035381470449,-2.690378618690824
-2.341203882298271,9.253204432994295,-2.293044600861369,3.1706235975923756,2.9135665122312857,-0.38107661447556457
-4.2488796371474296,-0.35102955953292314,-3.5220094970160547,-3.9714879007286434,0.14299988593960578,-0.5443640392050081
0.7313097301591602,-3.8339251499396356,-0.8878801874568609,-4.189277241092358,0.208509049708672,1.783028485550696
5.03481551198231,2.8924918751705326,-2.02981053132491,-2.1430841011903334,-0.20408803213041704,-3.013203413890662
-3.689170307480113,1.7996296068211175,-0.8909488618811681,1.0670221762553804,-1.4562788780310574,1.5531067297921448
-5.691992413872486,-2.8719132460804575,-1.5664649991704511,0.5708350293213675,-0.38481358056309745,1.1224848817611237
3.211514167423256,-1.243799244846156,-0.7901695919086774,0.004483815630056731,-0.5797661539248201,0.8195023172242737
-3.6351639957882784,0.3125102978895291,1.1771957992304218,1.496872636620037,0.6050049282975186,-1.7310981706407558
-3.5811418439789096,-7.019882475437683,1.2282866874040752,-0.5235379972718701,-1.286089370438951,1.3914786401741288
7.805160825651163,-1.7821877542338,2.2434222766638916,-3.0582035230811275,-3.809537279774312,-1.1692773759028858
9.262741164665425,1.6533070538434385,2.1628893503052717,2.236342522832491,-0.8072437860470447,-0.2783928220377182
0.38869401509356194,3.709368405890162,-2.645249325083583,2.836965487200885,0.7377949339310885,-1.9405614281285943
0.6330278157805551,-0.2258552000352867,1.703609035158423,-0.9069967007470379,-0.24701427081741123,1.5961836980240252
6.2451291728903,-1.2975267105738209,3.950540179758876,-3.0384079945814157,-1.5575013860397853,-1.2259094239680375
-0.9896209246334164,0.06440382109277476,-0.16331908935465367,-0.8531746940319374,2.3734336270586573,-1.3346279400535401
-2.226795738702441,1.194786695531533,-0.7320686625390113,-1.214074826010893,0.048592230646472556,-0.6905272375158167
3.381932634801094,-1.9133089719084024,0.20332905636348286,-1.708263323463449,-2.664939227096716,2.6667239289421594
6.998413798734498,-0.09450083719760533,-0.7524509076403582,-2.309417553136242,-2.0069995638563984,0.2047726634687419
-4.925215171558799,2.761890435341919,-2.5687905896378393,0.16038071897482692,3.3955163798977557,0.6500447054457734
-7.815599890391434,-0.8246533733589858,-0.34570455016880697,-0.6902444020135063,1.1558397113770837,-0.2319696954651862
-1.6081258271197705,-2.019122601107006,2.491239318069299,-0.5826180133306851,-0.6506519903892369,1.2805895540040768
0.8007892571622808,1.5332354954839342,-1.2701293164469343,1.1231289776475697,0.1933649803420785,-0.8834240207647027
-0.3655041492045974,1.626578443163588,-1.4785403562127541,1.8498262858544305,1.2370922389071914,-0.35783629495221425
1.2197117040244208,-1.2828581586617305,0.491908689047851,0.28477478580570204,-2.4993713014815695,-0.04966822036138707
1.1154113182386736,-0.29068703377100236,1.3655485766866156,0.7132654913364598,1.7131776915071932,-0.08022747812447306
-1.0298072570043701,-0.07858361532594571,0.13423410390400048,0.7854659330464107,2.7598016229399884,-1.8523076169067043
-3.4551118932300353,1.0007496524869541,-0.814993902543617,2.241900365605598,1.1010289531728912,-0.9083956566176297
4.899272593670889,-2.6809851043564557,2.200481534364778,-2.5077949365399754,-2.427857641029742,0.3805206322613326
5.805802073525006,0.03285569138742678,0.5768263516980497,-1.2564092227198955,-0.615065351842538,0.3277033311339723
0.41760105899045574,0.6663296278609696,-0.3285410420927828,0.056776813615041055,-0.36236609206128256,-1.131790606677717
-0.15467742485380997,0.5206912797396139,0.3141486190949193,-0.8071379441713863,0.35584895668007543,0.8885383213190595
-2.2792324200927823,-3.17041187753668,1.3969995418452439,-1.6691440079664832,-1.3971416315416008,1.0639344215173105
-1.0200797563261073,2.5127357757183133,-2.5175401134563575,2.021645540779622,1.6184494398647788,-0.5627521670740734
2.37839419420181,0.9834703408080823,-0.620068448623452,-0.020455651841332995,-1.3536971056447324,-0.0656016314216894
-0.8403738908934344,-0.6735353030974913,0.17414956503156587,-0.8604312316237143,-1.140010675741002,0.594884285729147
0.19481112088312824,0.7378546728570905,-0.20669364908312937,0.8075067070885495,0.7018047974886494,-0.3451456879118662
-2.980204459741938,1.4585376566610453,-1.2351276622790617,1.7800727759661112,2.6837461826738096,-0.8507840293252317
-1.095955827866707,-1.4915189028316294,0.4272289507178243,0.02282442898714615,0.15792376470505404,0.2207408633617307
-1.308677547800324,-0.4583069536679552,-0.1935171532130987,0.8719875117324493,1.0499952357438371,0.44559241546636963
2.137314199911997,-0.01627445234144198,0.538124842399148,-0.36102406154945,0.293108458570035,-1.233476343118777
5.018244973304417,1.5187632006678753,-1.0357105617111118,0.4933580570625968,-0.21503969505291032,0.2950527453054501
1.5307728410913777,-2.6305788976220073,1.9989584514870176,-2.1188357526520942,-1.5832243859503277,1.1901538695534286
-0.8492447397889903,0.38746641182771974,0.3567311521489405,-0.14462907072623044,1.5591539952341087,-0.3132533716130276
2.57319549851145,-0.5632528311612962,0.4630478431902447,0.7288018923046482,-0.4744252802932033,0.8594643085153559
2.6780618625486556,-1.2877170580740271,1.0864739352500745,-1.62203760887928,-1.234296699513329,0.2974527767058446
0.8866993506781939,-1.73698286307132,1.5017717899654117,-0.937757622819138,-1.7218831275686854,0.24595340040569685
2.9511028228826754,0.045713362953198555,-0.5631094435880588,-0.4969405201466922,-0.5170705626060638,0.3562705700124147
1.7335904198441896,-0.010017170634315398,-0.5467187952513526,-0.2134658147631894,-0.8072103326158375,0.5022135344341272
-2.3306342378958838,0.14654542515241537,-1.365855840106904,1.411533217937587,0.3376428534473677,0.21231246072384474
-3.7783974461099366,-0.4330805378969582,0.08097461842691167,0.7081334276356831,2.050344876603266,-0.7102199607065576
0.7878745507392872,1.3804241679128844,-0.9316557152732019,1.3388964589413612,1.0267743216348169,-0.5520639985480831
-0.627588190291976,-0.23283293885117406,-0.8566048150975537,-0.2100369481148766,-0.560759325480141,-0.2462660963421348
-2.3639766686900265,-0.17335729988550863,-0.7372578169646435,-0.38588789081115227,1.431689949440808,-1.1164343053570678
-2.1472807226774537,0.3834987103002814,-0.24086389571079003,1.1296958540932565,0.9281002143586268,-0.2094856750029931
3.267986516801151,-0.7398241114337413,-0.482031153438538,0.11979695561323783,0.38134780095435605,0.2569111876642125
-2.5734271248040996,-0.3318302682086418,0.7069864310260714,0.30472898450043673,0.02066101690584643,-0.40972765593719035
1.1222790104644806,-0.6663559872311013,1.644530608569047,-1.0018442160449426,-0.46303052315877535,-0.15438446959658386
2.8691254433175306,-0.44519040629996054,0.9902671422440188,-0.5347311959546388,-1.4633585413907444,0.6461340526565884
2.742616178032752,-0.6934964429007916,0.7550202408434512,-0.6858630641868488,-2.3942352246982996,0.488066544878017
-0.643238542627961,-1.519865224190112,-0.6722922238093315,0.4994236091102079,-0.5088879408405727,0.4363736379198623
4.055817537275915,0.035149698498087134,1.224297948898974,0.37624824295565074,-1.3919029901289992,1.5125920060744156
1.9144899580333825,0.6818415045346513,0.23682788834210688,-0.09251925349094825,-1.1642581120963502,0.04905914586436699
1.112910443886098,-0.5837408763561209,-0.04458949350314756,0.24252652069583575,-0.48406236537134417,0.16269414716842145
-1.4080336307939796,0.010915045121778988,-0.11295921978041734,0.2677773688959007,0.7335112823347765,0.02047263406342903
1.6325875096819622,-1.214705805189551,-0.12526267795010865,0.5999890422761333,-0.5698869187655948,0.9978197418890081
-1.9839664763045872,0.5059089822260961,-1.0442148605980754,1.3528374014102882,1.3889931516230811,-0.23980058602485949
-0.7625668873249507,0.11219881667731402,-0.3147665741415988,0.3750957546504774,1.1428198332530646,-0.9768487442897327
-1.4314310446824008,0.28382209350561316,-0.09198939116246779,1.0058667170739988,1.2362513075068182,-0.3552542510193668
0.49291535997729896,-0.5983572267901077,0.6264907920984519,-0.48833277700953504,-0.20085183127399464,-0.9671860842266468
