Gx,Gy,Gz,Ax,Ay,Az
-7.482132000000003,51.227926000000004,-13.882144000000002,-16.482000000000006,-619.304,144.94799999999998
-4.8052004991688,56.588650119990604,-15.25884204926501,4.2935541241307345,-0.9436935636074493,0.8277615993332413
-0.6042408496365086,64.57765364151761,-5.864935752412538,0.8264284893685273,-1.2923071454958637,-1.8872438667176143
6.79172513541366,55.08908347644647,4.452069042514252,2.6732157193717767,-2.322773579732272,-3.7224577642636563
-3.0583142028669883,53.1655892060074,-1.961346600567544,5.908028745880429,2.431610959423125,3.4301001502780997
4.900511788420895,-12.377074035144414,-4.766722439250984,10.670251261359768,-0.5515965087923596,-1.9274208622790705
-26.132060861385874,31.775671298317967,24.52985729622514,15.716380086362864,-2.7494817086950247,-5.037792166200067
3.022519288634289,-87.78051254701258,-40.10285049936719,-30.425408493307234,2.969285916005033,-5.776652149323392
-12.486784898906254,-20.488756858438762,13.272499415459816,-5.573945828569418,3.518591758702299,-2.2567866942657444
13.076900231780398,4.232259734224982,-19.22368754040261,0.4098964866029418,3.9089493098981842,0.9684630304932242
14.678357121619577,72.14366244908598,-24.073086458006276,-1.7675163455155536,3.890947033053257,-6.235881233998226
3.064633022044876,6.2644640383142,-3.179983905118962,-4.2015483512283005,4.306053505469631,-16.93306293827817
-41.67239329968334,-37.91957732782297,1.8892980915506417,1.2299869685560683,13.495570406899592,-17.90111968847349
-0.9479224618919355,-24.7814547135348,-7.597893780974122,-0.529387137720863,68.41260080212378,-43.73645779632645
7.233882516426776,11.122687961118837,21.86302958494388,-3.5247416826245646,-37.3809261306823,27.049013078069414
14.20633162941599,11.685478319862924,-14.077693491740806,-4.561394863788219,-2.8934574403498905,-2.565306971598748
13.102198613688378,15.157765552483058,-1.7412171292130365,-2.550101409957483,-6.787896881462086,6.073302211882437
-7.6697631086360705,3.580267125776781,-7.930822179203509,3.0569397524338204,-4.071930979669635,2.5605463900380094
-16.39180520203853,-39.61971806351069,-2.230535436640073,-15.144888777751131,9.881640324279317,6.06463997132655
-8.125942121991423,7.672259005923843,0.058765237464882825,-8.470819860111341,6.190836669598788,-3.3822069603838743
9.324358619550452,132.22191748816107,132.17713803638827,29.043224564688103,-5.0255942632669885,3.0145130971073533
-19.551671695546432,-67.74635449811832,-2.187776806300207,-23.033672180070596,-10.170515385201437,-0.09552889513912965
2.059850172359838,7.580959270247686,-0.4878679904480099,7.600621918830107,2.480892655050822,8.824655108564528
11.933280202560402,-24.98477389483852,-12.243833815869246,7.1940679094820394,-0.4152818692950374,5.516574254726808
-1.4093381981852338,3.9868209449044834,-12.834643871651293,2.611421244287614,-12.94886801367799,3.622498690879845
-20.43291841011966,-64.51428489023958,11.430476346675599,-6.552443239192564,-18.872955470272252,6.691640011428917
15.442843908177219,-9.864692545717464,6.776295180147473,-7.4908461876422505,-18.33697461410952,15.54007917093335
5.934255206499731,-38.03133106338937,10.420878975579283,-3.530764072248272,1.1139535370977345,-30.65700365124758
17.35087813331113,21.596148655585367,-25.398230232278475,9.678155314062773,-4.160999386990046,0.6370105302669623
19.26936631012229,10.576110391756966,4.125459067195589,2.242112640660905,-3.276546173604225,-8.309906038490157
-21.057918196885808,8.47390814503931,10.167424914905524,3.109170775970003,-1.5476903648432525,-4.102965262883011
-17.050840762193975,-14.406213177950947,-8.849905389490104,10.203170391708625,5.731534240836246,0.8655718160805543
-12.568588183944495,-29.68390467759145,-16.67177072309329,-22.975503576014948,7.3622240152444745,0.35280572549444056
33.86154777021687,14.642221407666804,-16.675199148792004,-25.034266738464826,-0.3465426716625899,1.715406456731344
-14.208746775274328,15.482626241934094,23.65874438591238,37.216702643106366,4.3954716857403735,-2.964456948025073
-4.701322622700998,4.573401981199273,4.84877542338006,-11.43964264055224,-12.982089333270428,-5.810039334515398
8.111776058830694,12.946275830662463,8.074121583742745,10.617298467535365,0.9860124528587875,-0.7314396023223197
9.895220255482764,-6.6489391233681445,-4.94813256415361,0.6645469915664655,7.5439149685155975,2.345674611161744
-26.26410449524191,17.1012617610402,-1.010393830686498,10.455381932659012,5.772923029233618,-6.832647018850636
-12.220785140459299,4.734681370868696,9.98529840591821,-9.090630085973475,4.97894108345879,1.4550924737471647
16.297541670241532,-12.451326791457527,16.207440199103328,0.8045316777082174,-5.531091740243366,29.62703331403562
-26.115808790507035,12.066870717117538,2.426610512927037,6.772244924671159,3.0569280878466865,-9.099220628958712
14.859811839251211,-18.832157827229842,-11.777914786913588,-9.323725694118203,1.837497508675841,12.631207055303815
30.281514135047523,-2.0444706934018164,-4.591855618279467,-0.1634483256072472,-12.337956423251565,-0.6450225859759047
8.689544065904041,12.203129751172707,8.074379938956985,12.923673952114598,3.6324354927010756,6.037264183799159
3.220557713319156,1.349255881110956,-2.7971520356278106,12.950272489195735,-9.616871153788383,-4.112521922257702
12.93900010898107,-26.934444612166992,-20.411716098273345,-13.548201425994906,-4.911421177073427,-0.10248770046546452
14.638198277747232,-2.378208440795306,-0.5038405604041427,-15.038319977137434,-8.85697676057008,3.770927301902965
-4.11615137958014,-10.100943661422606,-10.042690913501037,0.3688006947088045,-5.096589532916608,-2.066028887166447
-19.719796322158576,-4.024690204439446,-10.55034741868273,-12.69444170559089,8.344534650037957,-0.9813292897978207
22.06976000132694,-4.192706154657051,15.191996738980247,0.6752489538942406,-4.273210934310419,0.43366519866779196
31.23272914710838,-8.852141139664237,-5.231496782106821,-3.7058966437828462,-16.359952619098266,7.018710052315991
4.140716405662214,-0.4202852672023667,-12.801148424657656,0.20286389159832696,9.365004726744015,-13.049094180317645
-4.279212224944676,10.200289048139393,-3.7810034554697465,3.2178357621634937,16.634606786515054,-18.602370699683412
6.767366706680438,-13.86942426132684,12.953816447884634,-11.756706363732958,-10.078344528505053,16.846016374461435
-22.774898136795187,5.829974275784098,5.323119660295028,4.538063593557636,16.68102299178375,-13.34471451253045
-32.391006305000886,3.433192679253345,10.060750924413028,0.3851775921949889,-2.0169611855960987,2.7109621782020055
13.590379500605144,-0.022707425218917887,4.961537958795461,-2.6126109845061602,-1.2541347791553892,-1.8003762009682274
2.690237776905155,-3.6512357562358204,4.473000647264307,4.770925074121489,-5.007053354874566,4.650381200069297
-7.021039195197455,7.546620286496548,4.829930459483698,18.871978212981595,2.4618732075296186,-3.902715384209137
-10.040714714482359,-0.2595579025919257,3.4359967831856757,2.56690608005533,2.548666659667968,-4.072176962391322
12.808964897279036,2.2476611714061443,-7.336826217299375,13.22054880299364,-5.7026224161074515,5.8960386648705345
5.768732718839515,-2.772575868462461,-7.649128911246637,3.773465143021049,-3.0904458780591835,0.30233171206660403
-26.252758290390744,3.1447275162341874,-8.279957200270138,-11.688302954974063,13.613908518469602,-5.309464210003571
-25.52892665252287,0.9958822724793741,11.62942042108719,2.383235335432997,5.003300256757651,-3.318336133111031
9.638410948278354,-3.8069483443560372,1.8752364686086125,-3.0212857328790803,-7.098776327100026,12.813272743491313
3.8210877675264676,-0.7954140444394007,-1.9245933658429544,-1.682656403599918,-0.526654857655835,3.644995836914882
3.3523447935854906,-2.8836547060472264,-2.308124631191444,-2.416031275943159,3.1180960558766495,-12.110353664458238
30.473883207082622,-6.517422467602117,-7.019342354571217,-6.78197215273889,-9.11228151172225,18.330088006546102
13.342885467328976,-4.289881217221044,-0.9531022992714444,4.957122810807881,2.1015450957204873,-4.772215716264584
-11.471909532360748,1.2995108752058764,3.8636716986744704,-6.168483452045863,0.06315535666120531,0.1605206811866964
2.7614817684296273,5.235125287984173,-2.0386845230657076,-5.338751688175776,4.559358648050124,-3.7963299748434607
4.928727497767818,0.680110885481922,-9.972060545686661,0.3896340439606967,0.27393201323156857,3.814674578167514
-0.8837690675176155,-3.514235892642361,7.060682595539423,-2.4861637929036142,1.0017138882958398,-1.7055644643270425
-23.724103903696232,4.822188820834153,1.8671507781963996,-1.890572668006961,6.093778574032672,-2.098569482422049
6.6716502878148205,-9.25165156773322,-2.705342193425185,1.2278809203396142,-6.03998816076985,0.800556072402602
19.058256947574186,-4.457884187164789,3.7461963469162782,6.859706609986551,-3.616811474554462,2.3937488873754247
0.7600480388502291,1.2296305142024773,-4.302263908505822,-1.5612740478001181,2.774200278553243,-0.02434501541099543
-10.950232234371876,-3.00845932024062,-1.560271480366099,3.728698624750937,6.71342468073764,-10.095096606697277
0.6898549610172631,-5.678471979833254,0.3399346224160711,-3.0391947888948825,-1.7564737468724028,1.630457900176296
-10.319092052158705,3.7800354163416765,-6.38848132446817,7.826738972263631,4.393421880919449,1.193002992538541
-12.659454360607185,-1.4300864762634764,1.8700090895592818,0.4939134996862671,5.345440160447398,-17.625946372910057
-1.4957533708142865,1.490633919915068,1.5380749254766979,-3.4168908663800126,-1.2896660916625944,10.67395056992481
14.497731953305617,-8.094777523505034,2.367267130631854,-2.773692262375744,-5.27990768598881,2.010575021615561
-16.19141925209712,2.417834835017998,-2.263431794606747,1.3538070913703384,1.0017930596671367,4.438196738298552
3.8965530824137176,-1.1887078028538869,0.8340188849421113,1.995768850633322,-0.7665400277031074,-2.0940970772939815
5.124597516161927,-2.2439333769983705,2.9693510330632265,-2.395888231893066,-5.958956709254397,6.119697510393243
5.5659941184614805,-4.199505196482176,-3.886657031762762,0.05574035453068671,-1.1477566805269648,-0.31249849715560174
5.289659009169735,5.5874261840823785,0.09729206257881762,-0.9023341823067348,3.5636641919792567,-0.8574769790828065
-23.387892561368794,-0.14647087630755162,-6.219597453172932,2.6592664514286,5.791439543829704,-1.9639697076827871
7.103513003452315,-3.6043586554304055,3.2682726277631122,4.0240904425134865,-5.288985540943178,1.9406921848653838
4.6476585241618675,-0.028881841569584843,2.6739071791100284,-7.891856879337775,-1.766050945369963,1.553367697958608
-2.952112671745353,-0.07887292970750082,-2.4349179522658044,3.3686960505218946,1.762603689796376,-0.9432936788766142
8.187380526020057,-2.3354816183372717,-1.6091700736939973,-1.2222426042833066,-0.07285679573060255,2.8488566489735248
5.2433820207143675,-4.004547145061008,0.7507141751527842,-0.1034145219418443,-5.32712434032279,2.454922899123507
1.3386517632032193,-4.433841131357445,-1.7007164810096735,1.4462672623282806,0.9432518355928132,-11.948318867921223
-6.768588623865124,3.372366549739069,-3.5532189643066814,1.2789672389545723,4.8391477487132,2.706958848897164
14.78541004685543,-6.985407997188786,1.5166749910724118,-2.5051828801115024,0.37043133946104767,-2.792627670605534
-6.9758875242564935,1.1871272697567825,-1.2537670204735942,0.4674312017403146,0.25798685729073645,1.3447815370463
-3.4734963554337757,-0.17892457308269538,-2.057741531566549,0.38544800793904743,1.2810100797903061,-3.1067337102818975
-3.2423519253533963,-1.725769108486352,-0.3839140862362918,-1.795699127998791,0.34263581046273306,0.7021930640477108
-3.686775305927484,-2.8247643777130866,-0.1833360731124175,2.6565165468081284,0.21805387151425393,1.4702617294371914
10.143085864996698,-1.1820054847578372,4.0828530096926,-2.1541113448116116,-2.012343148009115,2.3274362106916233
-8.206262218646902,-2.82749839284497,-3.629616864436558,0.2755018102538127,4.041834512037026,-1.4458144299699
4.317969099972883,-2.4542961294809293,0.6412416781170546,3.29964959578347,-2.5469574966136435,-0.09480679247016344
-6.207588719820405,1.3732517587439557,0.8174223249425816,-0.5142271446221425,3.234573927759572,-1.8516496272557732
-3.3239735528184866,-2.5413809549146933,4.175361758583211,-0.20659769850500198,2.1574100162939485,-1.5783197891692404
-6.4399114218480875,3.834408939153949,-0.7618989630032902,-0.3515902462325542,2.9449947380987727,3.5787267234240576
-0.38446840419440154,-0.0864105392974095,-1.8647018239377764,-0.16750076208499842,-5.200899373460032,4.331942986717684
0.8061205152624442,-3.966357501884905,1.2242746332964192,0.7623866566364618,-1.2617212661561021,-4.213958013400296
-8.405558400641796,-0.2147988124864133,3.277666069547455,-1.5849102105796598,1.825213928299136,0.7122293559388534
15.415826226361085,-5.492263592588996,1.1837323438591931,-0.8911954795123831,-2.734242964866254,0.7949470831712943
0.14186164069502816,1.4783572305538535,-1.1528934379215579,-0.05165022600521896,-1.2378957529044872,-0.31107707654138883
4.6765843666577815,-0.8305289368442517,-1.4448536987494305,-0.38427102763408083,-0.636090410627653,-1.175360410350185
-8.131158979133444,-3.968934073358915,0.27279702404953743,0.7773111912884089,5.279663849913508,-1.0979884488212814
-2.4703933242594074,-0.20266377379130107,-3.0249519162280745,0.6897835855744916,-0.7403181219357178,-1.0692081131823288
5.907192996646142,-1.5412836437771409,-1.0854393415256018,-3.3994773817120256,-3.9788417082247833,1.5512985816505775
-5.902656615262618,-0.021055207685298782,-2.0424330212125597,2.792754928821771,2.0936374410896526,1.2402005835997691
4.235729606724597,-4.457939393919692,4.487967754278892,0.31105046252480184,-1.4021265948722479,0.35771220934823417
3.830921848910709,-0.9111161973355029,-0.8964235584132001,-2.990666596298844,-3.012625406943421,-1.9141003996599788
3.6485117257033917,-3.079690836429121,-3.216725282597981,0.9695818148778748,0.19657938086520765,-2.4112402801917208
1.4030012076426976,-0.5838614418737317,0.7333768361642656,0.7974186581683465,3.972344113204191,-0.6836971698525522
-4.199467495432845,-1.4475300831759665,2.1172470631663507,0.32066264830040003,-0.3191507982552668,2.7835351497068714
6.8573851939053485,-2.140481798158556,-1.8213858427770921,-0.41616832990018265,-1.4027028132099466,-2.9054119442540647
-11.526689517465705,0.7286642617595862,-0.1731326396580637,0.4868242208042157,3.878397601436309,-0.32396649102469033
-0.9571837865377675,-1.617844947699365,-0.4052527025797712,1.5381818877002915,1.3973255719394557,1.9690990494443648
-8.539492935538453,-0.38415683362249875,1.7528439181454472,1.342111083386774,1.2508615265942378,0.5515093608028072
5.128111022402599,-1.9414269280514764,1.514043560605842,-2.503370134372515,-4.090421646105727,-0.05462667673558852
-0.9358296914687712,-0.9878292147801104,-1.1023329552902825,2.1576200270286927,2.1009425011876606,0.009088551176661158
-3.2517768747914513,-0.08429227211818358,-0.38245592421012076,0.7047552932562078,1.9806591517644545,-1.0737191927069705
0.2055440559079571,-5.526778971896279,0.8272283112010594,0.7195872154729299,-0.4923369344644257,-0.24536169739500124
-3.165288885828854,0.5435367201343035,-2.13024156168941,-0.21147584219680526,1.2141424220494992,-0.0216752547326049
-1.8995927910294172,-1.4942129095294319,2.4075527788317457,1.226092545682087,0.22705192759393356,1.849020998550829
-2.2996691236795264,-0.44798551960164934,-1.3785211076288628,-0.793636444158304,-1.3680724830419835,0.371051629365356
0.5007260896360707,-1.106766919795922,-1.261927439091459,0.1139964662068304,-1.8685992235429607,-0.7632131683549535
5.596869493362579,-3.4613157792468496,0.8463652302475981,-1.23668211260679,1.0923356569462694,-1.6566357167140062
-2.5844533729779977,0.48419989418706266,-0.5818935391510376,0.3307738655272552,-1.4635475674741638,2.7614845852477528
7.919709218122092,-4.404026980928926,-0.9143618044222701,-1.2976956062452418,-3.591990130099228,-1.6149069366657844
-5.38458788615487,-0.4611462326360279,0.8745994682403859,0.5706781310571545,1.7358821839066425,-0.21281959660061744
6.283562272228945,-3.7746027643803606,-0.5749691366967609,-0.3047674299570895,0.12355589628152175,0.1590989323811628
-6.071520842572909,2.0939490427943257,0.5998873661181647,-0.6807360700373287,2.271320921473869,-0.29084226505848476
-0.08987190973787396,-2.5781095708600272,0.031608897449424744,-0.7961137935844923,-2.851719578838699,-0.9273239890293334
-0.15336383164693057,-2.629307740429091,1.7788497656405677,0.7165889463724278,0.18904931201641734,0.0407281999922644
-1.7046499278716087,-0.033687063475736134,0.09269553792154905,-0.649448156400616,2.3335975375903857,-0.9171190540492304
2.891875049050099,-2.0929156737492796,-1.8953848934424466,0.6169060593138901,-2.2487249532665,0.3288886419949286
-0.4679830927424873,-0.7175697643771795,-0.26717976159900725,-0.13840298746695834,1.6810574134654588,-1.5765415806375112
-0.7130056989751485,-2.7188782207210904,2.05964636840684,1.5363365205909052,2.2353311855785547,0.14795831078199134
-2.594619965861424,-0.8422618038585671,0.5959517597979038,-0.3689014404132851,0.22314893778642875,1.356222290753992
-4.398563156719572,1.382921315624684,-0.10871169094056077,-0.5558617379986772,-0.39473707877382,-0.24216301674032337
2.5468442638769253,-2.6430751860634967,-0.41879585318595747,0.30766086370315515,1.4197471215849764,-1.1786633287088457
-5.657208556861863,1.6080657306674788,0.4578821306886095,1.0847674814182293,1.205007491558943,2.1116740364555575
0.8792678422536506,-5.955758628100771,0.04212148914540648,-1.0461773140792834,-2.59837906124174,-0.206098878453422
-3.4292364440458796,-0.048375258188236625,-0.2312751402886229,-0.2817296083495513,0.0571615346283445,-2.1091343153886317
5.496243925384084,-3.669654828994071,-0.8527925546971291,0.903745900376536,-1.9652254707268693,0.9318670667795499
-2.1091959228980977,-0.7282385959544952,0.8927861384571689,0.17723964575383389,3.087626843966304,0.8566098197456771
2.5395919855719074,-2.5824033567255715,-0.36831244148487574,-0.9004754626477649,-1.6443506173914,-1.2050116351393436
-0.6436205313615966,0.20824828489353575,-1.2532722091008797,-0.8451785820209197,-0.8669797137481994,-0.2772101039963504
