Gx,Gy,Gz,Ax,Ay,Az
10.099757,8.8013,8.033764000000001,6.34,377.11199999999997,2.684
2.4129211339518997,4.946099202251137,5.492080572236557,2.5817374747425443,3.67374608854608,2.11740879929191
2.400617639116931,11.459443477693902,9.528305745624797,3.3989561617796675,3.6375916579464667,0.7782672692879339
3.4780864869990964,8.817041537217827,12.188244021741294,2.804348497902966,5.233442348886629,0.7785959506616097
14.237491686900226,68.37569242860778,41.05811230242772,11.059813698796162,7.911103431291568,1.9135131384359403
6.14814093823877,7.9414359784043755,12.766645549113184,2.81234405659405,7.627915993406528,3.8846561432185234
4.147510133302536,17.304351462399087,3.89233848207973,1.668106410754464,11.219402662112389,4.641230390128154
10.929162174562489,8.964923923335254,3.76253773130557,3.2421438428830953,20.308874711992832,8.062814085324662
24.812926731073713,21.88287021474951,2.6128798146708374,6.4123740427195735,68.68793329540645,29.65347302731891
11.756310326818822,8.075178763607262,8.943972906484584,1.7893806160091312,37.81927482470174,19.446124009115415
5.21373690482125,17.477957474329074,8.055671835409122,4.9409298179924654,10.386297573214163,6.766106691817972
5.8322677791407225,18.985010970162673,12.11780164719691,7.558342299796092,7.166117034228451,5.512898600442056
7.813823023348196,52.35714178324763,30.488201763748393,19.235258410195755,0.37775163230324327,6.231130289865915
12.15238197969907,70.96163113852698,41.05767881363482,24.0050641935278,6.432090750796812,5.794611959923124
5.4726922674643115,15.74411143270525,8.434409676695156,6.159499857457134,1.27072845924315,6.355737146274933
1.6018234631652575,20.239587942086157,8.818636110153905,7.677332164947814,4.608056141206286,6.835596795029008
3.673710504585158,15.661716353472245,5.7710543338526215,6.1656956486772945,4.682166779954398,10.038253036047898
10.316611534654857,9.670659777641701,5.753441480648763,2.5104906833611143,3.6147733547956755,25.15706466723149
2.3946493096049872,9.720117434419915,1.4590992578870892,2.5941672382172896,1.7215160542249732,1.914546956361968
3.827286629773318,15.086856637912781,6.797551092449461,9.199265362940846,1.2193363386959768,2.7458965443680707
0.9416367318112566,7.018705247786206,8.69596145324028,4.911769588755415,1.5125911917369355,1.471598104189399
3.60664436754254,1.1700222056269085,16.48196415819743,20.652692497207518,1.2084873383418373,2.598049943321154
1.895509194506713,16.496260315338628,2.9438387197628373,5.291424377794019,3.398527410159445,3.220493848459403
5.590619002471829,16.525406191724585,1.3921675508219329,6.093898645189436,0.7278040157746697,6.553484183671772
3.211445083413846,4.378687976697967,1.7631893118292539,3.0387130778720093,0.7789981606531481,3.8587248444896693
3.5446441730349285,12.471987970139159,6.733406384984114,2.4641271038411126,13.277333621512456,22.68312071381156
5.566837250163636,16.968113439647013,4.20519733636345,5.701973650788084,1.4047825570736503,7.409360995532289
4.48407876764576,14.898588459027035,1.3945639067123292,4.918128305234745,1.2211958940452223,1.235657926771133
0.7940093951164852,12.606606042865408,2.943299319240918,3.4318700038560106,2.2187779302290918,1.7797604217786656
7.489279715773552,45.9997719862713,15.134939147327518,14.107823303462977,4.139382366093319,3.991050148908424
6.117297576855732,38.813880464686704,5.150845531500477,15.88360854035773,4.416512926231767,0.8900786049050726
8.229431087993296,11.693621516560855,2.9402277298444592,5.604933709322844,5.864910442822335,2.4634759167071865
11.927728265618976,3.931564105116122,2.140106213480462,1.2874902940746453,6.1029780385317265,4.59222295797638
22.59074901116058,11.762084921394546,9.171613807264391,4.031336670035984,20.707028902395468,12.249031661362363
25.523714393749646,17.41457489068647,8.957165506651137,6.119022992722956,22.411789601398755,8.608721711294013
2.5078311014600825,9.543929295259415,4.229693860751696,2.4931308825783947,2.3306969412315666,1.580565299005752
5.984009481005817,11.659167846494428,0.9403120839116361,2.016941334318336,5.001812383473375,2.599799609877045
3.3916844203778513,24.984907660381776,8.29393373755878,6.094408850736327,2.5945845889372885,3.6864047347707842
9.712140346504473,38.82237393857552,11.445707289035287,10.893945871677591,6.929078515633334,3.7565830146878687
4.542419122169279,2.8891991712558425,1.2767446401656142,2.268817222085726,6.536808646426993,2.513500334467503
5.912062495288334,5.583859526420316,4.662495714213421,1.0065719282877372,5.7464906748770614,1.715168780966631
3.2131417274850427,5.410296148685559,5.967918452217632,2.442004626743766,4.52212453247206,3.330292672781024
23.93900838393178,12.40769201871932,6.1662960856938245,2.6680325868768517,22.853224919930057,11.057744219941224
6.665393702452275,1.35038639493011,2.233172377140494,2.1078348782397174,5.687576701436706,1.5628432932839078
3.285714355313146,7.3738755614280125,5.610673465013358,1.280816002807129,4.590782749423025,2.1938687976915348
0.7817805338868701,3.3848299114076585,3.490121537403464,0.6400786992056084,1.7486334363950229,0.7608051838612951
5.27929655974819,27.119301464958713,21.627084610656148,5.493581902676792,5.145037874538006,6.458434994302724
1.4677920159671132,6.326879930975721,5.742321248377298,1.231224917779474,3.7666270974395255,1.2100284129730081
3.5140638610106003,3.005981454443284,5.177705169527447,2.2214655852819774,2.515099076928871,0.22154250333656758
2.787660905628692,3.2046191635561336,2.0220880388509634,1.7200632548776047,1.833920251616373,1.4831261194949454
12.78152668031755,4.998155488134126,7.749262426215074,3.0290188085551835,9.250572528303548,6.049659895072584
7.726891031972211,3.5851816199714404,1.316500850277422,1.4092591669911114,4.825365301832397,2.9124300586092016
3.3844597251109634,5.279619717813456,3.365397782789199,1.0892170124073168,1.5900274072027951,2.0196719666597756
2.3095094405137915,3.4923303544333244,2.1106899898680926,1.1422736038716552,1.6767960717022685,1.409053329133999
1.4338843734949147,9.179795109358356,8.520452875330431,2.710931705383291,1.3391048807735875,2.6025982003112254
6.479237053939331,3.6117805951683377,6.793183980176162,3.1493541005680754,3.337225193861086,3.358083612979737
2.327087753339291,1.55414862286926,1.7716308018912883,0.3020725995360566,1.6101801047024102,1.423347224623008
3.1043898712826126,2.3494343396928694,1.4656232947720698,0.48111368877737953,0.8810584808007755,0.7847639895155736
4.418614018768655,1.6185448880985838,0.5760731856162586,0.9832084803233571,1.1124753588012317,2.061634594122812
7.559990821336398,0.9952516470708623,4.614010247882492,0.6261551071147723,3.099909921501087,1.5162608172587326
1.019166087522289,0.933983533782492,2.7448503193835085,1.3078466685979935,1.4668016019435415,1.0860516984352329
3.0749601651192857,1.8116711175131226,0.617625160641801,0.9325609048471448,0.32568454300935484,2.7692236761195286
0.43315761517036566,1.3209153627676162,1.177080767785288,2.0642866852176733,1.8054260110245066,1.9309946797409685
2.4475336714365583,1.0343119023535843,2.151346378372202,1.9842703487841709,1.0656487782865165,3.680976973779458
1.4905009359634769,0.42491323339712533,1.8302378216360298,0.12297967311714587,0.669593906782309,0.7701766031242451
3.686941205104322,1.9797419174313975,1.3947661507041145,1.5095661506860771,1.125580346662064,1.3924347434481648
1.7965779384901766,2.0917139614470845,2.1671220169887326,0.6347692848243917,0.9457361790467151,1.0507220374959212
4.308672531471103,1.11789815989552,2.054635548448315,0.8093280042891329,1.606860661390841,0.5849907862937371
4.5791145414073755,1.6828894693315788,1.7409994317449848,0.9369784994318429,1.4919706915955278,1.4740608091885883
2.565424391944331,2.835224987446522,1.1013259629156957,0.6717714475707921,0.39610978586971995,0.9236700104715261
0.47932875261092833,1.4634154131616177,1.6046795098033309,0.7097338108154927,0.3926621427889255,0.6632285026200658
1.2420275499919453,2.4134327881652387,2.3647656629466587,1.8912429824186725,1.755706128782643,2.6049787029931557
2.4840691864931617,0.7187490897603677,0.18358739035004176,0.7588925657314752,0.5033186051272257,0.6488350549769358
3.636226035717746,1.0766204717515908,1.5327150433790309,0.788600880334075,1.4687526624881349,0.08576003456750492
1.4237088107766416,1.7028707373327823,1.4786121765145617,1.0487433028968445,0.4951502325818546,0.7321523021215415
2.555284845197957,1.7675156596258255,2.8279901588235528,0.2524634678301222,1.19936477714509,1.4257560245186338
4.026876697900762,0.4166962624602498,1.5798444857566856,1.1123446679561373,1.2773223189692569,1.3348790995885267
3.067182043560353,2.264944643237703,0.3506721496484015,1.3897164085586342,0.7408765839135517,1.387538813269884
1.5723664894137457,1.3465879610101907,0.4302408465288829,0.17567226031754077,0.19003181359936291,0.11116657590316928
1.4736164645623304,1.9023401069240309,1.5275205139229897,1.404228325443877,1.2366912042974998,0.5536765827384241
2.6578163613872037,1.0525710685355196,1.2859476258097506,0.9410451199217985,1.421317114960917,0.5564203813381198
1.0452507568052885,0.3825399350160952,1.940039351620885,0.21078750399713533,0.8822095534240608,0.5554137299120107
2.203448809800214,0.24005538454360192,1.1834684379228924,0.062210269403980396,0.6100027300083456,0.1493272095339847
3.019826036898871,1.127108373120193,0.9660947683104959,0.45920829305328636,0.8283628010441553,0.7054631207833224
3.8292467030961848,2.1010823785967174,1.4288866041486477,1.3993978535136684,1.1783274348123756,1.0302955480537568
2.167698487310996,0.7922910328500312,0.5856122315190799,0.9549676725521906,0.5699343762692307,0.18053057890951674
0.5532354665185326,1.808132965663079,1.2518487909811735,0.6452796209606902,0.43743044499983574,0.5163843123323338
1.5713306553634074,0.7526268468546793,1.5675915203187085,0.9682040771617212,1.0222804978860445,0.07966506567847546
2.6047379752113535,0.7830150953776596,0.6749007987841734,0.769577384264229,1.3042100485454418,0.9257852258152485
1.2111951773800138,0.3527000889556293,0.889388415512938,0.6578429340040464,0.9641822584669821,0.9530260903526865
1.6522759164275354,0.5542801908423475,1.529106479681555,0.49378611877062234,0.16240762803285066,0.47840581317904923
1.4761815943335819,1.0730272484154675,0.9544960031226701,0.4235480409453129,0.6110101976381619,0.3717785889611303
2.7106570452158243,0.6247078248543676,0.4659117662476417,0.44201137103506627,0.8846279066396288,0.6678434221364627
3.018917051374487,1.473983757591558,0.4493530579690675,1.03343247592332,1.5534260984895056,0.7776544863957964
1.3797551742372751,0.4973668440374235,0.08082229937238129,0.5269541506320649,1.1212361222159561,0.7554094857772565
1.3501480948577906,0.729700973791856,0.6150958024688938,0.46717040854511344,0.5685372762021458,0.43450352959539895
0.0,0.0,0.0,0.0,0.0,0.0
0.0,0.0,0.0,0.0,0.0,0.0
0.0,0.0,0.0,0.0,0.0,0.0
0.0,0.0,0.0,0.0,0.0,0.0
0.0,0.0,0.0,0.0,0.0,0.0
0.0,0.0,0.0,0.0,0.0,0.0
0.0,0.0,0.0,0.0,0.0,0.0
0.0,0.0,0.0,0.0,0.0,0.0
0.0,0.0,0.0,0.0,0.0,0.0
0.0,0.0,0.0,0.0,0.0,0.0
0.0,0.0,0.0,0.0,0.0,0.0
0.0,0.0,0.0,0.0,0.0,0.0
0.0,0.0,0.0,0.0,0.0,0.0
0.0,0.0,0.0,0.0,0.0,0.0
0.0,0.0,0.0,0.0,0.0,0.0
0.0,0.0,0.0,0.0,0.0,0.0
0.0,0.0,0.0,0.0,0.0,0.0
0.0,0.0,0.0,0.0,0.0,0.0
0.0,0.0,0.0,0.0,0.0,0.0
0.0,0.0,0.0,0.0,0.0,0.0
0.0,0.0,0.0,0.0,0.0,0.0
0.0,0.0,0.0,0.0,0.0,0.0
0.0,0.0,0.0,0.0,0.0,0.0
0.0,0.0,0.0,0.0,0.0,0.0
