Gx,Gy,Gz,Ax,Ay,Az
-3.6639109999999993,8.004987,4.640784999999999,-20.855999999999998,-507.682,37.5
-3.102876082344365,16.639943426084887,5.22091630352452,-0.9458532540597113,1.167122663622031,1.3553459201776261
-4.8758043251707495,0.3805381300738653,6.958341845170484,2.723194861911156,0.34693780421809506,-1.6735659183714429
5.260578414810042,12.412025555758115,16.11143181724785,4.863398218375197,0.3289322336638154,-0.33013624164998706
-2.3859498764897413,11.038071753482944,22.788118331409446,6.513870962023574,-0.6763046392366179,-1.3873147481101933
-5.279970151812449,-10.665718746112947,-38.67333112827798,-8.375848561837202,6.2715944508948045,0.047231054223615954
-15.004409159321913,4.9423786366936175,-8.9066780677169,-1.195620374840288,4.191902842269538,-0.5131527063696806
-11.257007408944865,-8.90507254312498,-13.609812179176405,-2.1453521420722432,4.468885468513971,-6.130987287493633
-25.47380822593352,-25.470959091936002,-13.67535555219116,-1.0388785705049397,5.485050958054164,-10.160010413491428
-46.61125119247499,5.369527698503709,-19.724235264810282,-1.7333522266441164,48.18409095123159,-38.788363196225745
6.373737429534943,-4.67902281595595,3.0973301092251497,-1.4547224976939848,-22.47810087195686,10.370611489645007
8.25863522328074,10.90269399935056,-7.109148202522219,2.340231905684807,-5.514668750606635,1.729993294767042
10.682913258787488,6.859834370538719,-17.066862236217197,-0.330627284564033,-0.6128759629977645,2.1004153103560075
-2.4922481170905333,7.770465497977067,-11.936748173916193,-0.035689559056333586,1.8379007852072218,3.567759958688395
5.8369109235003975,8.182967596775468,84.95527088024505,-5.13268451230978,-2.018948525234906,0.5868733412746552
7.752132651324237,-2.324970835827734,-6.1408085934178835,-2.3954109723788184,0.07259324784865928,6.815717841375237
-3.888433660600925,6.486473638346743,8.400889695891335,-5.910198330811231,1.4958996202270725,5.665970502523419
-2.293243060022133,8.784619210908037,4.038941159230949,-0.7180817836668794,1.9809922902898014,10.354162748016467
3.0182761670091107,18.154149410123154,5.20523213155793,-1.6459606785711598,-2.99625716085976,23.401979634778797
-1.7167202355357034,-22.470016521452536,6.36184660109892,-7.2067519151442365,2.376629820157521,-17.565369574768376
5.438300241905664,12.972654402801114,0.9180257541351795,3.962056588200344,-1.87667399700357,-2.2023418777150447
1.4899464005933187,4.762152909502975,-5.849605999691971,3.693034943812304,0.1235442566495692,-1.6719873870954127
-1.6324903020144563,-0.032488920969664825,-8.846702450318842,6.359697220216661,0.47768895403907163,-2.080708735944009
-2.9112526620791637,-23.15603110084472,-28.502587568854405,8.976831481372244,2.199931530391925,-1.2477999542818723
-2.820048585039503,18.32886121349081,3.860731384663006,7.749740589861734,0.9214397977547711,-2.6688198919606583
-4.329491899173211,1.1169280518247853,-3.6772233787866617,0.281396150663354,-3.569968835809037,-5.594075908233844
-4.499397974940793,-7.307267509252561,-0.36283196184835953,-5.501120583173378,-1.718470027180873,-7.745064558094447
0.29173235404999354,0.17045975128430846,-0.3324447023390821,-3.3583044447073025,-0.5322705278859416,-8.61649501080835
-3.6848940409330297,-16.38132178634413,-0.5989116046688661,4.989012993621372,9.790016944541645,16.958460358017284
-0.6565847060389767,-3.152937686087732,4.955578695492877,-5.054566295188493,-2.821765394373026,-2.2124726635593692
5.362037178175219,-10.337355710897281,1.4745917147216931,-5.290668845398696,0.654822000288879,1.6511777664508904
6.009817439772093,5.3970645566081,-2.5086892132048177,-5.6938720764969055,-0.5840224489399931,0.9658612270220001
6.815581651425137,34.09329002539729,4.6948611207153705,-2.233995313053468,1.1840750584981614,3.038011985786202
-2.76215818818012,-25.22468153530965,-6.7734916951705335,-6.095493551964398,3.6090404848416946,-1.7096773076864065
2.8395280078635405,7.455701513807989,7.779845166049638,9.09713525317396,-0.9785031655113381,0.9709391828876938
-4.267208647853105,8.634528205300736,0.9130493884660114,8.915696993449922,-1.8057859092175135,0.44871167604230244
-1.0381721140582187,0.467700675703016,-1.6363064387864652,-3.0931021673047834,-1.1180618603225159,1.9905991267068899
5.729949565510563,-2.944992479830947,-3.4266880820462395,-5.493406124580437,-4.436480270210014,-6.49279611306344
1.2138400133307408,-9.722770784010825,0.9183054199640921,3.9125655671301374,2.2478614048440093,4.9250475898096004
0.7630071709628337,-1.1117714417351192,0.5376981766025399,1.4230559591977523,-3.610586821703551,-0.47869330990092696
-0.8218651926117291,-12.835365173463053,5.748844647033579,-8.326956803475987,-3.2813158598279824,0.8953384936276914
1.2369278007199112,-15.668843631279955,0.6542167579681504,-18.07906765752216,0.3315503176313792,0.8867091542206096
3.5131121512702603,16.781395873889487,-5.888858386660659,17.157876318157783,-9.45572113419804,5.5902452918586265
-2.2955031088597635,-8.730920824962709,2.6491305925521536,-7.715446889009219,0.44778855443947574,0.20989681586567643
-1.619972990622641,1.314303777913417,-0.33773664848044405,1.4268723419480989,3.2078357980674674,0.23907726843487787
-0.07318358695651028,1.9301526648910148,-2.7176692353303284,6.958119493129725,3.8391032687034325,-2.1974041952205248
7.277275471717726,3.3532070018515654,-1.5090134173999301,3.527597927949196,1.81001500571603,-2.943803738896745
-2.965779268180177,0.34084074222264515,-1.6384751840965297,-0.24165015711746674,2.4095604020005332,1.564329797796021
0.8550151276474427,-0.8050743130724527,-3.804908114193108,1.0770755753878163,4.075496017280887,1.0257538564214086
-0.6135473571606562,0.13058246150918862,-2.004231308489043,1.6269409196200977,-0.07696917577495288,-0.7276810963587528
-1.2503785730217822,-0.6508248664105212,1.8469514953845039,3.729260656319693,2.107912999996489,-0.8147109621813526
3.9496347236457496,2.285512181677645,1.9330398912551647,-6.115901193621153,3.2044346038945197,-0.3257417494190719
-1.1212104785860333,0.4315611390555333,-3.435513874829792,3.60289151516935,1.1727494090707737,1.334881522020522
-1.4652701851041172,-2.058929625585507,3.2657165321054222,-2.0460737396723836,-2.1603025848110176,0.20911059622835826
-2.6839154795714606,-1.402490341099112,2.257616021911458,-1.700644250913395,-0.522511614669483,1.3723011183973695
-3.1832542727218143,-0.6325267022660401,-0.8601537229058136,-2.5787656026211616,1.8554716865585483,1.551404531311164
3.840210964299146,3.2511618646223486,1.3599835064056576,0.9955730698601859,1.6722282555695562,-5.2180774570269435
-0.09633505136010756,1.3741953148878356,0.2627572614232724,1.5521007372482178,2.464358289317088,0.528091684223436
-0.31216368703070635,-0.9981110851352889,0.9536261044311583,-1.0614839820505577,0.7053279366351508,1.055159082538223
-1.8104160744654239,-0.6208076172565563,-1.5283064767860493,-0.9284464847235077,0.18138045050609175,-0.19126549049333985
-2.253966887683609,-1.95347697276851,-3.5444558431789144,-0.5313413779061857,0.5930749486197779,-1.6396692148415113
-0.6043707466506087,-0.44771397853399186,2.7672546499083244,1.0514488577924372,-0.04915071545375249,0.8005075319549398
0.44223578966444554,0.29740304854765265,-0.4798987153082783,1.8856169083982262,-1.0630129733870117,1.2447958272860697
1.435906504012015,-1.1128068266748052,1.6780034735488232,-0.12492318247180512,-1.5740703459815983,0.2940715444600397
-0.194199989538822,-0.2995614597067021,1.5178062494996327,0.5114047040375409,-0.5040410252829115,0.5490528666395534
-4.290675737245091,-1.830870544888723,0.6459083325337944,1.3728778515001236,-0.5889598418705553,2.3705816060373657
0.28686452273931207,0.9016251470212095,0.7622650990000386,-0.1537549459717109,-0.7198238204123983,-1.3680632273378888
0.8523202500155159,-0.2924695569497393,-0.4512158523901837,0.859837887659678,1.0103636569657106,-0.8382409421509494
3.2552746562001493,-1.255595400504145,1.3582827913164568,-0.5119356197543841,-0.7226138227003407,1.2449898253453346
0.5150756104255972,1.1560843806729177,0.17028332260972667,-0.2785202676535189,0.6887446995270572,0.9527449858316974
1.6884361072915333,0.07208732983467758,-0.12232607325412437,-0.2340124666955059,-0.2608873938407372,-1.255816377826791
1.635950861249046,0.1639987242007701,-0.535434170156674,-0.9360099452316133,0.5448337323410097,-1.6636425990871655
1.4098828414663278,-0.3882093447532463,-0.3305410723346812,0.3179169388889631,-0.08132429259026974,0.8552739281764083
-0.12786192213381886,-0.8830810096476838,0.3788421925120618,-0.4261158884506804,0.5146084777233393,0.16810259531555644
0.7145117379184593,-1.14941374378665,0.1221318596144414,-1.4481142230692736,-0.47873254665582,0.5700709262903612
-1.431436397878181,-1.9700123106448189,-1.1893931244576872,0.39853498617969185,1.0889052632377596,1.6226319739560011
0.09123963646562672,-0.1512928651587515,-0.016353733911812718,0.21772453337327913,-1.1301764821432623,-0.11886079375102665
-0.9740610962451761,-0.13775344080664764,-0.4069776979923896,0.7346442859706839,1.4499792122411357,-1.1083578472926945
0.5676718805364471,-0.9021171404254247,-2.316524344779201,0.8504477744150543,-0.021697875128821487,-1.0034323200132695
-0.8617380200426576,-1.3107728593817884,-1.095057085648809,0.6808743565825632,0.5036141289896585,-0.1913720969500481
-1.2235459078195565,-0.3953226029028061,-0.6258554742234933,0.9723440939980459,0.1806197123415334,0.8981424409201662
1.3408184927672364,-1.1663118027954678,-0.37568357411794884,0.1878783061736471,-0.042670152442170206,-1.5280368296879452
2.2110767222232686,-0.5777991741803075,-0.3057748150036794,0.7593587648200416,-0.15427286726942865,-0.970424078415969
2.0248366882262863,0.06304015882888236,0.32852280182415167,-0.5066456845290139,-0.25112041273233554,-0.7126981043415077
-2.1769014605004675,2.7396814112292427,1.2549643620437112,0.04187251761365812,-0.2687831338372171,0.5217731220256663
-0.5548122325220674,-0.6158626056020531,0.644146365844992,-1.0053179742830813,0.05532180230372319,0.9167268216803135
-1.3708703597329737,0.7316010128106204,0.5811358515457041,-0.17770014150295987,-0.6722549798023656,2.3401091319310705
-1.0559392547088435,0.8156841020707559,1.3740755522278898,-0.6068901361706365,1.0318696466236439,1.0036488555826772
-0.6951895730954566,3.239139254205608,1.1481457633857768,0.6677810393610402,-0.13569252684765426,-0.06316283108802517
0.4698784258072637,-0.4023104609645945,-0.7518137520172619,-0.06854826681141785,-0.7639725767634369,0.13035793673499846
-0.18300723805226904,0.016067914447893905,-0.05287277964653336,0.6755220706145617,-0.01292641173495647,1.1414877094205902
-0.666151878985275,-1.3410802696686988,-0.4741752168722567,-0.5743447792796994,0.5248295049681537,0.3373232562068239
-0.6691571167372709,0.9958981791291016,-1.1560482338223923,0.9852317120209132,0.6518402548654537,-0.13786662110814463
4.674339960244578,0.164920810020858,-1.580742358253323,-0.35305963019895253,-0.23146919208048733,-1.5438362059063682
1.4010299947973803,-1.1231605934672,-0.39814145755850916,0.3677594066218689,-0.024943467979919476,-0.5946835954360159
2.8753283481833516,0.5284913893723253,-2.0508613739818005,0.6096451172560537,0.07314393217936954,-1.2967881990756491
1.1797423972846428,-1.3600653260174573,-1.1533840865869243,-0.4334600337610177,-0.2259879817674079,-0.09441113573295434
0.7643136071168859,-1.0727538639041918,-0.3002398615276452,-1.0844583274466575,0.46658242919692405,0.12001777396505231
-0.5730036844581097,-0.14278974380469664,0.39091717991546326,0.7534892228204523,0.23797664191717216,0.3141148429954754
-0.5642429180187085,0.41374333245450023,-0.13773548303273853,-0.323069874361422,0.11100259128002021,-0.38880308310987954
-0.08961402232707066,0.4924247421343971,-0.4004344899193456,0.518432148213528,-0.16124894900154996,0.25932335639999243
-1.1463824222131982,-0.27485268474354047,1.1781727962171038,-0.35347799013041137,-0.04670775678267894,0.6510328485910077
-1.9509097990731612,-0.4991588725984044,1.3923168894379911,0.5286194773159695,0.24589359031737862,1.3349778500909504
1.0596644868299911,1.1431624838315295,-0.0071882574754830175,-0.050083211304401576,-0.9678977729146135,-0.16158755313682566
-1.0681845293552823,0.17072450947128592,1.2228900413551593,-0.2442587380608281,0.6689800479412492,0.8267444872246067
0.6279512919724293,-0.3132992766827586,0.42457616903773643,0.49781774117617206,0.3188075815132627,0.32085955408048117
-0.3323805508733302,-0.2627553364264614,0.3060624894165723,0.5999413904761782,-0.1074286201288629,0.4528087557563212
1.2721540392834911,0.09137488259971388,-1.119963110449259,-0.4455171243213818,0.6111912076035085,-0.6647469108517374
2.1168308836834737,-0.052364063029356256,0.4439786482225528,0.18085234674454775,-0.5040204110465041,0.11788777267339068
-0.12537049222468766,-0.5879001332987905,-0.9666979982923256,0.406840600434207,0.45877287126624416,0.3735709633605372
1.515394740431213,0.00606813856049182,-1.6955991918358775,0.30324251290730797,-0.142198371854791,-0.8290214823904054
-1.3234315506799672,-0.11889675674155772,-1.2136060204748218,-0.32811171848361415,0.4974520108533985,0.05584110590822941
0.6142780324818994,-0.12599595967912092,0.21045899322244366,0.6609972269321613,0.013126426804016211,0.4059764606581693
1.4201412686994899,0.2715231872366815,-0.71516843589758,0.3764525519031252,-0.8314673136687791,-0.5941627315690343
0.6364946905967883,-0.2583374540254546,0.16113572029427692,-0.15702444500264617,-0.133257183684727,0.23709785007543738
0.3121979271900519,0.1943078918478327,-0.0212491446937475,0.10607406428981203,0.5135218332284347,0.22370865666075038
-1.0031615798058575,-0.39773355190679244,0.756170096773948,0.26295769193600693,0.406594394949314,0.7181867526317158
0.21431547948483443,-0.8871128118477952,-0.7949813037966469,0.0072922326822734695,0.2286307062539624,-0.10128296717083635
0.973225589381137,0.20551762764179407,0.39542140383899194,0.3566956260382663,-0.36791489566482816,-0.20534955898778756
0.032096410302816514,-0.6170459614705458,-0.43526088005360886,0.16130313522731454,0.3587185662094369,0.32081279374750304
1.8816932220452194,-0.03939672330407018,0.5398854743614022,0.2945216488159562,-0.33685900139679265,-0.22656549046830624
-1.2003806515119515,-0.18014686940142288,-0.9643430905792242,-0.2209171867188384,0.07490335981444987,-0.08493698575978537
-0.2875983697072906,-0.4051073813896572,0.9729559721614248,-0.5694035835898377,0.3772878407211109,0.25545962250732596
-0.7475218403888761,0.5422113169733015,-0.588075065973648,0.8967354072639967,0.2702377864109775,0.01422266505037939
0.9778479417973995,-0.29816931109152955,-0.3518750185350812,0.11902010737441476,-0.6476189428527526,-0.27829828619022234
0.8355969638012137,0.35021692083439293,-0.22795400749466327,-0.01674196209941098,-0.15670432310302312,0.16330721118687805
0.23621902023577096,-0.06832853019605502,0.12470411510911747,0.28015657809291944,-0.052204079515940416,0.38572133868196223
-0.7388641055440095,-0.162664357036519,-0.48638227545384416,0.0562792968209557,0.7349210393806535,0.2791571990013276
