Gx,Gy,Gz,Ax,Ay,Az
-21.901461999999995,0.6977709999999976,-6.063379999999999,16.04,-474.428,-23.459999999999997
-9.835213210312771,2.0839247909968774,-1.650528041112278,-0.10838069796112718,-2.7537840480027462,4.017848230594298
-1.1877900970324922,7.680135033546174,-0.3867969856455079,0.26995904044954894,-2.250670875031878,1.8824765567540747
-1.8351036367083078,-0.19087096791907243,-5.0403865655478866,-1.302579899841873,-2.5810876247978527,-0.3536253857689494
2.4785811507101436,-1.767803466667153,0.015101936614167127,-1.358725577329651,-2.2492010398386775,1.2242637216185277
-8.55175171135299,-74.60781409308564,-12.41930811298463,-22.494964430808075,-3.8537341406711514,-4.017379172917277
-3.301933163926597,-2.989190081241616,-0.2513792232032064,2.0001425414564364,-2.564341272168593,0.9081609386496748
-3.3695806864435607,-2.9736220070384736,2.2949871435554554,0.9269022314973139,-5.385549303903166,0.4191761197354026
0.48286295752322794,0.8542175128792197,2.640627020127076,1.0626962310278278,-9.05537172536868,-0.13596195063653216
-4.3562937952763505,1.223018387158735,3.4608969242027445,2.787725025799535,-7.362498503972781,-1.0653657022149257
28.07551180611921,4.2949517008080065,-2.026776418908575,-4.3610634898728,82.59911781749356,-14.116738596176525
-5.138095971350362,-4.089829863228153,-1.0774129617695893,1.138164073039254,-5.093081991659349,-3.973263637723064
0.6511354737632831,1.7949305457519118,0.6443127734774353,-0.11578045297538975,4.067785141916877,-3.038381292983164
-3.948214133955043,2.9900784612011044,-0.9099975923779018,1.5274433707426356,2.9007789946827174,-0.2751006558588862
-4.044499949576104,2.5089936332811074,-0.5198764346601317,0.8004070493706381,0.021317118980353156,-3.4153088290731524
-9.041516053040997,-21.24069234048364,5.817950875373011,-21.799019174603135,3.2937208946007344,-4.736830183190233
6.108159850435223,-5.980752293733643,-10.872241508537977,1.2772363841393668,1.3846248915535915,-0.4968568684354367
-0.545841836365158,5.762330557002759,-0.5508317024288364,-0.817474706856669,3.736582965088265,-1.0486065847808188
-2.4881274895602683,3.1636401045468596,-3.5884325684584057,-1.314305170898908,2.368968567609816,-3.796033713657309
0.6477188285610468,2.500461214649678,-1.7246789145900427,-1.6136082124029787,5.812013319906182,-0.959086850514736
10.750259912779072,-14.897649993804638,7.914260747925403,-4.0538115510059995,-4.096905347964049,25.519052778693116
-2.152724824882148,2.189705049034987,0.697948247372195,0.3547632757626265,2.0142541130717744,0.42956875921188864
2.10226835988027,-0.44006986077829735,-1.6632150143757947,-1.0999659165342102,-0.7895239220879319,2.527619367646014
1.442320413278098,2.4027622909562942,0.02593198980686834,-1.3158685562336894,0.8987095695612792,2.95521982632774
0.14135198203651334,3.3194670751010777,1.7591597839144393,1.8353664250560533,1.6810651821245757,2.1240137456942625
5.807923772751165,-3.859902122309135,-5.6314192458344925,-0.7941772852753846,-1.0416540210818983,-1.0766083251126162
4.284321508194624,-2.9714253284263066,0.2346454796011259,0.4279604869567671,0.6064912145564211,3.1985359805443925
2.0816061054680146,-2.6540636321538282,0.8169505419144634,1.4083653711146795,-0.720310747332391,2.5516985756865878
-0.4954605018580528,-3.1120355168717233,0.6994813766004573,-0.10854533281076462,0.38207165509696195,3.2349793830851685
-0.515625062103503,-2.5104000024054436,-0.35474489641525886,2.8346860698506626,-2.906033738380195,-1.589052726683454
-1.6980002841564743,7.965607969708723,-1.6512510650359384,4.026409379630762,-6.582336634457605,-9.965139351058099
-0.07236668408305119,-5.451002276387134,1.5538525349383878,2.451492824842635,-1.9233518144327337,1.9595246305199765
-1.5755253074615365,0.3523295352922554,2.298197150917455,3.9311096621770147,-2.6866356031622027,0.9038819451816145
-3.1353991112825175,-3.7536716612140473,1.591945242990012,-1.28870979549339,-1.2201794253255813,1.529877161542082
-1.8829761198684765,-3.0702265483425975,-0.4561256353944655,-1.4928881545746475,-1.8462011348026446,-0.29444960185017327
0.411915881520752,7.66445842739529,1.4412561182158616,6.795794263274669,-1.9027027025788399,1.628800368321011
-0.3971181682759799,0.5886245815544258,-5.027863218826068,-2.562271529395537,-1.6945166336527278,1.0758678043713956
0.5803862030897273,1.7779090196275993,-0.41731475387184713,-4.031844221252837,0.930427137939548,-1.3370074779286782
-2.273120846626362,3.6309922554741125,-0.9961276564050746,-0.6482870726993168,6.6950971550405445,-2.0959888877517714
1.3488968205614102,-1.4116565903859275,0.5018081879667924,-0.5863033756878221,2.6495401448817013,0.22841822471380158
4.0419258476614655,-8.343368865814355,1.276686892379206,-1.8262600842105274,-18.195655936898486,5.866523510619187
1.5659048677530534,7.402947656608993,1.56037954625801,-0.798993499433654,7.252860006908859,-3.8753981859829243
1.533794574539893,-0.3884393082162171,-1.5631629301398988,-1.412946769896819,2.1591574000673734,-0.2997523903089585
4.071965484088884,-0.9251201559389521,-1.909292147542315,3.1382780002665043,2.1534245458959007,-3.083013508566188
2.2169238554646675,3.5876018387389093,-0.7595574785483432,2.612990380994609,3.364908524556481,-0.8725922940075574
-5.034981646231056,-1.004877555112642,5.862708495364659,-6.8055936178745124,3.038014343233546,1.3042419922217448
-1.3310906706940355,-0.8961660656152418,1.646345451828615,2.4604144696176586,1.4654282097499982,-1.7713895607804975
2.069660494773884,-0.45503203611325416,0.3938894793580112,3.3314774708682497,0.19607228742198624,0.5292875134281216
3.349764751162519,-2.2268660571393326,1.4869481831407014,2.3272952641719904,-2.7193800573332645,1.4898201753851228
0.3496359198849097,0.16709009688522614,-1.0385622538664767,0.8938565194310117,-1.8119182315833569,-1.7565032154825748
-4.92397799249166,6.290001431244155,-1.0537160643549794,2.7879634062837755,8.255336757919615,-4.2536584014954455
-1.9612171449089943,-5.52449512867416,-1.7188549561165267,1.1558754705174978,-8.593683198997606,2.9324507395991355
-3.2122157960872073,0.714415231437215,2.0266119232096544,1.6499303586943272,0.21736482466021845,1.4428125751038752
-3.056868348570437,-0.7821192953286491,-0.10491291272963288,-1.6183103654847986,-2.5946246198211336,2.180025130093499
0.5109043909792947,-3.0512811588399344,-0.2786267265274213,-0.915911760155976,-2.287264254749746,0.7476511399677808
4.3179028817993075,-4.677211188186541,-4.275237662500048,5.0138246275895195,-4.238361461526032,-1.4221038853915187
0.11577882255043948,2.900264416199099,-0.790240228827556,-2.7258538134339343,1.5279592860025646,1.3465917834742789
1.462458324228531,-0.8482326804324681,-0.6852596081505617,-1.0930550596002744,-0.4005550397115007,0.4734147948324226
-0.8563773864310865,-1.0204032701077912,-1.7162803076660602,-0.9498642271231003,-1.7453328461355406,0.5552697538982301
-0.7027994711453713,-1.2262468702289882,0.17438322058275132,-0.5128302996444443,-0.2989900439196545,1.9770431751997437
4.45121456882735,-3.463791992028857,0.12020119194234669,-2.5981855451928144,-0.2549939374440766,0.3294276340984834
0.6935277388499139,3.0297059737590017,1.1097027887263038,1.7762389574140913,3.0060061032520373,-0.06210676475776659
0.7719113717071274,0.1628481715513413,0.2535345336668577,0.5486380349196952,-1.4617193495443002,0.3310758867323251
0.45421169140033735,1.0863230439777247,1.6558009831793177,2.3175665065401256,1.429528348879592,-0.1781497380337325
-2.0906866309015926,0.7403753513743284,0.5688429237756054,0.04981050340070964,-0.07644033210016726,0.3274589152771475
-0.9376900110461592,1.890364280061465,-0.9686670807540667,-3.4011391136143763,1.5880110233155815,0.4631243923024563
-0.8370399327874715,-2.862416862981956,-0.002349868023344177,0.7905157408471015,-3.0151087000417514,0.4239355027964443
-1.6309885171768845,0.45560565172052536,-0.07437907418874949,-0.8299742894654115,-0.43643863367853064,-0.44536106582900215
0.3185063965786062,0.4215234326757284,0.15299362383362305,0.8009239920009295,-1.222168740678117,-0.8039011413757848
0.8839365912427546,1.2122454351650875,0.06771206049498102,0.026622455746487805,0.1703493952872217,-1.4777688834007714
-1.8349843288008496,0.2869717396355243,-0.2589927060812556,1.7704967933799898,-0.43193493109418163,2.6722219774011444
-0.18517172543212757,-0.4824621801118204,-0.23933898647336005,-0.6153089228656243,-0.31370462366185026,-0.6709721726544826
-0.20761274857446455,-1.624057573526466,-0.4271534418796694,-0.8382035991795078,0.7028430539864531,0.22233866749645587
2.6450708202660214,-1.2731736923765202,-1.2276902040684226,-2.498743984972863,-0.9729334315893513,-0.5234808216743732
1.562852345047039,0.8369358811976695,-0.5285157231769898,0.00509331344233592,-0.23068897417186968,-0.8457002152369664
0.23837814572414667,0.12446838313249303,0.34024817514119826,2.5784074189848596,-0.3074015634387594,0.6569397220647629
1.6662801115780261,1.8578600418972682,0.5170279743956259,0.4094257957238103,0.9961465871520571,-1.0181732069845242
2.199670598261445,-0.9367000277084265,0.10060881270888361,0.9556405467476694,0.19754412915760217,0.30916699693825145
-0.30284046016725286,-1.0034535446232071,-0.577944483851459,-0.30483965736456564,0.727788524382102,0.8142610914952498
-1.1787725787482954,-1.0396089588326525,0.22461901129617057,0.38256004797490284,-1.6768513649858416,1.0502260642246886
3.817557113493848,0.1891027986151389,0.2112178067299076,-1.4643557276622565,-2.6191223426530295,-2.459306170689068
0.7487929514395124,0.3218666929376377,0.4085850286587562,0.038962190486785286,-1.4105567846467844,0.8046759024727732
2.8419276206003268,2.160174226402542,0.27781628070047004,1.245042956529292,-1.0699622761254142,0.24033580806946575
-0.2788002872596169,0.5851357668493844,-0.15316213969659842,1.3602923417065995,0.16288892884615266,0.2204005751705833
-0.04006349486738713,-0.4550961920524859,0.231601914355193,-0.27209797083845316,-0.3558906969775406,0.8678033510769301
2.3757781105768605,1.043779570989449,1.314240900024064,-0.43810284094792185,0.17403896623430135,-1.5033856731932493
-0.42377679887881287,-1.1701033380743904,0.25369481620600337,-0.5645557064028357,-1.7058194467251229,1.003846756284379
-2.408536045853495,0.28997191783079773,-0.32094383247453634,-0.4915827042048742,-0.7353544483612768,0.28643134000213155
0.4170889215734458,1.2709145932641905,0.36442491316374737,0.06349522483801642,-0.6043029920864524,-0.9182177753454847
-0.317454052027999,1.8241040130989747,-0.4744886784422055,0.28276997940231496,0.13614966305676973,0.11078663244596043
-5.529580922472822,-1.0497115727397044,-0.7340119507192249,1.3511074764199218,1.4877321093777667,1.585313276798071
0.9104414792183657,-0.753936662757247,0.5102268066038786,0.2826581118512807,1.1043454654976512,0.535268712801226
-1.903102795177681,-0.9090199071628,-0.6351252646982493,-0.9215532540850673,-0.022171202637078058,0.27602904605309797
1.3837474450367062,0.1821719377520408,0.17342782680035002,-0.6306568215592407,-0.8786907138478305,0.2349071174901042
-0.48883028818573454,0.2288816027623946,0.17080225789554293,0.8061301040217392,-0.6010585794537329,-0.09683985441941453
-2.814136838831889,-2.270732651173075,-2.208226656717332,-0.24531595850051024,-1.4693859922002117,2.2570201818427975
0.3499883602663725,0.5893850570886023,0.10279693206644827,0.835690590755047,0.9783127665714793,-0.1860864074133342
0.7980648685720357,-0.5873478052579568,0.43500502799084134,0.7594001467762408,0.5115440779503864,0.2118624293747599
-1.133086855851552,-0.8736435135830081,-0.05524479815681855,0.7061614636229907,0.6189955771459801,1.3390085589807859
0.15223839041511603,-1.0052880035020397,0.10454824101702934,0.06996410848694937,-0.7558568748795229,0.4683926993623621
2.6629200752663684,0.5655074148392502,0.945179482180952,-1.0144216465099551,-1.7564213802961244,-0.5667850611469014
0.18461579754333735,0.6105301379709863,-0.2505162823856758,-0.23958333402857385,-2.7067671433327773,-0.24127895362247267
1.8881470637992628,0.6620932031902474,0.00807080746488087,0.5412313143057071,-0.9204560560034374,-0.28850465187104046
-0.6771827602085848,0.22787740469315693,-0.6741379668975981,1.017756683631959,-0.03512853247848509,0.017721596825397853
1.0318097993026867,0.49885525264862,0.312922499053477,-0.47800758863335746,-0.7047432566522083,0.24170259884045395
3.4772767133915536,2.868764345632778,1.151842246510673,0.23881566069669002,-0.8384987078001902,-1.458073028138288
-0.37914075888991094,-1.4872505667832348,-0.4208617722796433,-0.27299201844505405,-1.341584808505621,0.4746320747424381
0.73469601008156,0.45842067803685754,0.17257786883662463,-0.5859914307370009,-1.5140263563415122,-0.2251325559539682
1.382246376185561,-0.22526831630931526,0.1758221421067292,-0.44904676497649454,-2.037708458511526,-0.6345000412421207
0.7532527570403021,0.5106350673490232,-0.08327135596708829,0.22078043877452963,-1.0451022288607579,-0.4227746948691279
-0.5541956643784057,-0.24085142842917645,-0.8388260297467454,0.8909991362807487,0.37968674044148404,0.3255440244533698
0.45394486207644796,-1.147106620941062,-0.029780750512653067,0.6882021267841762,1.2824181311500529,0.5155972477445647
-0.8037930800733155,-0.2321513229761159,0.16285999256139577,-0.063640828405428,-0.643014485604409,0.23131165578960153
0.08182797282953591,-0.3026410704100111,0.8342113940978245,-0.5764053313633488,-1.1831734876318556,-0.06103320981288124
-0.5093844627159942,0.08145370864327628,0.1827185034044013,0.5539560632261179,-0.14243306748662957,-0.21630365096290688
-2.571239238935824,-1.9549057892387558,-0.6170848834896021,0.655563897181058,1.1323568856204682,1.4569521031115453
