Gx,Gy,Gz,Ax,Ay,Az
-3.285811999999998,5.164424000000004,-5.296521000000002,20.386000000000003,-498.722,36.04
4.198463690902635,4.523858983714786,-5.194232124475196,0.2621636104314537,-3.760130225958264,-1.2856619507184255
-18.94195364483602,5.346374643581129,-0.07014659682825283,-0.8332411774562469,-1.8917279084231704,3.101804592348966
7.289520440196364,34.28045242309471,-11.516296786140886,-0.16809829444905125,-0.8975676940407865,5.415766151495185
9.676231721497059,5.400526599690048,-8.937086378543636,-3.1260177604202997,-3.264130778245728,2.158339648244066
-6.028511528659443,-0.04323506498780105,-7.463250621213516,1.0016382760646236,-2.024738774120525,4.839229596238544
-7.976643536714518,-121.53680836096053,75.62079884568122,10.986630979284275,-4.8460250110875025,3.4314653929436156
12.38762550909125,7.858499923662342,18.317123757823783,3.26647889165719,-3.75722431718763,4.195018811275993
-5.80128267640659,38.2948699344653,9.157884631037524,2.930484126603342,-4.145181132192325,1.5719336960839247
6.8433851850351015,16.66496656829415,3.640893524132721,-3.6394355483535437,-5.5304995436485616,6.113067071849187
-3.5591823838356893,-11.43612198225647,15.996694531881186,1.8959871992795176,-3.478808337384135,10.924360446564632
7.387058751503451,1.537152718086043,12.34246248108748,5.28745749704159,-15.704832499306896,12.362318924047761
-63.01936240899256,38.68448938756508,3.721236812792374,-7.864002273581627,30.607377268225417,-60.543756023715154
-9.340094676297644,28.243278030352336,-6.995871305317691,-3.19764319669637,6.088485548541652,-3.0782905994789815
-4.44637820079562,15.13479602058115,14.317106020503834,0.16158487514275022,11.110845326896127,-2.917519167077955
-2.885917587736898,40.856055027583544,24.37279590779154,3.4497799859279956,0.2580996123514453,-1.8098894666425416
3.8313553193905143,48.40048199166214,3.503686537615069,6.145577141752073,7.751307019346195,0.8708890143062346
-8.976916653715847,57.095082869140874,27.879312499381324,10.615607968843257,6.014805609858479,1.6459838213581337
7.017069946642452,-219.9497925516202,-114.82929851367483,-24.397881589826245,3.5694454458201874,-1.3323288874334653
6.470585261019586,-27.562535179605618,-6.7763342595190394,-0.04768891808046316,7.457149121285186,-0.4215975356222308
-1.7660841755317764,-45.161114429589304,-11.586973808252235,-5.3467993598691015,6.177353946925465,0.46665423395386973
10.872889017607891,1.7427569870577808,-5.283038901254358,8.329368190527907,-0.1606255359370334,0.5208804852461238
1.9186523615993147,-22.84296434513421,-7.123381686671334,-9.18009368845113,4.18939144282129,-2.0804712758481734
10.300469633239418,-28.720386038887312,-4.134645584996204,-4.121427438020153,-4.729102430445372,3.5146070568406884
-13.005185595656258,1.8563036404023663,-15.598145383920548,9.637932968644195,12.870446956511042,-8.3084726638446
6.091044157223105,-16.64427950195753,7.601246944170679,2.5142211136447004,5.738728121386623,-0.5731742783191649
-3.580961098719153,-26.719506604159395,-6.467037313503195,2.154697435635548,-4.166179587812941,-0.2495808718415617
-0.7982922814218318,1.8459237566072513,-7.399499578958175,1.5597512828612843,-6.255337700699863,-1.9899476138119179
-8.047055875474872,-13.751666099244503,-18.975702029653508,-3.685857788417446,10.746579940230795,-4.464393215467323
9.411068522610961,-44.113810078749964,-34.661585181614385,-8.17319426382625,0.1398387925626312,-5.9449404115376385
2.4453634077838347,16.079573013059917,30.09393690734028,4.147820078873512,-5.952968931867706,-0.5680082582125536
-2.162510726668353,-8.252615049671917,11.418266578018363,-5.157431750016551,-9.772098608677522,-3.633370830604014
-4.018447081770816,7.234490931691621,-0.5641090195090741,5.637727063799394,-0.6494450060002812,-2.6044363841992966
10.71047441400328,0.11139187347866564,-2.667921586755119,4.465898335548721,-1.4295842414365785,2.789640314781786
4.9992716690086745,1.3822965340931233,9.238320776485594,6.110930275360658,-9.20157619428137,-2.3021395415056034
9.72357486291753,-4.029172633173616,1.0832764273657236,-3.3940540077085095,9.992643991697248,-9.826831262935025
-20.8924333567108,-6.601639321931966,3.6558365725423996,-11.920650085675401,-8.230827812678935,5.575562437163552
-5.267889033365817,-4.76244035554828,-0.9273430370806777,-6.579360721034252,-1.9802666047022086,0.41773514654642474
-9.012771798705145,2.6645940654755944,-10.14403860524086,-8.467802578033613,9.41174731303354,-2.153177329458425
-0.6503713668779308,-6.392744165998313,5.371721196228117,-0.7276341217554623,3.748398680274887,-1.5837393926877876
-1.258085361340827,-11.409157039265382,2.495902573786976,-4.968005682388705,-6.1475893009309655,2.260992737211505
-10.14759709364122,-0.39477613000225364,-5.424174800450973,-14.928627154151135,8.578774576362518,-2.755064689660431
8.4026041612233,5.730519983129761,-11.14542949153859,11.184712524908853,7.502487235305766,-4.4851462672890365
-7.259360307635593,-1.1376655594931073,-5.700394334350257,4.92659973032051,4.3814730448426955,-1.2030403731215715
-4.772004359382035,2.5225188520677784,-1.7677616973488592,0.9369431889211125,6.230047201844511,-2.7422735022204945
4.047469068008235,-1.7816510092878466,0.9789786735440369,-7.326082359928017,6.254929940185735,1.9585659838235956
-6.300571804783008,4.386204051976222,-4.0512448159274825,-1.8650121445592442,8.896715200320887,-7.657325300839009
-19.535476952992003,13.135717460053247,-2.4010306585217114,6.8972601364624095,7.028615612567268,-11.720780624096996
14.790532485139643,-10.42392462644839,4.527229823564054,-1.0825752319263655,8.801270653064204,2.086896609228806
2.2383721687773774,1.945825167444681,4.523874049031522,-1.8304922386778542,2.835786962299821,0.8986563914005967
-1.2495728250431917,-2.645475047253138,3.2172920310268163,1.669191190082721,1.237677176476109,-1.3198698911098998
-3.2897326545706562,0.16299087514304156,-2.7648153889844007,0.43106060377115574,2.905642275126725,-4.952607342973887
-1.9511715244078793,-5.890758528518192,3.3914445901540793,3.5560501502524735,5.875546415693968,-2.455387756396466
-2.0089195790497865,-7.829412994007291,11.69717492114631,14.535469131703199,-5.0964207792752045,3.6842242215506693
-4.702560216201811,2.0359867233011237,-10.77759842869012,1.0438648411674714,0.25510058493221477,0.6203666160364243
0.4157777474280634,-0.881790340864161,-4.4924274912680335,1.5516558830917697,0.5458653880606756,-0.1256772483943438
1.701121241135153,6.510489650614124,-2.282179683452616,4.131498766383784,-4.636765795838352,-0.11892652465431988
3.492134482592902,-4.027147664300261,3.6181623496571724,2.7528130385370444,-2.6540154817345236,-1.8319969832313472
-10.89074350746452,1.6998467345751829,-8.003839914018894,4.229137582378285,-2.9106618689421837,2.702322939384377
-7.92550276908352,5.647889995958714,2.5187478753010923,-1.2965086640517085,-20.39053296350401,22.00629634522108
0.9579785003201748,-0.5172612695734785,-0.479747404384519,2.3043158544692752,-1.4623466754656578,-8.11958612688244
0.6976031890061711,-5.155038442766553,0.404837830631234,-0.0906307997129574,-3.4275768895500587,0.2341640715532951
-1.9665704448021608,-0.6090960993088228,-0.9887385126621174,1.9215999348918105,-2.877074593616907,-2.0239251332637602
-5.115254914607822,-6.520000473610082,-2.2477819212005294,1.9034351582164055,-1.8504913851883922,0.10767120822280107
-6.332053947462571,10.320697834649753,-0.2659500193222679,3.5127911995043184,-5.9816136069849435,-0.9061329794328555
0.5638681452577332,23.255256611431314,7.98479617650781,-4.184689996482775,-1.8559514339526322,2.744279913547028
-2.297376592040362,2.7837383446835853,3.179905525828929,-0.18496614613540138,-6.117502661929647,4.146647828478389
-5.37126940193358,6.520731612840751,-2.225839688801009,2.2443382061530954,-5.358185970622828,1.0174723162755321
-3.767444448986286,3.224256617388335,1.0016763448026709,0.18110310672380286,-2.0632396982298955,4.3321742824540515
-6.001858370491332,10.269003082973452,2.4971004614063075,0.8911582886586529,0.2200852043799662,-0.26569003207095254
-3.62601663619553,7.080916349984861,6.634058149268684,1.2379988858479456,-4.716113773080778,5.139750118288765
21.19677021319204,-17.440146371697033,4.56055806239252,-5.0530959905070825,4.697837502198533,4.286014064996092
-6.959044734769206,9.15159909875189,5.873675899270348,-1.2609170880222997,-0.42549525755850726,1.4928506546354399
-0.1279238442052627,-1.456127079099927,7.291757332655197,0.6676171120468593,0.04000800473742045,0.3239705630160677
-5.112542505680131,-0.2444256393859201,4.0776370149941865,-0.5283310516457428,1.8748525532958813,1.568474454821417
-3.34670892676062,4.183487394302438,3.21463658032169,1.1573291255406046,0.4245798405370658,4.59471484612219
-6.452191582188165,5.439615188631006,6.62788110846236,-1.8038400384474564,-0.7990396216794514,9.410495413216177
0.01123415719739601,-12.890722090647095,-11.845767309616921,-2.6634119505331784,2.1643309989485204,-1.7845866185048997
1.2919590811749273,-3.63752502474435,1.9711871897264686,-0.201894563058028,2.1337532981488136,1.0169453996036146
-5.5899690255663845,-4.120453349587211,0.9356861282644707,-0.4645973299996527,2.2567183590851574,6.044045971386504
-3.172172295640832,-1.7484464629913978,1.733892844149468,0.32386011493797623,1.9573109739622625,0.6355308224793865
-1.4687842583557429,-3.0381507926178424,1.1880609719964665,-2.6970149150460765,-2.0421930905409513,4.766643640393063
-0.021866712895035834,0.9272203958708394,2.824327618948743,-2.668304602098802,1.2048736202772428,5.278252303387705
4.725721425943253,3.798339127870123,-2.990542333578514,4.288529386944912,6.053220732481035,-16.32352246435826
3.462074308259705,-14.663864202266124,-0.8142889027579472,-1.970082776598125,-1.4009848596003307,0.5886321842582602
-1.6198819694881639,1.810738425741304,-0.5705004166112033,-1.767320720776048,0.5388777664895776,0.6238286922878539
1.1429660587521207,-3.9680047596183257,0.40219346616196705,-0.6220939113482282,-1.6576860231723625,0.882674780719959
3.8077930898868004,0.3669772739095931,2.7907330495108402,-2.7382271328125096,0.9765192157952449,-2.6723740888456766
5.49382489110561,-4.033922362509997,-0.9886894842500928,-4.147573815872005,1.0204342158111457,-0.8122571677173046
-5.955427894661093,-4.601076472389214,1.8330437644293676,0.6784481441131229,-1.516974297462789,5.317627797382936
3.69884393744824,-2.451689470838739,-2.9420079120591263,-0.20927750337342954,0.4993623946194267,-4.004400872097355
1.444904316995236,0.666455517185996,-1.515217665999868,-0.08813132636285922,1.654157299382721,-1.3219777406951136
1.5069690549931913,-1.0403480394389455,-1.3647433761650718,0.5052331410432084,2.5022103510726295,-3.6617082657499824
8.310987485792909,-8.32280651629239,-1.374381557157286,0.18301098607138772,0.7320556558214426,-2.8035646130777945
10.73388397854972,-3.2044822451609267,-4.123576733241805,-0.4020863304754533,0.9802031465043847,-6.293175590253027
-10.651717246714576,6.014190074076115,1.4146331281974247,-1.8320957356657184,-3.4057181195533976,4.756470155004591
2.6862213361155365,-1.4966075615127554,-2.51482045784505,1.5431080727716886,1.9496836450520783,-1.361171811568989
3.8707889693953095,-4.111703771633872,-2.2325437175819847,-0.5475559058824152,-2.215685905629909,-1.5238757284446587
2.2541050590119585,0.8507718811865591,-1.9207371488917244,0.2946930197395995,1.6354194753456623,-0.6919916085908685
0.4212320607407726,-3.0383618292527332,-4.381923440565614,0.038496485338411573,-0.8692857745266953,-0.8061627506943259
3.7000852602252614,-7.0646139789698195,-4.32809543901298,2.1368350154061475,0.017490276533198235,-5.271816878551526
3.7341192336747047,-3.4633859521100794,2.417807640446091,0.194668148304071,2.069913661022071,-3.945763420112037
-1.4224212557794194,2.5117643808196464,-2.933969374900072,2.2051871333680624,0.6547614344050977,-1.1614051070956533
3.670277009779776,-1.2747932671604167,-1.4138765919349667,2.135556203404871,0.2445337767887443,-4.548054267309612
4.790328923737808,-0.1934290834966758,-2.043744619431102,-0.11492277566677565,-1.6055570702903275,0.3953669942352841
6.920306331414144,-3.1632956604442612,-0.03994662974194163,-0.10102972649295261,-0.6531369405709031,-3.5671270646550406
-0.6627364902299142,3.9842632588633746,-0.1888627336056764,2.0957878962179732,0.9071852371565581,-2.5360359735161646
0.15783126463343766,-5.569991163930951,-2.7819139932751558,-0.5941417470858763,0.2720040511120977,2.198412479111056
-0.23096832654761368,2.2905323796409895,-0.2907317281628814,0.17715530352712372,-0.9234876983141528,0.4637231823229976
3.573358755931559,-0.9044548412065125,-0.4623033221590623,1.0500505050723672,0.8827801748232379,-1.2930880291868632
4.000327755665315,-3.921967246623842,-2.1061568118072924,0.8510849266628528,-0.6102698220536646,-2.573978190503748
0.23540420401293394,-6.262883855212589,-1.2463146081614835,-0.06742883008807704,1.180767988949135,-1.3168299596992676
-4.310984448157109,0.5999539777487221,0.7288791045265368,0.8942402912604623,1.8997596031408703,1.1508392095973332
6.985554922045399,1.8392946143441657,-2.0120996781348115,1.1045936645208405,-0.8561077396214284,-3.229870337596998
0.5313932444229073,-0.24608056239371062,0.9271104486640822,-0.14424779947113814,-0.17714807624967524,-0.16157775907861419
-1.5358181489149167,2.481996494798956,-0.882197997225072,0.048830223483116664,0.2409492338152239,1.2821233214985321
1.6040820383515253,1.2191151384901358,-0.5276583540045201,0.8163649779275772,0.14679167830918752,-0.19852770668029052
-1.3949785891202877,4.854880184645615,-0.6968924747202632,1.424099932414334,0.3776363742431902,-0.4262370637923072
-7.096257750091358,3.1597061893361564,0.2199623227877761,0.23676953704437537,-0.5416600330261798,3.056034045270245
7.412596363872931,-2.0587968276858835,-0.24591869819938367,0.5510867492995499,-0.3431382591372585,-3.3233650386866147
