Gx,Gy,Gz,Ax,Ay,Az
4.913640000000001,-5.945113999999998,1.4813269999999998,19.471999999999998,-441.03200000000004,6.280000000000001
1.7445616742236192,-8.707254684369909,-4.6311944558092435,-2.2893125542259005,1.3219799603965332,-0.25084907642003085
7.272429578955247,-15.567715415246749,4.532529484473009,-2.0803418614125926,1.4638680490910745,-0.727836991217974
-8.488855592235707,11.779343580539827,3.0267835687611866,-2.127893450406843,1.9023920259986784,-1.1989856319008336
14.550514999080937,-66.09483648726935,22.852215481895396,-2.776344146527645,1.6114343148619654,2.565629438709647
7.619235989289673,-1.2226941103444955,-13.427747862154082,1.30371015035618,3.3905571036639586,-6.0986036071152006
-1.6270122471359143,17.90400092575548,-7.877007610477235,-0.7782969474393719,6.752106829299224,-6.34393260979569
9.697877998094205,-9.730100464704023,-7.439238204540722,-1.3816045278911755,9.5473404919694,-10.826089832998669
-37.267234716573626,-21.2511384984171,6.339862207759848,-10.580425999887911,33.42310713971325,-34.35639544613512
20.445433163338485,-11.98502427878766,-10.236699254317019,5.091067919694339,-7.564025640804938,16.174137658401506
12.237239343522463,-3.72300697337002,-9.69282257437459,-2.070010437396082,-5.679362204927344,4.083112395377469
1.5572041848373883,-11.393878020581269,-15.222599625197368,-6.724751871633048,-4.489449724658993,1.6225136773708626
10.693039103439968,-22.10343832062909,-35.54584357749739,2.485279244449979,-4.961424872628366,5.360204683406794
-8.22523274828178,31.599750431129948,41.5911761477299,-9.47123863459324,-6.319730504672108,0.6695700472203306
5.271680618054906,14.615264895239328,-0.5026061471479069,0.9881285506439541,-8.927507295554541,6.376831405180997
11.958523456425649,7.369082028863207,2.0174613216971906,1.3568509745605566,-3.430687621113414,6.086112285055947
2.5460319376770006,11.061465775185242,-6.219071193492651,-1.6636745340181,-5.696359375913487,0.47850339366318173
-2.634845003078047,15.726325278883305,7.644302020701055,0.0857683473252362,3.531333998615141,-2.3907495899930113
1.7501327869990284,19.742099091037012,3.1382699200612083,5.182922754636651,0.04446899209321398,-1.652770594993954
-9.762688842800996,-4.600150004293692,4.062114024192698,-4.8880798502008735,-1.136326971672259,-6.391114353719763
-2.7242135065422186,-19.907647505350454,6.462142634927032,-4.224276858265269,-1.376368473953241,-1.592006090594825
4.963642699203439,20.622148884924208,-15.709571018973332,17.136902481713303,2.4650234118717953,3.3208504164590993
0.8022973537185862,-15.313836842793126,0.6101548757094797,-4.060792519502934,-0.7322801729860589,1.3812986997253223
1.7808970135591702,-11.706219228000107,-3.2314700264965563,-0.998924379860278,-1.9346813453420744,4.100634748082859
7.103151305778708,4.698766124926722,-1.0076231661274906,3.4174179549945447,1.1959561291219598,4.266882067406295
-24.083359475070967,8.156840146638821,8.220724034044546,5.70828820347499,4.394188967506403,-13.72226272393521
-6.5600350254315805,-8.189169938986574,-0.12382609812159973,-4.821856028435464,8.439249020347873,3.2117452137276774
-4.3960858538985494,4.1547585051917295,1.8549781741683526,2.2802609525023407,7.75751447432489,2.095742277607034
2.3784987438279446,30.349167828036038,1.8141382302324307,13.001476909803465,6.68717395930924,2.10431139542696
6.741727490023798,8.092142616897458,0.9327117400085561,-24.169046811633898,6.204411333366962,-3.8286329050690044
-6.365355341629007,16.437039300797842,5.30169072408272,9.848921327840024,4.167456596543631,-0.4639615484040911
8.193358204279551,8.991391548444764,3.319519511694388,7.601343561157022,-1.6062431059716369,3.276681193216319
11.520520567280869,-12.048723009552372,2.8943391498739626,-1.9888120936374416,-16.157847397537378,7.002771414061934
4.368070375459174,-4.888689270127871,-4.422001349694063,-4.8522338915883685,1.4015438525855868,5.362457401725087
12.76769960187052,-2.9377174411139073,1.5237803908981722,3.693256339675248,-12.669431778312198,3.3878454067036374
3.8739920723099397,-14.34542718635853,-5.742547862421185,-5.183491039963352,-2.030523131676978,2.5135512249795178
-3.3338464298362513,-15.716603048480838,1.9148582528989988,-12.030811282783883,-0.6799284846805111,0.13616403294433044
-10.930468619001573,-6.94521694880276,0.08612194796418693,15.05847394958112,-3.098738435084476,1.360200931975728
4.877849604929782,5.588880926282531,-1.4399210305614645,-14.273371085521646,8.163714028915084,-0.6251050899275139
1.1018629898147818,2.002974728170443,-0.4910911490034344,-3.8585631501775803,-0.24682417957877822,-0.9204424709702625
-2.523699263879207,10.066060140670785,-0.7336663301204531,5.09624184542513,8.10093937886527,-3.0877073941053856
3.9740144157030866,4.006384931829253,-1.7188982076278023,5.358833235211675,-7.760786885348098,2.0379482162599576
-4.513452334135756,6.4482812538507055,-3.5597054945291373,-2.730396004202056,24.741813003315002,-5.058142460316527
-0.8292098921043465,1.4919068443971817,1.5030444435856687,-2.0641298741344842,4.254722311373388,-2.170767774772944
-3.959921633094055,2.290616581032456,-3.967606642511981,1.048773783581355,2.4602739562073737,-2.547503111281106
1.1213499731866525,-1.8429447006590078,4.920220725398508,-1.1473091377721687,-3.7096572773799164,1.6441706021768452
-3.5432625689857793,2.6746108710910885,-5.715044355060273,7.597488264533524,0.44286724664139987,-4.444674159333143
-7.924168508993095,-6.072467503369182,8.789642645837374,3.473683464233734,1.285588314919448,-0.7225717146728083
-3.968171345473099,-0.9195298064774491,4.014607746324712,-0.0560301183174452,-2.4362635998401716,1.853010244804917
4.436326091477155,-3.531111427469476,3.963401855381211,-2.62042413484048,-7.324075046617454,3.247417445029856
-4.7719104622216095,-1.5585757834752485,0.007555745738053954,6.165092494790649,-8.049191093821232,0.8510413887680259
5.65452677407417,-0.6799426679599874,0.8638276966678653,2.951246818277816,-7.4800371773113845,4.530002392633941
4.583518832001058,-1.7248423318048758,1.564750602256401,-0.6281211884209448,-3.3541544797269296,2.842125590826233
2.5101899148523996,0.4984990535887571,2.070797485980739,-3.7831544519760185,4.580872580730968,1.6515348627679436
-2.8024873274894695,1.459747076565494,1.2347798507644732,1.0925942735135128,-1.9220163658682838,2.6069829609452846
4.865587614558269,4.089552804801704,-4.208194618670083,-0.20949324706149008,1.4056473000331344,0.4772884371284485
2.9780430373888045,3.0154874392549447,-3.026695193880723,-0.04514465838759674,3.0171662910294472,0.7192607722020552
3.2217596246182065,4.479169021646084,-3.7260827364410005,0.044143245492940464,7.216598842706498,-2.787464135582699
3.0225123640277136,-2.906686215311032,2.6983954161344847,-3.092961709164524,-0.49636215690371893,4.228726712907214
3.7140546724939196,1.853298966316535,-2.5045420206709643,2.664287251496553,4.245941318928026,-3.361566546900698
0.8391578365972916,1.712924369520504,-1.6044704852696787,0.32985347105638574,0.5641555599558326,-3.189843890279912
-5.044309987962555,0.46055813625190023,-0.9158716477548208,1.3261501133897382,0.13848051662223781,-3.6486291816413123
2.0279458988104078,0.3827973437762431,-0.40374863749417456,-2.044545550575445,-1.2345525171714726,0.41584806890227277
1.6455219386979083,-0.39602196746310847,2.120564608590314,1.0278508569754252,-3.7297576434827713,-4.430766968009575
-6.206986036441526,-0.4854428349289197,2.115324412227511,1.3232618736819304,1.4370666678266741,-1.3160898448973573
-8.973605286705624,-1.4844412654772388,2.302718790880924,3.3025011748316553,-1.263389844929995,-0.008620491890759197
0.16642056776509584,-0.7518287914158397,2.2998155397023563,-0.7611088172185205,1.5685646244034306,-0.6010268319196679
-4.88012173436616,-1.5954328940113598,-0.04630981964228892,1.2710114471880827,0.09760488248481414,0.6281098476220474
-1.2920723545576667,-0.4450806486130592,0.3485175082535259,0.9269306440409171,-1.7921143432148225,4.935791428779971
-0.3696775942643855,-4.113346430502662,2.264561137170586,0.5725967866417454,-2.906035767373733,3.3067893154396293
5.199093376860384,1.435293403482092,-0.23166646099486488,-0.16820129839910702,1.1909486497913901,1.2676836129700662
-1.7757216810207561,-0.9799708593208059,1.5438730004601433,0.5365772469008134,-0.48652824111515125,3.8779212936042904
4.274648485343894,2.346337260764141,-1.9724185212783594,-1.0778994266402622,-1.3105256221263728,1.6956871746874977
6.427800105916176,2.5746031698210134,-1.6999400149095756,-0.1833225211737366,-2.1860016043466293,2.6562572425354873
2.2266481617460996,3.67962010906428,-1.7096432571116669,-0.023025203888589196,2.8252272780534504,-3.8347276485585353
3.4550447807873645,0.4767359053092637,1.4586803920112472,-0.6006315104122812,-0.4691277999454466,1.1333004385897543
5.136042716070274,0.9711671424117583,0.027147684738670796,0.09455052474494163,0.9667843414323847,-0.9707618257317093
5.5133240048199745,2.221067827728792,-1.0119246933595138,-0.8491879305061666,1.4366341506274596,-1.960633802790683
-4.524732705371066,-1.0976864401073936,0.03503752775075114,1.0700067335690857,1.6233723103800983,-3.9964491065976917
-1.5008398340359923,-0.2756529792966673,1.8115892603885435,0.10133292901515945,1.2054353162517737,0.7260144321635664
-1.632195235434259,-0.6893679686598184,0.002301778264064115,-0.24903043488258692,0.6044135128793751,-4.116523113559212
-2.893888689022391,-0.8811690799258604,0.8834654741536032,0.6429255666554701,2.194111548204985,-0.8127761116714816
-6.267518480822596,-1.9113541096413602,0.5137832412311787,1.747976670987411,-2.0444250829325217,2.0978391534377905
-2.84119007565494,1.700567638667954,-0.47266566966064505,0.28273240495936114,0.9766790608838984,-0.8949234754781608
-4.168981014160838,-0.5316161433523778,2.1900063561907777,0.13172301135209807,0.18451167405841273,-0.8470915477614424
-3.846521488690656,0.16792444545945912,-0.3528952876322954,0.6487331487434023,-0.3211050347393192,1.809306397447251
0.07642464331013077,-0.17927714298809816,0.19721742740048756,0.3937851972670452,-2.415736883179269,4.783898602582554
3.0607888001269874,1.3139188721407302,-2.0540505544877163,0.8424648784207979,0.29907916025266834,0.322500656155976
1.0114817209548088,-0.19243721608571807,2.0038791811695296,0.5479403640359617,-0.8077165722577417,4.712066955516304
2.2925327690624764,0.7196311719649611,-1.9301102428720522,-0.2845793121516498,-0.545269180814422,0.8660169662067073
5.394728158745324,0.8262414099330132,-1.3462146131855093,-1.195046782573888,-0.28635228752421504,1.532092537938278
1.610488477560367,1.3814180102689344,-2.1174304336217378,0.6293279053161585,0.8759510591022869,-0.5246172132355429
0.21693352107599706,1.6527449396010723,-0.1942720266558018,0.15727245197476014,-0.04032350584783284,0.849645822507739
3.8674600916970308,0.27344238655073183,0.4448548642976373,-0.3205940607018909,0.03366734295670071,-1.24336390693297
4.665944990022332,1.3255878637872647,-0.1564880554852982,-0.8120724477649837,1.6588605664392122,-2.616837024610426
-0.39677475767951487,1.455310898772452,-0.004759667987961902,0.9990085188894009,0.15593838509574495,-1.5814269757574555
-0.7948113570154032,1.713663009986282,0.5950935032737354,0.4510324363216067,0.8037991778145797,-1.0004891683979293
-0.23414545902458128,-0.31894454445368625,0.8260571584309014,0.48072952089522647,0.28075665522808424,-1.9293411777022986
-0.12487535449952869,0.41553405070780425,1.2118855498223895,0.7299536173499117,1.4981412549458861,-1.2740513812199938
-1.4003962951727884,-1.0219587671413972,1.563196561958787,0.39121458737420967,-0.6762431468404086,2.211308075584781
-0.5336887531990939,0.390797252543968,-0.27694289251736537,0.5344414735962087,-0.39977342097434243,0.06829720538645095
-4.137915936663196,-0.5051702651233916,0.7322332279384249,0.07801475829565452,0.35485856426156126,0.8352360237556842
-3.6338968263395115,1.1358234868657,-0.11618356762623283,0.9892423610718089,0.41731911579295644,0.8666846907548947
-2.0258717967638877,-1.6992835604711147,0.14192609876343032,-0.9016125012627245,-0.6597643883581774,2.6276322137325705
2.110954207789461,0.5712684784893088,-1.034102067521197,0.29129646423146016,-0.6787101911786237,-0.09335356794716276
-1.1128898553500504,0.03406237963222314,0.34386596859006624,0.24501413111641784,0.9350417995180239,2.4201188107414353
-0.23585166068246877,0.35200371718563916,-0.3052023664747966,0.31481732901110593,-0.2948185016018548,0.42507845735196026
0.9532531888343174,-0.10803907198759433,-0.05721369486126987,-0.4576492789636135,0.4640285042857921,-0.20685371116708373
4.544909412575175,1.3128616070087866,-0.5243875746502269,0.5062489181803924,0.03983544216868462,-0.29871046940163465
2.4599238154609147,0.840449575286524,-0.2651730436004486,0.1957535980423829,-0.46638749048939965,0.3089816912438741
