Gx,Gy,Gz,Ax,Ay,Az
-0.05242799999999942,5.276436999999997,0.9324259999999998,3.0699999999999985,-570.634,67.05799999999998
2.4087928238368117,10.822447933024918,1.9748383101242235,-1.814763515122496,1.6837187891164698,-3.7308140820299176
-3.617143943424735,6.417699849256431,4.540380448687835,0.692719596064227,1.0158476425889926,-0.7237923338154013
7.128366279442853,-4.265264266850725,7.340731245877571,0.7056354375752762,0.6677669288519746,-1.0958342739476035
2.248608203731631,-8.64798426223306,10.252289742949804,2.164887720911432,2.380701436107815,0.8959736160805433
2.865254689681266,6.2069602144982,7.370020136521989,2.021493202505103,-0.36932662923536475,0.7453185381737492
-16.31450554688422,58.26413681414797,-36.46485369253654,-5.474111180745423,5.30770289739465,1.7103281883047374
-4.510687062238921,6.884581282213901,-4.301097716823594,2.153856128396848,5.0029110796927085,1.9088036544558664
4.123667739810395,5.031311417110576,0.7236539713362582,-1.7761413395321157,6.140817967897161,0.47116476370010196
8.47209344152802,6.545363391641136,-2.5274531331359293,0.5672218384487642,6.400156283586194,3.761219264088834
4.915167767602999,6.432835695961737,2.886489408302372,-0.581715291136644,10.210630842883681,3.360937868140361
12.243832433201682,1.6150203348024472,-5.894433850671707,-4.288514705670914,39.70919020354499,-0.5504621060874813
-18.612570362016076,-1.582046570340676,-1.9488784555823402,3.1618931292902746,-43.555456349929564,-5.04771781352413
-4.832814355819673,6.311471424997228,-1.915518287270654,1.317473235577,-5.562820521532169,-4.7532338681583015
-6.904711061889785,-6.589833576709591,2.682718772380417,0.31956651561011273,-6.165617333215327,0.20015878880909987
-1.0571377228842864,-10.135027034048091,1.4175865276490247,-1.202928943061036,-6.957474994480211,-2.0587355403389394
-4.118739354910533,-2.5861442601340974,-5.966434840951859,-1.3477030516087622,-4.535648931096944,-2.292048592462974
0.3714129771790251,-42.21736128231241,16.682719782217212,3.237377222211653,-11.775309012096319,-0.22408482522626025
2.7350108110966644,17.16288918616482,-5.080999979022643,-5.317555581663488,3.9489190904889613,1.7335286077940306
-4.797862609383412,-0.6000596128640243,8.482015894133047,1.2335109753814042,-0.544344667422743,0.4089059242865887
1.1762052402219918,-1.561077849045381,3.390077742673215,0.05337296913859568,-1.4394122263104663,-1.2681569042412133
1.0662313724779007,-2.0358494322417084,-0.6298991018190876,-3.1895725043207963,-4.429735435995164,0.23423428652963563
5.1465023285236935,1.9873341406243021,-0.30405218327367445,0.7971084954800702,-2.740936484194526,4.67195274668523
16.00578565555769,2.3163951938022094,8.663796141097432,-1.9949887480476025,-0.3436263658659689,6.5175987189579265
-9.79233115964415,-3.896215763552137,1.1305475986445535,0.7350065922803877,-2.1002509882869194,-0.820940861810627
-7.569156396449585,-5.031175627602593,2.693098380594388,0.6088514738716857,-0.014889626657113908,-3.0672862530817717
-0.5032533686103309,-5.136296382085426,0.8575026690429621,-2.3252444738605273,-0.6634276178886043,-1.5713652672024643
1.6027965099718855,-6.260794598611947,-0.8804247784477076,-4.522137722258364,-6.079317499034982,0.6117157193476445
-0.6434697272082459,6.673111788045772,-5.720004956728449,-1.8103571845613742,-4.763170610979175,-2.8440913963439534
7.143240723966674,32.644977166190756,-7.922643704881242,19.38838740366564,-6.927282507019924,0.3731590162205098
-4.733433153397783,-9.991059342654005,-0.019853127979546026,-2.3036940571786997,-2.2469267416542897,1.2750543009026658
1.0950659240521832,-9.068362026868392,5.663343100544147,-8.44946885959068,-4.432738102742405,-0.3973138304068151
0.5808450405134931,8.120167179934082,3.1547403720594334,-0.8807096996134678,-6.345977268166875,-4.9856553238958305
3.5586142287701756,5.915122765959292,-2.563885433522453,5.010315594133092,-5.451303944568108,-1.0447964370564962
0.3673919539461923,-0.603356692086271,1.8089791820274053,0.8869487780554032,-7.4523417764744435,-1.6732014475361376
2.457790880481791,-11.639008444836364,2.1455733697905583,-2.8523412278954923,20.328308923818582,5.792557581661825
0.3990344743963611,-1.6860109430862504,0.9840251683629666,-2.0388810929272845,1.4219828853089114,2.0321828315924653
0.7934199531447601,5.140146651185404,1.7272085360317735,3.236162300990917,-2.411569895508737,-1.6158871460044737
-1.3010802899016631,-10.204925787042177,9.578797123044023,2.7415504487595888,3.710300474768406,0.9947500411227943
4.476243920096092,-1.2923798308871195,0.7491554363129915,-1.8798355091461842,-0.6536967551253028,1.5253315648884884
1.330161348844098,4.215968011107958,10.775784589609454,3.5502955241952163,1.2919827945838345,-2.9103118869709332
-3.616338821807629,11.00128197830771,-16.52774346673108,2.016174616966234,-0.6323822618178312,0.6590047514835199
-1.985735695498023,1.822210305856856,-3.608653978086728,2.5835319761995916,0.8749468837306633,1.8794036022971679
-0.47779864503916514,-2.6807560617301203,1.6717112346298881,-2.4172529935813163,-1.5089669715021488,1.5066455100272196
4.147111820808915,1.3896858995519579,-2.2119481360858266,-1.1477372673301767,-5.305123571840504,-1.8533456659585084
1.0569737514028803,1.1212780726839304,-0.08007286036867928,4.099997893340318,-1.2506769275557459,-1.3662043911815238
8.671257705732764,-4.945397855746057,2.515640272112963,-2.8192540414420892,-10.31383312539235,-2.522077749484018
-3.17746426058437,-2.5897227304864776,0.924726973557727,-0.4294762013801885,7.378239574315838,0.9644483286228376
-0.340735603798277,3.6144476573131445,-1.2705199124331958,3.7078945906816854,0.42473959264934946,0.9210156945565948
1.316271237079139,0.8795579500754185,0.24955702583449596,-2.1366400108231844,-4.912335158464391,-1.1076451228936233
-0.3859691228997524,-5.850025910985272,-1.4389639512000112,-0.47911527354537786,-1.6634311683838028,0.9592684505817445
0.42665978409918814,2.978268024499939,-4.916691510345853,0.021048691415085585,-1.2147545433982554,2.1517904129684524
-7.231059583644017,9.130094865811499,-6.3859170895087205,1.7641516816861254,2.5457591834276427,-0.07760632399123657
-5.213213585336768,1.7542673528783568,-1.503830763300403,2.7745901898666543,1.478530932109061,-1.186663322246126
-3.5477128801265723,-2.5525780370260462,-2.4653309220183894,0.0997204864411817,-1.8200492443303729,0.6767528435747583
-5.804664984845564,3.9368801367992776,-4.6247147936370645,0.7759343122534055,-1.4322572906067896,2.056692985199692
1.170938738636473,-0.17931965098157188,-1.6763282160115947,-0.579004314342152,-3.4496169876802742,-0.24940424542779427
-5.971059814880089,2.947686292129317,-2.4669449249993427,3.2072485664075088,5.6753352260234475,-2.0934598334617918
16.755622559139717,-5.244089919189316,5.604981067149452,-5.623284956083627,5.537896821527601,1.8064413904465977
-1.8594224341164955,-1.5892116188121326,0.9509421659919108,-2.9373739814294786,3.400139796602645,-1.3710053702128688
-0.5631129465443911,-2.6337995799565563,-0.29180220183389016,0.24902838844716224,-2.2975571131089114,-0.9145737886172722
-0.4308684230646598,-0.808289167328931,2.4672099798258067,-3.092856689592395,-0.9528750487427405,-0.8195445593271922
2.13522307030075,-4.46964275192442,1.610735680679004,-2.9963607916996917,1.6809109374777274,0.621103636277492
4.045956035730338,-7.539147552530914,6.003497562347182,-3.4895760377587344,-2.6154158019954004,0.3176641231902799
4.032295924831153,8.191439232621068,-3.4808210563768505,5.787987901045163,-2.030800553279036,1.0645251890925964
-4.0462584643009905,0.5532714777978996,-0.13818059200707444,1.293739421885596,1.2203459458525714,-1.1043939081028504
0.2040638156767109,-3.2135275695890972,1.8063424201532727,-1.87172534849461,-2.5146736307624415,-0.4843000274427105
-2.944916046782045,1.1729189078368252,-0.15036082900654335,0.7054403288262936,-7.313576591544173,0.8974541648797797
-2.675628236711016,1.5528491109707123,-0.208119062993525,2.6961041012444857,-8.434239276739671,2.1756582012376993
-12.800954041393487,5.304365822896633,-7.294476257404456,4.700409687246805,-2.621467549815392,-4.26093370523288
9.027613281239757,0.4092542826110429,1.0538545138378135,1.22007047685414,4.489103667444571,3.574432672977572
1.8759914559079993,0.3342000342974538,0.0796035642460109,-0.8977531791380968,1.9423906487404752,-1.1698103207155481
-3.227937035540156,0.5462768644207618,-2.726676356569457,1.4452961043836674,-1.1182873928770243,-0.9496503720235792
-3.1365479508529033,1.277892726651363,0.6322120456285482,-0.02876838654884928,-2.4922400148196893,0.7863600043406548
2.502497216317601,-0.7453561436344731,-6.36536328110664,-0.47953796601876775,2.7072817219861323,-0.18671970484484132
-0.27321981160603315,-5.110081156881691,4.054777685561815,-5.139604769771795,0.30214837698772545,0.3430545389735839
6.525077052367016,0.6089145055906466,-2.121626278555812,1.527951356562614,1.5270471982766878,-0.38493855325014303
-0.34663718908925384,0.6421239790151363,0.802382611989228,0.5029692612793997,0.8340114161045662,-1.525778168921499
-0.3582161206886427,-2.656336992254297,-0.27493152482433225,-1.9218376702981386,2.4079911414375053,-1.3101100695109917
2.586879319620099,-1.7047400427065487,-1.4801070154615017,-2.3196420883853133,0.6367384777669544,-0.4280120655412351
1.995227001144627,-2.2835391794125597,4.011568051770661,-1.4666630977368975,-2.059592913030454,3.906582717767564
-7.998589733877876,0.3449707818687011,-1.369594610843358,-0.34227562868207134,-4.03822355912332,-2.9027653515091396
-0.46370691247690643,0.3677565180216429,1.0791121241810913,1.21578909824216,-0.16519711114189606,2.643570855361099
-0.12902725482762167,-1.0814939580520768,1.178415267113818,-0.9231896099446523,1.5444902572391148,0.7575132722172317
-2.96254878053648,0.5893509599623925,2.1990674312370904,0.7404286381460674,0.37913474412061987,-0.9733637458000026
-5.704659902858843,1.2026277241572056,2.745753980262215,0.39450899362186154,-3.016451488136834,2.5279063277761162
0.6967475546620908,1.5823220786543,-4.627300773697616,3.2465093733336357,-0.21420887071849926,0.049799402879762145
0.5262878158399551,-1.9060071167333568,-0.1625224437881,-2.738497260801598,-2.9276531824244345,1.4442495433562863
3.6598668655108755,-0.22436702477914672,-0.6115608991884001,0.8102631059023813,0.07804980814740259,-0.6033872717455393
0.1577981753131228,2.45505235975479,-0.9141188196972979,2.3072022718469243,0.026739142096900703,-1.0217210584981662
0.9303167843041348,-1.3623399460581722,0.9537334721166707,-0.09219044458781467,0.61593046059754,-0.5634631243402684
2.65476441508124,-1.5777094278536148,-3.530053953676502,-0.3400231024241098,2.248874651592878,-3.0132859494433752
8.468546028456018,-1.2907942297995805,1.1598171570731548,0.7019283712955839,0.9835888270659575,2.3658287789922947
-2.8503023997776875,0.5699856693933324,-2.4651883932438956,-0.31715596973375937,-5.180821938591862,-0.9029033823071844
0.34699236824829316,0.3981275125148772,-0.6044207300135652,-0.682907539569004,-1.6597884155258766,1.1118099149489822
1.6470405309524279,-1.5984973062746743,1.0858965599693728,-0.3573113647804065,0.40493639703632445,-0.32176055734963205
-3.7663768721778954,1.1697040306352904,2.021638698071799,0.20550889026226127,1.7785089457562826,-1.1834638318145094
-8.138829740345518,-2.520809926487236,4.952465066683008,-2.4560137758611185,-1.483204352854638,2.7316552404491796
-4.966858185079243,0.9648789611368307,0.9786591545550113,1.4279875051117847,1.5290884404526057,-0.2089705255869001
1.5445395690445833,-2.5774904871215853,-0.2387828772441427,-1.659250085995656,-3.1676586839984013,1.8352158040448332
2.544762673964261,0.17666721313576184,0.23576139694178377,-0.1843773271418202,-0.27717823481242365,0.5004105680158735
-4.670223636069047,1.2484554749274077,-0.3714989489473661,0.9065795788027701,1.1270971218076429,-0.129776960535817
-2.180850491576201,-1.6195180551969262,2.4826026400684573,-1.617319468883292,-0.35964835385479366,0.7406817725797733
-0.8453071065296891,1.935766761471215,-4.239752819541415,0.44938990957044356,-0.04673282381205368,-2.401189011031891
8.55926956694484,0.0033586429949168384,-0.07182500818569171,1.6136571870943597,4.055710659265687,-0.4107390310352024
-1.6410694890238506,0.17861354671342933,-2.5440524221698486,0.3566528388133653,-1.7636179431118109,0.37357327531211526
-1.2477377740185438,-0.12252486667655667,-1.1547572920177454,-0.7449784599572495,-0.319307673948499,1.5158994546592255
6.00351634989618,-1.203124996896829,-1.0395719127879457,0.6460762948204076,0.1921920399881263,-0.8263211792697147
0.700897635060308,2.782314544715246,-2.3503857718095733,1.2165897914273862,1.276137812524834,-1.5386331668922626
-1.9262945976874317,-3.855748869828636,1.3893049868501557,-1.6947135153749908,-1.65260307729501,1.6346751274182327
-5.1536224916476625,0.20499322585570928,3.7668009096690485,0.030566772157682498,-0.1002976236525141,-1.0212356267704779
0.020995409856834346,-1.4612061911612022,0.22960721537282072,-0.2816844325425304,-0.5215912354528169,0.09552129722759295
6.64465597323424,0.3560762998121224,-0.6164345633343913,0.655839085769553,-0.7151053301676047,-0.6360300966841301
-2.8779176405129254,0.2939746947967887,1.7875985660996867,0.7865226985818209,0.14204189509656345,0.07466409757071928
-1.8809735829546468,-2.1506657090800143,3.376210570081871,-1.1922470027921976,-1.4724230072226854,1.1235736492207637
-5.280486546172002,0.09529544770151333,-0.9622121097471387,-0.6439990266596587,-2.320479367048113,0.2496796806686593
3.8548915712150023,-0.2913466375811242,0.7315683417837461,-0.050334311580847335,1.1256163968484874,-0.003268576584647187
0.0010934726344027368,-0.5971108592412881,-1.2711467396755243,0.23921293484868647,-0.8256081166243943,-0.02148696199392619
-3.9195770790456184,0.10390957245109206,0.6355256281217587,-0.5600150748777304,-0.5030188239692369,1.3421595159357573
3.5827976483256267,-0.6473817162014305,-0.19458383608735974,0.08386124201914708,0.5011068961276361,-0.5391586710493661
-0.41185895490070346,1.7247043946622451,-2.133018313411796,0.9193033101817578,1.3502256525216652,-0.5687178495997716
1.8466572013893567,-1.4282381133137407,-2.0277425496266925,0.7181518979178556,0.1262548991295525,1.1191859895285117
-2.409369080876548,-1.23356852402432,1.5869335543516354,-0.8894143157965084,-1.1357642078865167,0.0393289123072889
-2.7657982011393494,-1.1418298993242328,1.0835472404250546,-0.6078042679502167,-0.48401994100423185,-0.5387642830432738
4.400841861426051,0.6155294778060751,-1.7359984930411287,0.8644924417299119,0.8945803916742567,-1.0144773579903856
-0.851383337729936,0.9811134527355588,-0.4016089584964019,0.6274069156800072,0.8731213975027385,-0.27989034517551636
1.9251812503225376,-1.5747165334195299,1.6144811403963768,-0.47650139463159014,-0.29062811795657595,-0.10819983071123218
-3.223522881063311,-0.9561266269007066,-0.7949502619596467,0.15163439231909825,-1.3034148344002414,-0.05412806108414818
-0.6811480693677949,-0.02427054148575275,0.4543352342039182,-0.5009547355915109,1.2263350797182118,0.7030560456159397
-0.62296826783345,0.2707703071998778,-0.20504113434885818,-0.14983233698535198,0.11513446756327944,0.339206452191933
-3.627194666486317,-0.9618447580760513,1.331623400963052,-0.23684693897520526,-1.2201751787881874,0.6140538581240453
3.3117477247851843,0.2921476468579135,1.1223139614091153,-0.3211029178373367,-0.3229357067945641,-0.35504605613536405
-1.5747764464645708,0.2934532046717393,-0.9169850906941699,0.046504962965291496,0.846234652368103,-0.529122284750806
2.27090911501753,0.48572315937598,-1.832966566004567,1.7090475416397832,0.5337220683326507,0.3685940214852099
0.9248766593179476,-1.0129013408996816,0.044809903468798984,-0.05280011073890262,-0.5270972811074502,0.2523807068380719
-1.740634523819716,-0.30180482032457706,0.27168522346056145,-0.5515570821002127,-1.1722350444204988,-0.42931731527076966
2.5766160946745993,0.09361300743334566,-1.4694760766872992,0.8331141641872943,0.5875284701858315,-0.30573867555160805
-1.9767519418962627,-0.2587044838029612,-0.8565310921378796,0.053392695823535855,-0.2556807730035747,-0.34248811151886704
