Gx,Gy,Gz,Ax,Ay,Az
-2.071198,12.421437999999998,1.194468,30.467999999999996,-462.344,-29.78000000000001
-1.5138912005789338,20.76994914671313,-0.08305708389690492,1.2006953817172545,0.2110371495506115,2.3861052610363
2.3597233857054105,16.4395743978401,0.15966678328184725,0.6479456773874299,-0.13304784785748158,4.992120966239799
13.260595601696544,32.50387216414273,-0.2338433864222874,0.405643705268248,0.5112179367305819,-1.193288209515071
1.7182583970308358,9.989391364474017,-1.3089373399802449,-0.05910277418051185,-0.128874595539349,1.2329257597687326
-1.5359143941158737,-40.247156237451684,13.26395934639925,-1.2559338939326201,0.48180702662807684,1.6137482579714932
-0.15710368639107197,6.395667444542103,6.557571767091729,-0.6582892940025552,0.646320782275946,1.82515828131293
-2.366896107948609,1.9152955276665147,3.526015766555987,-1.550703363527734,2.2904059385521944,2.7696626447502286
4.685619414283384,-9.863884140279719,2.727327595897575,-0.486418434335696,-0.7377556207648447,5.8594066046460425
6.170620739936817,-8.470558144896385,8.334934680489784,-4.0154451516546,7.848111795575259,11.20053315684096
-11.842967661133798,2.849174824382119,-2.5301625985996363,0.35813147394783207,-16.12303427416207,-13.397925450066925
-3.1636099879179516,-5.7779327697511125,5.189668730448625,-0.7353988038511547,0.14551354880451328,-2.4703935806730395
-1.59301549281001,9.822059279902671,6.547901877346321,2.7307962253840534,-3.2409258721686105,-2.0840134432498854
1.587642573271808,-15.836233019607311,9.11757305962044,-2.340324998024319,-1.568544940786454,-0.7329945047314085
-1.553273139723475,5.275180246032498,31.44210738714952,-3.9666363522979884,-3.175737257197968,-1.9702656660789697
1.8954372771577925,-1.5602369082977443,-15.838553121113625,6.6334761160282,-0.4154942958675889,1.2400761333479062
-2.6752834530875753,3.3891041726302618,-7.18928700494102,-1.3495689468042371,2.0207688223003033,0.35750491045529176
0.41595719164731104,-4.518499827113093,-2.0800623599181534,0.626338577866749,-1.0850562385555174,0.7604041340684774
4.59666218439682,-5.3082819089559,-1.690630752033901,0.019723498847879384,1.853912836236444,1.9116719596306524
22.36886900262858,-2.2213706077516364,4.680501349171825,-0.8555582392381007,14.18799574869826,16.187756920495016
-6.647901318032332,7.728591257363233,-2.769814680339553,0.9961079870249421,-0.9008864889689434,-3.132180948342742
3.2166375563909684,-2.402439331561997,-0.6476345304454272,2.454869487704959,1.1437466224979937,-1.3497810914307333
-1.6216435827543814,1.0031404850177648,-0.26471572240271235,2.6626815432186426,0.3514830214274071,-1.540406225192116
0.7530311035843374,-0.4646608554987177,-2.254346486492017,0.7642354963929434,0.7653405228755917,-1.363175915055125
-10.06149797726931,-3.0425601137365157,10.703015411319672,6.43980641884618,-1.2366594947001064,0.6199462282649132
0.8228436460051898,5.159557921210201,0.8236666224111238,2.11288505920031,0.30988779498211966,1.4568845958596521
-1.1942251724310702,1.9650394736896626,-1.0203665022088042,1.1810427564139605,1.7494099104476235,-1.2210615955235151
0.46146047564259884,2.707700911596776,2.6018304993969044,3.204198272330031,-2.20123435368765,0.8781151166993333
-2.3713980695053802,4.056554792851591,-2.297903032690815,-0.5681527677074483,-1.298154861776647,-1.7943384835013096
-6.0852787862394395,-5.848072771386346,-0.0654332022596355,-4.132717127793782,5.0858519577101795,4.058150888346859
-1.9453646231568829,0.6880695808347649,0.20267894300712808,1.707121987390679,-1.7841326292075088,-0.2178047051232599
-2.0654405963450166,6.8104394901950815,-0.9170501325712668,-2.1078924833283246,1.3662576442202565,-0.9320135550862048
-1.8489535253048373,1.8972786699183264,0.6675773943103709,-0.28371349656326816,-3.4270144700326917,1.8142587047204781
-1.2467747516530112,13.714425249861316,-3.3803753807436605,-4.091791131974675,-0.7801882913825474,0.15595708966345995
-0.20602536105913816,-14.735241719874846,1.4933479907475102,4.948242909932927,2.0971002281769002,-4.456261707651044
0.5400670565143466,-4.28924574698354,-0.9592583450363031,-0.8679798911821054,-0.8331700918564683,0.1382244677902814
-2.245035892976715,-1.1215151340920886,-0.5513110586935754,0.5932461687077315,3.42783852259397,-0.4673078365424246
2.7267187777443422,-5.86911957314041,1.0701417441548768,2.136630607023994,-0.3016654984851508,-1.083863570673179
0.138214286989099,-1.5420364956180774,4.235456012822258,2.110212750208433,5.74399002294305,-2.3140944257143543
-1.850064884663425,1.1107893630881072,-3.128137532826849,0.5997208233977472,-2.2648236962370714,3.0134964749016837
0.4393636982740987,-6.396686398746972,-3.1379246461752626,-0.8231459721469165,0.6058595687274622,-0.2634460196023387
-1.317343279307675,0.6225950534561925,-1.1377486098760512,2.604741281085829,1.5850006788742697,-0.7068758030690727
3.0905775786999072,-1.5079097680971951,2.2593485371004913,2.6026220586810576,-0.37816295570684577,0.31517250042094025
3.4070673186964284,13.828126330445759,5.32114040002246,13.074078216942361,-2.789089005142225,3.744206825168302
-1.8454600578729297,-6.6582279739114725,-0.9867963566902045,-1.71020627996162,2.4207948271893995,-4.794654616552242
0.012741640705042023,1.6162271991745278,-0.7272136111875527,-1.1628996293538272,1.3204253722771,-1.1209696415938746
-3.33383338456556,1.404633638136247,0.06222712383488049,1.5257935725964513,1.7622631715692394,-2.4186970779729906
0.11425582709533133,-1.1370073019492946,-0.33450391278526537,-3.1415670490298613,-2.3060839569357303,-0.4643425778265484
-3.3058924163340104,1.080776676291259,-1.3146506186224052,0.5717277986844229,-6.278281045737099,4.169331150172999
-0.9954906378820362,1.889812545656545,-0.45679268393864697,2.5516013643063666,-0.0076190035148375745,2.4427812045667645
-4.590951056193392,3.4505556235723795,-2.4274413958015892,-2.2619173169277618,1.7585527256172053,0.7469190786570028
-6.244445322109653,2.3324622036244054,-3.908894742088347,0.0036085767708104455,0.7496976039454912,0.6752087104155073
-3.180871766824588,4.28554032820507,-3.0339229399128524,-2.289925707619511,5.126267363655019,1.5033942207497186
10.16733317113212,-3.8971389916108863,6.050409883432076,5.516575270465378,-5.701925541008007,0.630739759107905
1.659068379501022,-5.334470983147138,-0.4440312177522411,0.2075844274287452,0.3089434118498726,-2.278480959881413
3.32460731191648,-0.7657045029239598,0.5359100815740807,-0.5263614272262849,2.0928653894004006,-0.16363668401279333
3.5042187321798264,-1.939671740734524,-0.006806988772668721,1.1069146137207022,4.213103126330975,-3.1201567833467196
3.3439692190064108,1.7714161910743123,-0.5341078993532604,0.7051823197280707,6.288829515869949,-3.6719464337276086
-2.333591174871801,1.623186958431213,1.3156273595575372,-1.9890224840508717,-6.6858415624934935,5.404592757116059
2.4154582367089574,-4.218625870902079,-0.18532716505532398,1.0630817239461663,-2.7419470519809312,0.9157998605153259
0.12143891462174955,1.6537329254284647,0.021928687856392237,1.2418301677577048,-1.3731549540762984,0.8847912533266471
-3.678899752707495,1.885817244364735,-0.14043075844781544,1.9147818884664094,-2.7535955367233456,0.7694520696504898
-8.890601633299237,6.886544913185276,-1.4189435912921802,3.4110996982175212,2.341970758449223,0.6579289424006931
5.58951839997434,-2.224895174394085,0.49143371779612416,-1.4540574127701946,-1.9949989386116451,0.39799997981295654
-0.17137071044688668,-3.049390619075652,0.41918795083088295,-1.495393232732053,-1.34322807038335,-0.26678930013308744
0.01984483536172399,0.4394459987228121,0.5803939691553365,-0.726852626662084,-1.7611624749995152,0.5854966873520178
0.9887256822319572,-1.6642379424057465,1.146919194522097,-0.18001486270015607,0.9789694591439382,-2.18204096304958
-1.6615083214766306,0.22610058273687983,1.7847444149155405,2.4250199031130095,4.834600754123247,-5.501289987798618
-1.374804188269469,1.3380887530468042,0.654810463805167,-0.9821935138039749,-0.11804615867572865,3.9396153302635195
0.40706356588262027,-2.3420685937782157,1.282491280192759,-1.4074909643871258,0.06795170679474605,-0.6475076629951209
0.941128394206473,-0.7828576662821047,0.6578545338319961,-1.1362965413480293,0.06559706915888042,0.616949148823207
1.5026818962492094,-1.4359869560336584,0.3616490650353606,-0.341793907752751,-0.7885981702586637,0.045735380508605594
-3.965858876665484,1.997623193843058,-2.116203773949621,5.7756388125688165,-2.623083246173894,1.0604236030330776
2.2881442114684925,-0.49453751146747804,1.1738474442717224,-0.7980306338973517,1.4996880855717019,-0.42708291991417047
0.2202046903834911,0.2697048947303644,-0.23173990574153175,-0.11162710303282675,0.7266079552432401,-0.09879264089861506
0.617179258411585,3.0301682873167897,-0.1825399738453246,-0.1642514447130219,0.12590667951680246,1.612784928319225
0.3123235669505612,0.14492076267186066,-0.6363372241904577,-0.7899186088885937,0.28271830482792004,0.5801316310360134
-1.015450696016584,-2.1338370363558576,1.136207848408203,0.6704711237225467,-1.202343530694796,-2.6023612262810416
0.9405337710733381,0.8850600060135909,0.019229920201397466,1.030039168055557,-1.3777347021110447,1.6377010480269203
-0.6587706304106884,0.6906841019765869,0.0862990007970959,0.3077451171867229,0.049363991975338584,-0.5990034237683692
-0.42880554941971116,1.1304545784222317,1.1069126957720306,0.21671950382829924,-0.1540802802461292,-0.06668018378304902
-0.5861504206337963,1.9336944572987822,0.48400709581780843,-1.5875167135369357,1.1784772074475738,-0.6733775217890845
-1.52024259735212,-1.0408982419646935,-1.0268676474859733,2.23521310963597,-1.7802077598851938,1.0569384081252227
0.1699950582320453,-2.1523941797079202,0.6703322999580297,-1.2996619759649384,0.09290818852895466,-0.2429123759376588
-0.03412462472316058,-1.160804013746246,0.17623839458139284,0.043743491480480984,-0.796178415872733,-0.371069714784106
0.2710885670208596,-0.47485254109303415,-0.4713615203853908,0.016825903540727605,0.7781712034497503,0.28183733580138587
-0.14123590504372224,1.8096279386106877,0.21397618116463615,1.0555323434074693,2.15129756477301,0.6466847946130954
0.3408724054326169,-2.222854000887726,0.6261702863763576,-0.6382735870629315,-1.4986340319422353,-1.1835747363422362
0.6720686488846681,-1.4581713346872753,-0.24522234892286054,-0.1721854911331817,0.11692556663317744,0.33153577261383294
1.4020937359043057,-0.6798027617756732,0.5593181690685622,-0.018582085954170546,-0.036253765439321795,-0.13535216718008675
1.0940446671414665,-0.2418841696624232,0.003393698036973092,0.6910404702431454,-0.09363901435521882,-0.27390075422499316
-1.3035300018743519,4.9199360754032,0.18523263075331015,2.2326009237751747,0.4163965969901844,-0.10774851409755647
-2.5010348426908227,-1.092030130125809,0.056659077133821845,0.15932288674328962,0.6763490376195707,-0.11194087791851184
-1.1594969458471565,1.1466876407848234,0.19120205280588867,-0.09651973342624515,0.5188773075812284,0.13094929690873958
-1.0280808176079392,1.228467258855866,0.30184468635655215,0.17315772913458044,-0.25425665438864953,-0.9293389186691334
0.18429496867720363,-1.4628629586957436,0.06122463139546147,-0.8094472889755492,-0.29831622758554854,0.021131286025900503
-0.931179495618264,-0.0491281473366636,0.10353084257954305,0.8304748056091672,0.19647334835691255,0.2950353119113512
1.4912630148099073,-0.27292471152125686,0.5393713370733004,0.28853138212992924,-1.0030301037878195,-0.25882548697482277
1.2751985625918825,-1.6022802041652067,-0.5013495095811145,-0.6224968142653489,-0.40193631831296905,0.17071881468167927
1.2923236151744841,-0.17650949816142614,0.20394727968440213,0.260559085707168,-1.2779455490871323,-0.2947330401790087
1.9568225426708994,-0.385181763387888,-0.18709432089519307,-0.3303665654222032,-0.45724479391188083,0.24437412599724376
0.5561050073416142,0.8334421343886791,0.03620919175976267,0.720672708416777,-0.057669527632055045,-0.25061405417647514
-0.31715672701302167,-1.5110698557602047,0.45118614565190907,0.10379370562663787,0.27594638638679336,-0.1835379452527065
-0.30194880064115237,0.2587230726094265,0.11378890666367536,-0.1305201986186872,0.4476708851216599,0.633017875830198
-2.119401687325908,0.9460036633076043,0.16801826233370143,0.3581678053785976,1.4322685074744617,-1.1953697889660506
-2.1984501846668025,0.7874777836095792,-0.035254775679878,0.0863449623397956,0.940896774020139,-0.4179088642548583
-0.17178555405776208,-0.9950799954557207,-0.08032413574512863,-0.04803255231944059,-1.2983469798359382,0.34740994052677565
-0.9915516325759712,0.05947351129189893,0.582591158297359,0.5243468677050775,-0.08717533201472108,-0.34820054777139864
-0.5607025769196257,0.06401065261069494,-0.0034287301491067457,-0.04978486730285148,-0.13716232330469344,-0.001811905473433767
0.5737557332159121,-0.22818879318889507,0.667657114298255,0.21288835707018056,-0.7586485500325351,-0.4748586572552718
1.2600448335659775,0.6760443783439503,0.1571281019789098,0.2500713076759698,-0.1174143229781997,0.21753018145297637
-0.558373058656744,-0.03892684363493654,0.2162530556312113,-0.18410935669911926,1.066221850612157,-0.32608721521767625
1.2039311848080163,-0.503442316120528,0.10068887396229043,0.0066576583847210435,-0.22976701085685555,0.03264404443217386
0.8867255072661235,0.03542562126526734,0.478052406887467,-0.22332916737105069,0.28647947521320094,0.23549962799638108
-0.9784284836649136,-0.5731344518483611,0.018007404766069962,-0.1553517039191218,0.35808505061796525,-0.31861655353973295
-1.5792505429936599,-0.012026363616199687,-0.2546296361537388,-0.08498792736940358,0.5816628079104,-0.39941842600733635
