Gx,Gy,Gz,Ax,Ay,Az
-2.1433689999999967,-23.972111999999992,8.009927000000005,16.723999999999997,-558.5160000000003,65.398
-0.21552361184565827,-18.243115171889194,5.40071334060757,-0.41790211660020965,3.562205085725989,-0.663402952451777
0.29931303998365444,-19.518670884921896,8.006888675426392,-0.6438436035173773,3.091564499679387,-3.5899402923278303
3.5131540653447617,-31.893091089505173,9.713107420040402,-0.8919711659602614,4.402319178385127,0.7235263216946044
-7.521839228076054,-51.67890588550868,18.35265800832898,-1.128117323156987,4.973383934314513,-1.5017314142163296
-17.803410168663284,-131.47620824738138,58.63977263025259,-2.842878717646199,6.334671925844653,-1.7994192359972017
5.163284463169444,34.66085908388159,-10.53110199522104,3.2942999071450787,4.363790244316766,-3.0196612177986366
-3.9503015960019248,4.4524482813307955,-2.641476520574981,0.3277577297766402,8.63841254460537,0.6399137406903133
-3.6953435625568507,-6.176556788049364,10.621383469473024,-2.4371044796241903,11.045030598349008,-1.6691459169919507
-3.2886392630079486,10.182736893012487,2.0313051157437023,1.388735479346751,18.878270026038198,-6.301310152848326
11.922765487851644,-0.1778551809428972,-1.717469566570296,-0.6082145091308431,41.117738194775654,-2.9590232380532355
-13.528647276677578,16.34450463117855,4.289450229856726,-1.353874061557884,-50.35272669373726,0.16189922748148655
-1.4920191855317728,1.9873152180117337,5.668318616510399,-1.1868476684296874,-8.89413105353445,1.1430227941266007
7.063548204103962,-1.5757171461125008,10.161038899946226,-4.138961241027433,-4.0976950359506095,-0.8576598865985234
3.293007804544213,-2.0166108798127844,12.339974091854412,-0.33957937737342037,-3.7153277785358614,0.7160556879917166
2.8548160054683147,11.35956311209177,18.012565477720372,-3.8194477074498008,-5.650272327500648,3.2230630041957675
-11.591483073048467,-20.010745561577814,-90.76063491648719,24.15882468770171,1.7489221234166603,-0.5522341207643378
4.48428135676077,10.666030747916516,2.3278469629548018,-0.02603422705356362,-3.831929230118324,-2.0626355800316936
-5.77866684811964,-4.6756772574225405,-9.403885533675197,-3.369480244711698,-2.2741397310118106,-0.6754039679229378
-8.495781440802704,25.912055102451994,3.9279766858417062,4.21300156406181,-2.9065958917542467,1.6534378152487275
-5.050538784189343,7.62635415881377,-0.38489925993224006,1.3921152278876272,-3.979401116417769,-0.23913490081957245
-30.914716641751795,15.99396248352853,-4.19226194771571,-2.3114681063548392,7.497096192478754,7.673620787388817
13.88317116885101,-3.5809582576178114,5.373178002242469,2.760300187201461,-2.909549386165431,-4.961677518453637
-2.8035865285146127,0.17964209965807676,-0.5320201340561708,0.9525867622315618,1.8716014738497577,2.229164248934623
9.6922043919034,9.56392756640215,-1.2556061246458512,1.4210692177629767,-5.874074121267464,-2.4171576289437633
5.121374651058973,27.734640824842906,6.934886304935083,-4.726739759308439,-4.174521931852798,-3.471056767563384
11.340882138667622,49.66570448293479,14.262419119460159,0.3743901005553124,-1.3099657883370255,0.1675930622747417
-10.67562710171303,-38.934169846401126,-4.2396975511276676,-14.676369164571485,3.5212421792430098,-0.852658142321219
-13.463127174497162,-4.551170603345518,-1.3767530644233301,-0.48269459574867457,-4.0473209452535155,-4.142525458119766
-4.823949609266945,-25.351206037507268,-5.265221087452714,-8.466326544622586,-3.0721137132353933,-4.983100668193215
-11.81196827819365,0.504567903412803,0.1608928119899078,-8.983232025662996,-0.9291302012143507,-4.437753927637743
1.5907154998145867,0.020078448148572292,-0.4156078498917255,4.111999063075819,-14.987484220810753,-6.174906993829643
-0.44788644545091305,-12.166150248426499,-1.2498163597144065,0.6763242206349915,27.57459940170437,18.054873513582912
-9.531538307900428,3.167145667506283,3.037064395040024,-0.16975716296195387,-5.4024307231593856,-4.430817780243032
-18.199051631797342,-17.09551301772808,5.1674362478789115,-5.33068621134165,8.679388171546684,5.38457257184774
0.7895951723319486,-4.705216990020972,0.967008079436793,-8.844945469497747,-2.521153304439416,2.34919395676192
3.583827844107315,0.5938019363480045,-0.976112733683907,0.3166328902314808,-2.183705540471543,-0.7868741654944049
0.858940460449956,9.435118037714057,-5.030327654817232,9.355561933109994,-0.9611745349110867,-1.5669035362629935
2.8128529346221347,1.8284542387867635,8.117982360972018,3.156475719422738,2.4492382143972726,3.7249962247098454
-2.4335162878133616,-3.088862791966358,-1.9862388914155769,-2.6413027632342923,3.9037767873578693,2.462616799662668
-4.746905858077181,-7.710065794348134,1.7766798774378003,-3.197194435443942,4.514747651256874,0.8923468089235618
5.713123965773226,3.234857445327461,-2.763662915654743,-0.6081427925699097,-6.848324780201207,-3.9974581451434057
11.090485655882606,-4.63796208865471,1.4110534003054216,-5.722262854114637,-13.722824150053532,-7.3302163922187535
0.6177117635327077,1.176913760702428,1.5259383398065176,4.7631098834216745,2.181298134587295,5.249943304879144
3.6443934211684663,-1.882095649135877,-2.217857019329754,1.2064266515284503,2.056115073167071,-2.2689396070544694
-2.7498410813447403,2.4938820235181742,-1.217698299228216,1.870873787165577,1.5555985736823832,-0.7884451997034856
-0.8377652942203073,3.918665382862127,-2.1659733405984234,3.9146168000998776,-1.2592914982101964,0.017563011038494558
4.249306993169362,0.2909355786952749,-3.829700222646726,-1.085921238300077,1.4453208060569496,-0.5056154822752248
-3.293168133302678,2.259525555954348,-5.282570747913127,-1.4729902285575247,5.214109226387054,1.081161586984651
3.3353936365566117,3.8273327849287617,-3.457537322307197,3.618427720246872,-2.7210403317428895,0.3784006194314302
-8.85214249139888,-2.209796686344208,1.884411975466473,0.0769692651982824,1.671233659165928,0.2884615863925766
-3.9174285641265216,2.8177617723399537,1.3085418636246908,1.9748205582457943,-1.8024149172173862,0.2686860839152596
-7.087903166648326,-3.6171970478976165,5.783353957283385,1.9735683862754025,-3.742514838013975,-0.5675894530985223
22.206838069083396,7.340705040006,0.41159989849970113,2.9310077060951993,2.939262510985773,-3.4482694379726038
-3.4037975415283803,-2.5743718254220114,5.1745018177337005,1.3429959378616478,-4.728865021260666,1.348027407993079
4.78966406094949,-2.385412952880364,3.012991027379708,0.11537008927756887,0.49008580635786814,-1.4331685810217731
-2.9212302633116463,-2.427146310493222,2.511863507041217,-0.6307570329677854,-2.418302521446231,-0.6480405168246177
-0.6612650910395867,0.7223725547419653,-4.7189022773284375,0.5737162757846208,0.5417917118713449,-0.5408350449859038
4.412135997370998,-0.4687222909249369,-3.7743002865989657,-3.1430529348790386,3.1420624648593263,0.11892830996259776
-1.3178360802237248,5.088703851196123,-3.0137006073586647,2.9775028802133336,1.612403103881316,0.32111258215295607
2.7149906714156393,-2.304841367622547,-0.5669041686473215,-2.189481659404726,1.4610646806218561,0.8887944826451467
-1.0378032297894484,4.636600394001677,-5.265073961331726,1.1534463462649525,1.8631429953478436,-0.40307646541157327
-0.6903779773332104,2.8596281803523045,-2.421736652772183,0.8378149169287015,-1.8792057721924553,0.5031690060509907
-10.068506094317161,2.26689734045187,0.19594700340771842,1.3245756780571507,-1.0068210463422187,0.5708777746922893
6.359934191190209,-1.7177818357874712,0.4976254074012352,0.4808925047493453,1.6068526584637168,-1.0529710489231072
-0.757082310253079,2.1720147921949806,0.5470878781638882,1.87975817015174,3.174855533792048,0.6282694138137397
5.430076595866018,-1.2419985099541544,2.793119762456058,-0.217219507340905,-4.059552487223943,-2.317693537046504
2.6316293297211897,1.9744065618135038,3.191704913202104,2.418859389217779,-0.9220376696964327,-0.7659346792267061
1.9426233671764237,-2.294596254486497,1.9853294314328775,-0.845920350285192,-1.6649189086683573,-0.05476070553036408
0.397729536147687,-1.1284654503388896,-0.46249033491616576,-0.8028845602212551,1.13602415789363,0.023060372481272545
-3.6052999941371353,-0.7949276085577033,-0.8051586206943888,0.1678950134105991,-1.0078432672212472,1.1423414303024702
1.3710694432192325,-1.786369392185732,3.736473515579139,-1.6184838096738243,-3.5386621419887447,-0.6910457118125681
-1.1929713819101075,-3.9044878774813707,-0.1275609926646598,-0.8283606542386429,0.1820637372417082,1.0388751586068334
2.151703918715558,2.7342115893876455,-3.4835187782703816,0.855585513079268,1.3740663739686307,-0.3308025080440054
0.6203998345029573,-0.5337539145528181,2.5923712233952436,0.5764483719158157,4.464868341666251,-0.6532010928108298
-2.673067764433211,1.2156205661987611,-0.589030247719927,-0.025703449768090858,-0.6329065824677489,1.2749287274005765
3.346578090651361,0.1320045277786283,1.1752937919721576,0.36697341365674424,0.020384600964124644,-0.6095867687242664
-2.013798358945409,2.788565884656191,0.030667582471465726,0.7312369663891026,0.16429797995398998,0.46924396422049697
0.051232905833811904,1.4583805232404135,-1.1177191718355866,2.3306761171057495,1.9878906921163146,0.1650715290389993
1.9947058352416098,0.34374369149799144,-1.5681711057456742,2.047937534377378,1.2551460100177247,-0.2623164206176027
1.9777598223984874,4.043731691292108,-0.3625188400368762,0.931315398422677,-0.8225189598117417,-1.0845953281474392
-0.027136931444413648,2.3586518238152836,-2.375731933869525,1.5040265934089763,1.6855671796071237,1.3668478571386
1.643838183906256,0.7939631237091902,-0.5865615037616856,0.6922965973652251,-2.8790692331331154,-0.9682915026522567
-1.516651484787218,-0.5976835543748289,-0.5185749224177297,0.43496311927314213,-2.829404300351743,0.6155936604106897
0.19334318139908402,-0.6766708511472335,-0.8019830471919948,-0.5720401420183376,-1.255281353229433,-0.1764136984805611
-0.12684959653752143,-0.8280817260622078,2.134791785744547,2.251937018862979,-0.9666032816967753,-3.004353816242544
-0.32534693920335334,0.6585830855585295,-0.09682829574937923,0.34806731327050383,2.703175977894439,0.9597794073322103
2.014070597600746,-2.5920483845110462,0.30403559989946055,-1.3057373587826984,-3.1716287080760064,-0.5353809621997286
2.93681405763301,1.3084218838075994,2.550004756769288,-0.015444860237113056,0.52398659227666,-0.5227330660735919
-1.6003766660410603,-0.03727251375467122,-0.3429737299716278,0.4559043037088205,0.5689923205158631,-0.12457294012925801
-1.5069251782678652,-1.4146060295328393,1.9225613881769714,0.5042774861975586,0.5456574718942377,0.5576842975786138
0.6937728002671756,2.4564667806159663,-1.2261237458003689,0.4031494789678755,-0.8367364348492842,-1.20176701673678
0.9474013611769146,-1.1976698999190796,2.0967399869558454,0.27303815891979577,0.8360108480565303,0.7212245058943132
-0.9494949820492569,-0.9006118434016632,0.10921526294405587,0.6730651455599737,0.44779423670443874,0.7826929028435963
-0.4131011523153415,1.0413680059650152,-1.1384011760792365,-0.1616698772112254,-0.6723060616840371,0.7408146877927504
1.908841961504492,-0.38146549726908674,0.08423244717756395,0.28327391887178005,0.5134757588853391,-0.18467709708453928
-3.0957515879986723,0.5839785274456457,-0.6193806599180459,-0.3434472796086022,-1.422218327216018,-0.1778710013029744
-1.130930008808263,0.6756477890833203,0.4005838203403659,0.6610830146334341,1.713085632372848,0.4927182606308061
-0.950294823136294,0.3963755376058058,-0.6266484232961658,0.21071938807776744,-0.7675291756806522,-0.47313979463141403
3.218194624490627,0.8542901581187643,-1.2951426689234427,-0.3146948016199613,0.0073532725564599,-0.5623125517428663
2.2103086294007186,-0.3110390726881369,0.9091652119900973,0.26393123370782706,-0.07703597432529996,-0.593096207979438
0.033731016312643636,1.8704811311434535,-0.18480376418746047,1.6840807836083647,1.0164153673370122,-0.16387238918482488
-0.3058790618655426,1.2047305931866104,-0.4353883027506984,0.23690484339225942,0.029670576017911343,-0.73678413034569
2.2680272078578816,0.3222968269105454,0.8553246853566852,1.1189272618451291,-0.6906008298294721,-0.18051187100139687
-2.0430590742883106,0.357514051011899,0.14358282857474758,0.47935230142695556,1.293088964652561,0.710079839733464
2.1084894745771443,0.6189809383931215,-0.40732295517377226,1.06438154779084,-0.9644793253488109,0.4306026906470146
0.20401227029701674,-0.5363768156490606,1.693692280231982,0.2545626676223489,-0.45756646425664893,-0.167970886058238
0.541793691356045,-0.7445171543607243,-0.285156861711649,-0.34364137411999224,0.5577569561579574,-1.511163275064365
-0.2887946578912478,-1.319380840292767,0.1485554583057634,0.6009429240161865,-1.5497545436602245,1.7796508734184988
-1.0033158223521217,0.2528734202594838,-0.2840103864188974,0.6269697108074834,-0.1790766978851005,0.5830330646284149
0.28174030736783956,0.2166778131206777,-0.2859103001593897,-0.5433031199537568,0.28666596605888905,-0.8917350972715701
-1.03378537269039,-0.8170546438838283,-0.008713376081185858,-0.15692801372711637,-0.15013275874543297,0.09877556034918028
0.5795687333609731,0.5152083517543509,-0.8784921929088657,0.2581266451571864,0.20682502051188112,-0.7398566220459578
-0.03222303832997364,-0.33362183638935516,-0.18096301210982726,0.035613008990009326,-0.9858122626311813,-0.25396866376626637
0.8948832772593142,0.789145655352897,-0.5056633127309942,0.2447855975299676,0.44354296296433515,-1.073106311124579
-0.6360350649584375,0.9109155075467916,0.28825492046674217,0.4407267487694816,1.4002541839079559,-0.6622539903042473
1.1719720162136853,1.2686902671213147,-0.14035183055689837,0.5966201899647054,-0.4206046558809979,0.8865786910079556
-0.49704391100562245,1.7715619059891012,-0.1645714512754849,1.0111791188310326,0.16558694902610732,0.030700525926575004
1.2614351346941648,-0.38565551060938785,0.4379268306839322,-0.023545173034063283,0.1905504853187174,-1.418295962420046
0.9820515837608499,0.2874860353820098,-0.3880549085138909,1.1530580862908701,-0.03900389774239388,0.645925297530465
-0.39003856034823947,1.9693994830676664,-0.3394652113380805,1.1941311181947512,-0.9502657112327189,1.0187156779174755
1.8585608636817557,0.7036717997414622,0.9752092180657809,0.7436566933364457,0.3010631121141456,-0.20712802329262048
-1.2288913505193868,-0.12444346023958658,0.5414098556561433,0.7958400831892056,-0.11025972092199632,0.36743198736082083
1.2636960932211312,0.14475599458116706,-0.5627023685753189,0.21511001615910325,-0.4246002929877766,-0.21203136955970991
-0.324573187461189,-1.0093937801106978,0.07677503924303525,0.12162374457394395,-0.31818198549203247,0.7809709839695417
0.24309845293778728,-0.030184509062130216,0.16421843829632765,0.7045514382680317,0.35420049593077607,-0.6037619677793888
0.2531231814776463,-0.6561583298321361,1.6263338623742003,-0.2673553420022243,0.9110623553510708,-1.183699357470784
0.3565295182091328,-0.4716040329169775,0.6919317472019011,0.2486336825833788,-0.30353395227790086,0.36466741693868293
-0.2831183711832062,0.44689081197326863,0.01376323419757497,-0.11489115481165235,0.7156361294193723,-0.5527127165019952
0.04445555599953277,-1.5335431390230354,0.13386095538988496,-0.16455808766753766,0.05941111994497794,-0.8792088294553302
0.1249356345576334,0.3240134589908594,0.11060183174654203,0.44081275818543375,0.1526630225187322,-0.2486771467005109
0.056584637311371644,-0.2633486736842332,-0.32063818394643745,-0.38710863221867275,-0.9667195447803392,-0.16601580415955552
0.9781129991449699,-0.3997416602356168,-7.721234842698876e-05,0.49235563190156617,-0.10320925221757521,0.06349895626600327
-0.30284714376184607,1.2072015780303573,-0.009946956779887883,0.152967054585517,-0.7865476799804734,0.37072606255401974
0.4481304620358952,-0.22983789609610805,0.7854517439618738,0.2307399726503772,-0.5438541408886627,-0.017725533955581074
-0.8962843311842268,0.7830330714490092,-0.1348100237209673,0.22019503058098489,-0.04307308657429321,0.49575809177122787
-2.060093031185409,0.7133159169252534,0.05306255481237726,0.49044268396643664,0.8719933085132053,-0.3363972417352338
0.5110247990101238,0.1270805858669254,0.44319037609543355,1.0056946064246874,0.49129599155685366,-0.03775070992256721
1.0841659139154234,0.5401380538646461,-0.10299883775300331,0.6744989011610664,0.024494216726715402,0.29736333262157344
0.6745229740005318,-0.2974411204632931,0.5583246626669209,0.3723339105925445,-0.291213746874427,-0.17485957731060708
-0.6636325680445168,-0.05857123748635373,-0.2876101652822322,0.8823942051529556,1.8691496960206608,-0.9128305135699007
