Gx,Gy,Gz,Ax,Ay,Az
-6.755597000000001,10.746006,0.38208799999999915,9.043999999999999,-385.376,-36.134
0.37833595316074087,20.418381189106455,-0.4829660282459835,4.758044700376676,4.610995982578816,-0.5359547431947113
-1.6233721964701011,15.824921226397622,-0.5573887505578599,3.471580714869695,4.349340791168773,0.1489603735233806
-3.501773292848554,16.69070941045169,-0.08035052492447102,3.8959032438795558,5.002382459996232,0.9604233026692669
-0.42461689496719557,156.14189596676172,-4.255431321517248,21.862595540011075,5.432654577559571,1.6549128467823877
7.1009654426424555,-24.22178182704542,-0.2087606764050159,-0.7050008820996726,7.700759600294458,-0.5613530270626277
11.313643656944688,-0.7561116097710205,2.1914780080908343,-0.41168958354652224,10.90279709949415,-0.20401988208210398
6.653300263539004,0.9480004337296375,3.0047490563894574,-0.7466738647856386,14.552171768267899,3.610025662575927
19.36682067562115,-17.189489909475043,-1.1077649251190784,-2.99490909951908,69.48086371712087,0.9013322473526078
-11.882093524825535,25.27859470484941,-0.6346734563108873,2.386364393205895,-28.68003767395966,-0.1901462228492754
-5.913216956379802,11.964325425842954,-1.1060878737770548,2.3550383327257607,-6.843028751169895,0.22012067624142562
-2.2122550841861948,6.252924821432804,-3.4052904902242083,0.9513706830573841,-3.7533499196604447,-0.7832605768198104
-6.724301663313961,17.072977829414786,-16.71688208055248,5.538598461460859,2.3977351972351846,1.3623826699104598
0.043606398978547345,-24.27743327476281,10.089293501629065,-7.123222640073685,-6.67371005838474,-0.2804544241110569
1.0077122580666067,-9.710531405527803,4.807358558821698,-3.1499345962864127,-4.675535546689137,-0.5420242233094275
-0.1328540382583976,-10.390884330175156,3.711922962011114,-2.6949454143680773,-1.5677200387361958,-1.8351870762440101
5.0661719210820895,-3.043698252836982,5.1086587326109605,1.2411107399468633,-6.158911115888386,1.6393088919026084
-7.15348546531204,-9.469410520315911,-2.808783093550704,-5.190561026994277,-0.6131742579824344,-3.5448194436860394
-1.9701390454894088,-4.341029230209403,0.8549420140460342,0.6996680275219901,1.3586088781985015,3.332607778951471
-2.227893124414861,-3.505679739848338,1.3385834307631208,2.549839086410029,0.050154015329341994,2.011768827162446
-1.5288633087003736,-2.8459167448279574,5.670397131517232,1.5811595904674873,-0.3715855524523991,0.005192813474771768
6.474265599236054,-5.4628824478613325,-16.886079467798492,-6.233829730306766,-0.9935110528249321,0.6230033013853442
1.8779560292976367,-9.318919225455746,1.2096914689739475,-6.923959972681084,-1.0555039954465244,1.078975407094271
-0.3118410192838871,-3.4112019479548543,1.3353968374564888,-2.7062835846804476,0.6412345988534809,2.0198198081606376
-3.238368437222284,-5.265451462835591,0.48399111238084,-0.18868985604347308,0.6883514474951967,-1.3269050577995274
8.896286853251398,2.724404902246305,0.4700731255295747,0.7995919133578869,-5.812392636697758,-1.0064546654085955
0.44005115786810767,0.8098754401077357,-2.1170087938800433,3.1340790052440384,-1.4722890983749313,-2.3895634909098185
-2.1934058935636593,-1.2011350405773873,-0.3647749412706715,2.5773984253899624,1.794366856031695,0.39659423762938123
-0.5529657660772398,-6.229995009659189,-1.1912763914589344,-4.420171069594021,0.5858700300289046,1.1996314106505717
-1.1460805265602725,-33.48588568235331,13.117144687606679,-1.6507537729651443,-0.017876708257723806,-1.628134645581572
1.3657689145947667,-3.123941756081285,-1.1829858619904172,-3.2628211891167784,0.2882595263700483,-0.6539365116608779
-0.10558921466323057,0.877339279818831,-0.8637630814958857,-2.079740856126585,-0.3073049583396948,-0.6090744036534845
1.5750688697254664,0.2706150957230111,1.0617899269712774,-0.048890069332434116,-5.800178026371135,2.865607591307211
-14.1561123314575,0.3389236724635203,-8.890515110204014,1.2072518309818363,-1.5806444177325227,3.079785359323929
1.937769928011053,4.324153320432739,0.6774043141517336,-0.025486319122075544,0.5956473284421595,3.6806782281967325
3.6233228267479944,2.145510317499962,-2.1955475720946707,2.2664303344768832,2.7564500843009343,1.0645855190276166
1.1459279336797394,1.5507979593238679,-1.1601781949965697,6.990492821239345,2.5427768981161765,0.4719197476284953
2.160115824097546,5.770515639439183,-7.916990505142554,9.71337940152626,-2.5236050809415653,1.6794332536155836
-0.10618980470500422,-8.228440674623265,8.830793156326681,-6.616171261865894,1.3294459294438852,-0.9203569724783524
-0.7195905503411062,-4.6258623685619,3.58057549392339,-4.966594283432869,2.2107548685426384,-1.092546082919991
-0.44180779228007794,-0.2974072471547464,1.5792956204331385,-2.796134762908761,3.0855868414064282,-2.623846095054134
7.768272907904304,1.2232892138751366,4.183921846790055,-1.6183748262958038,10.73677233562771,-1.2835264436998748
-5.33602179312695,2.154098604306188,-2.787303900493504,0.9663817745464582,-10.481778906937127,1.734975383757164
-2.5826038880808504,-0.08852709675678228,1.0777983988231814,-0.8908071406271274,-7.369307790673378,2.7822227313466508
0.6363038354174317,0.5973012020862898,0.34016303804837633,-2.9509408003704274,-0.4129682855891796,0.5546362448787665
0.3887925481058886,-3.5384204090560205,4.274125135856934,-5.761576545246805,-3.9154804313216087,0.8350060041567892
1.5280505895549694,-0.28845246882323466,-6.768041589885144,7.1049292684518655,-2.3503299049157205,2.296735301143813
-0.4292007063315656,-3.3389176801891285,0.38514555888450164,2.7150515002815303,-2.281734871760716,0.022449382593833445
-0.2962092327447814,-0.5169828356677646,0.6271777240509199,-0.3834026708731002,-2.632571093383001,0.8212544681271385
-2.9369513476253095,-0.31808014838502663,-1.9160116421160833,0.5664471390390117,-3.788832928638238,0.477633596437693
0.8049392129311812,0.2017844261580731,-1.1381273176033575,1.304692007402076,9.182773011807008,-2.3973600519103173
-0.7182522492094063,0.5331656453100517,-2.1042998596025613,1.9755680901920436,3.6855911049383696,-1.8515235879214191
-1.0521585716152995,0.42047689554130563,0.4764938818838006,0.5351298267657008,-2.5965700030990213,2.300480165086249
1.113853264950093,-0.9882653835675782,-0.018234641903601245,0.1323139698303598,0.15122067873166006,-0.40409483761976184
0.6215921290986774,-2.163989945945771,1.8488699531441433,-6.812954607848667,-1.558603028096881,-0.28830735389310197
0.9365119359332323,-1.6098162177056539,-1.4433296798320328,-1.8741059852630961,-1.036082650251849,1.2651749454666126
0.7486601609224421,-0.6512887021358515,0.2924361051605345,1.8553675038065134,-0.19467043476800952,0.5136588159314893
0.5016394435709817,-1.3817903429741532,0.5158894061187327,-0.8442487038447253,1.4712449521121507,-0.8287176807550283
3.916699707631728,-0.48895543944037956,0.23142678225087276,2.515684419721573,-6.512054799696273,1.1093645488986896
-0.3563594018594137,1.5603957646820923,-1.4130586883637928,0.265426265685498,-0.2008956589908894,2.3949731952935753
-0.9715046644005442,-0.10142895292592194,-0.2534372433976168,-1.182994742717188,1.621591386948916,-1.4837725877258299
-0.41204899925781513,-1.1872161271775448,0.7949164871859051,-1.013318663941176,-1.6935640911252006,0.10796502158557869
-0.9592035713174432,-3.148116552118438,1.5796725420297124,-1.1924623201448994,1.7453364121424402,-0.49482447479815606
-0.031561529202142606,-1.393308466049334,-0.2680712229828063,0.10780839401757733,-0.766349938186558,0.10967915144503154
-0.805644930589998,-0.832778746401754,-2.1887196458487708,-0.1697198013733926,-1.9678482835233546,0.6231852743003943
-1.9621744747571128,0.5799804391077581,-1.8764655030948643,1.7782990687539701,0.16121747381190413,2.478008108768625
-3.4942340802240333,3.622947988363586,-1.6454404333542503,1.30193325673741,0.08320048922601547,1.3683122580727773
2.8843893317632037,-0.15150817455919835,0.707986360365785,1.026217153790061,-0.756549733886476,-0.39426222898555063
3.8127071234065157,-0.5540537165254882,-0.4757939716102757,0.11211199130420169,-0.728709504692475,0.748197380389237
1.013864016558269,-0.9457418952522865,0.4095064986381655,-0.5962370167291322,-0.8398947452862885,-0.1694262322929515
2.002651646924563,-1.1353606649686983,-1.4438466742207319,-0.7514233939244538,-2.4434848531300712,0.0510529892614946
-2.1290323893422074,-3.4297623510830553,1.0989208069802179,-1.9592734710578843,2.7158326777841824,-0.5330319432542967
-0.5889086660106939,-1.7708268848778728,0.8923423996512798,-0.20581108478981566,1.4754917860647874,0.0673981782191758
0.8377406441626256,-0.43920897331976816,-0.44678033560647934,-0.5727470985241706,-0.5764982172989475,-0.6984328945903605
0.7069930637271471,-1.1046168876065512,-0.5431266472390477,0.42382914071961963,-0.048528731221415294,0.8493372572147955
-3.238483680297751,3.365915745151247,-0.980601883497288,0.7776587343832102,-1.5126144186995576,2.8392073898756554
-1.7747706940068344,-0.7452739787344286,0.21700140030394413,-0.7852480440912402,-0.21459277161298632,0.5015630813676553
0.5194993368127934,-0.641522133433928,-0.8501314967920698,-0.8264307019591475,-0.2778966154441187,0.6012950960140995
-0.030038713593094735,-1.2042659973379368,0.2560672782931126,-0.6299308453058583,0.7924867909389274,0.2642009034283566
2.4157500503739047,0.07556779499168376,-1.5106370014354877,0.8513549154882383,-0.701894369262647,0.3863263455647481
0.4933304568227679,-0.004547176061275526,0.16422546839402616,0.9441250795919376,-0.9403147649622873,0.40468508093222877
-1.336481987379357,0.623881928937225,-0.608054358943572,1.2014856613929772,0.2461942368556838,0.7802309199077272
0.8989629556789682,1.1465766076313848,-0.3686889248665694,0.6846292310767466,-1.3687860133941405,0.025212437375524942
2.4973273723686074,-2.2907406381343276,-0.8747430076374939,-0.5242010237505093,0.5454970215697894,-0.6943242395410926
-0.10625537074500614,0.24068497644804876,0.5786817942721689,-0.27459306463113775,-0.19712577518093896,1.0166226538473093
-0.12453837740115356,-0.4222864995842786,0.32702875275653054,-0.6078813660270823,-0.7743086288108513,0.08097627736060606
-0.7678775450045018,-1.8605898352946595,-0.5760193858577192,-0.684649894797671,0.15204090297081302,0.20565372543714303
-1.5937463896728072,-1.3422736038015575,-0.42374581717313875,-1.297698545621866,0.11816155287581714,0.3582320061911276
-0.49281111212801737,-1.3388215037612274,-0.4272991203067028,-0.6542808898164262,0.8109536382072013,0.5112788376961098
1.8731728717661613,0.2168601788969835,-0.5232882900412226,0.8851106330610332,-0.4575189704730913,0.04233820217291584
-0.5799374310807224,1.0778654599020014,-0.0470307813410169,0.4904639738696705,0.5118915899119031,1.1211559281550285
-0.4103538892470263,0.8061852144762924,0.1371576213892387,0.05085247036336171,-0.6838107655938297,1.0539563437723307
1.1578703307413607,-0.6613901423159679,-0.39367236484198853,0.10961134378630441,-0.9111797853504409,0.5238381774402654
0.9443671843566513,-0.3306438930157517,-0.3869587433765401,-0.23734036007308404,-0.09322427952769682,-0.0432133273635783
-0.04336248901941045,-1.1713492870618927,-0.2641010144305036,-0.3838664950673441,-0.2863173028090881,-0.063626842820553
