Gx,Gy,Gz,Ax,Ay,Az
-12.250487,-6.936274999999997,2.991381999999999,20.182,-453.13,-61.994
-8.119862737089328,-3.831820618446217,5.572873630218723,2.7568211836354823,2.7471921059960076,0.26304858614839
-3.5224046472169244,-6.86156081762666,8.37334938667292,1.4356637764199265,2.098959953785962,-2.6183030736011723
5.07546713840112,-19.392649807558136,10.780705417090788,1.8314484318403714,2.2745741646974613,-2.290212510710444
9.637220647823113,-22.52588730875574,19.54963145402788,1.5064416985694227,2.0416381888142827,-3.8927527294683326
-6.837547649008919,63.009752277390874,-13.472026852902179,-4.69665029996345,5.694403964879365,-0.5676604045643983
5.890396944380587,13.312350647338581,-7.591540816028622,0.6799892149439672,4.075393219621983,-4.199317670691951
2.430839289555567,24.97941722245476,-5.867705476320722,-1.130729646386942,8.710027695310167,-3.3466457514699153
2.8384976823750794,4.744805401226005,0.7553180427032711,-3.298677084049315,17.483624620854666,-3.2645444528632717
11.436692398375552,-25.2722220314389,4.454405422890435,0.16090556184414706,46.688263821916124,-23.523506807269705
-3.1817499694473637,19.663252208846234,11.475260313947196,2.3221605040986053,-34.726578640842476,20.009800532601872
-9.195284554166644,1.27512689306186,-11.860576833650168,1.4754982195365485,-2.9031111349821965,5.16920497314881
-4.004845141835078,-11.512540775231738,4.406480039871849,-5.724439952891067,-4.615483662617952,4.753460295581828
-1.1234694531681395,28.572526422583252,14.401717247420153,-1.2082901473920096,-10.54142677912564,2.8721564075302677
-5.0187355847574615,78.21233970336124,104.33220204243975,-26.325015534404848,-16.203436581053623,5.613531357211347
-0.80711667149385,-10.36605437204231,-25.509041811289173,10.006764565011373,-0.6601912581966711,4.306243075551675
-2.265348685406,-32.031797493413556,-7.121313742883553,-0.13399968550226982,3.787606240486694,6.3763984208892195
0.5122247882209876,-12.351761029555577,-5.310928779762477,0.7562904226035032,-1.0501142146894005,4.083556338111875
1.7467958971947724,3.1690499245467185,-6.050030623671166,-3.1476633724135725,-3.7226585889981947,1.6679715747297041
-19.822242328374443,13.516684339271794,-21.08565424206326,5.248506149970114,13.18980945847977,-32.85090521974582
10.715565297118856,2.504738133861765,-4.993039788547848,2.5326323398894113,0.42114639931067477,3.544068384761908
4.381095119207582,-16.554728501440415,-5.747568261719754,4.512649662640674,3.359695999920818,-1.866150585436476
1.8685982527196965,-37.67860503350872,-7.131363315163657,4.643892618909578,4.122382409487684,-0.46485827113330946
7.136922305688487,-29.85219321608765,-8.60074231476786,0.8022588587124782,5.217554466761056,0.9292119857509089
-4.675208940493471,29.81298352793833,14.83725015661252,0.9993137671414282,-8.243488546457566,-0.106905108797552
3.4463358883037296,3.707625293729558,8.160627357540967,-2.0750571582994977,-2.547986838846385,0.28126672832962163
6.237066847330148,8.550409568129918,-2.784407690629407,-2.0883995235726687,-0.9069957367101886,5.637342117542753
-7.137455780799207,-5.014796005871073,8.068397684514576,1.2051495436606503,9.183199365894032,7.339914588264824
-10.275330078388363,-20.742499596657375,-0.2793932421513823,-8.753173680942433,19.108165915187207,16.75177141494384
-8.374818494952553,13.189114185682065,-5.786296478948778,-1.246911049237073,-10.095583021262065,-10.774071917269936
-0.909121365419663,3.57679426190411,-0.06280519817678998,-2.8547340925824933,-2.6638498652791656,-0.039235860634956765
5.956493967095204,7.2455124249608716,-4.081831334942425,0.4902093667154992,-5.59102104537976,-2.027803998101802
0.6149603224146829,-3.2147942504920644,0.3680317183530013,-2.3069129591989976,1.5272208100228237,-1.5858778547100183
1.8750999292555766,-13.095801976430673,-9.547462011981192,3.283613250731441,8.202764898687539,-0.8182341206927877
-3.1136329642584304,-3.807546258942496,2.739947281594025,-2.293011157525591,0.2815255623874817,-1.8277646546108408
0.6777289624303758,6.582377811839748,-3.398911698930903,2.035261048711712,-3.153526594508631,-2.0969223234815106
2.332261850963719,6.3855031816125996,-4.038001871598005,2.9454093316052217,-2.017155851817873,-2.7437888675743998
3.1176818163084494,6.932313545535985,-2.6370694531761254,2.7799695801944253,-7.418483288379805,-1.2675058357387448
-12.603693843164628,-11.191131100347896,11.236618749006938,5.210475909710814,14.792126642280436,8.751027925381191
-3.992482747249803,-1.0158086054553543,-1.924308056274123,0.03692006861338626,-2.419998200382693,-1.0770417562500674
-3.771767701197766,-5.955046787060541,5.111497256614388,0.16335441508399307,3.983299999912035,-1.618433606165809
4.935532143372768,5.72019812330423,0.9831737059052816,-0.8327665211386356,-5.709363505350121,0.7959221180856731
3.443881814024148,18.371264253410775,-9.042054321373067,-1.3986839088143337,-4.039447862206416,2.0845992757445515
0.5447851885289938,-15.889583944546462,11.329820591734876,-2.206102213362191,2.47702344041531,0.24017144235806293
4.194267506378287,10.406286857275887,-5.360606367352711,-1.2850623941179626,0.2697350881219205,0.16897591783053267
-1.2800474301435392,-5.360606628078962,2.5184970241329503,0.3282775545205339,2.238759701813348,-2.161653704889889
6.44615423529332,4.9107517884381355,-7.5232854299276415,-0.18161487420998057,-0.7398736701541839,-1.6563721478086606
11.480302907355675,2.1735394166073316,-5.060539790919266,-1.9403882427620527,-16.64269303428118,1.6305194870527855
-7.759912161758241,3.123315655817131,0.9556187903027498,0.4155512147151006,12.398964140234497,-0.1549926271548081
-2.8678597545750035,-7.3442807163377015,1.4790386265571163,-1.3251046977412393,-4.1509678361087605,1.4060845495955039
-1.3324370716760363,-1.4965958716707723,4.9575293699743055,-0.9805746495544365,3.796234544771455,-4.57024842599926
4.752590477415769,-1.3142302383271467,3.4350634420881,2.1053452640031143,-1.7626676444541252,-0.1716320659536006
-2.340817782586259,-4.923054826473703,-12.046494910187857,2.9582429127322665,-0.49169560791428046,-0.4908049734061266
2.8486676050204673,0.7695398551260495,9.660653760980827,-1.445690908114496,0.34774397138312496,1.3288623447533694
-2.5159753070809723,-3.598432662208597,-2.7394220020506457,1.2094571634004128,0.33934555257599763,0.6574001608777309
0.26635552893961645,-6.0282022983271135,-0.39081330816110293,0.9122572608585617,6.60045526673324,-3.292010936799725
5.567940698134654,-2.61881512153416,-5.780080396000905,0.8124950936782058,7.495374182747366,-4.751910960491157
0.22290559632095652,4.40646265112491,-1.2173695116750847,0.26208236190136114,-12.06578229219759,5.879968205959373
-1.133859691460811,-2.0547437232720673,0.12030637122436239,-1.1724158792186496,2.376688008083054,-1.222765562921186
-6.447547828944661,1.7455264454685264,-3.2766514420165636,0.9270012062875796,-4.628557096620595,3.769010234075276
0.466533664021219,1.550242602025854,4.872052292507864,0.2991305046744381,-0.9341531145049333,1.7444133032689373
6.936466613959116,8.000083983223732,7.1615143441408415,2.624745262086439,-2.802402347676379,3.1083627258611832
-1.5081843231434822,-3.2680159211044177,-5.7035422146429875,-0.24246950025961622,-0.24932709176510448,-0.9052177544321219
4.525772418726939,6.577158788783505,6.59336546300781,0.7350368327644854,-2.5843192228106373,2.324860173630544
-3.7414327220572012,2.2703415476151525,3.0652293796630596,-1.668350519730142,-3.514971615147521,3.0182013245330044
-2.3197839135666793,-1.9841371040041738,0.8115533084310265,1.1225960642988433,2.147770935965955,-1.8191133871687644
5.680427602591653,-9.56512422398933,-5.170874823127898,1.3164955516036418,6.994161097080016,-6.310030299206092
-1.43089872956985,-0.760170430849886,0.6921401217197647,-0.4298471089953008,-0.9403773224473893,1.1499841185481257
1.7075460788454908,-3.149397136998548,-2.7923536810946668,0.1251267965524158,2.0697566352802714,-2.773730270532094
-5.154979108853611,-5.039856031005154,-5.9291507106064465,-0.7881317699291603,2.716375787920639,-2.2329547709272504
-0.0491646870479312,-4.49145124691308,-1.8879409967860639,-0.26276839301342747,0.6079214620513618,-1.2925197435085312
4.585354402047865,3.0765276080022375,3.772574152057718,1.5803842929850795,-3.8504269117943735,4.522339610735936
0.08103453266718752,-4.971587724147349,-2.1961747760889376,0.525066640779889,0.7995984767598925,-1.6433020185074467
0.9656362048254206,-0.7192247924675395,1.7052876190980317,1.0488423637763986,-1.8084703954459846,1.947443822013798
-2.5276796811729443,0.5688660284000537,2.489704456824006,0.03048811761556136,-2.444087339137159,3.5441433117453993
1.4065539677372279,3.2400250174235516,3.381710511225124,0.2514365385527517,-2.5994517114943285,3.2293772297604786
0.7508045196160593,0.35865424061059903,-0.9319782481788295,1.4159218966970166,-1.1460105468299382,-0.2712060728842376
0.46337350000000066,1.9068739999999966,3.8296265,0.8040000000000005,-0.3329999999999993,2.5360000000000005
0.09965356654360225,-0.6674523337588258,1.3684054826930763,1.268314034918059,-0.770760962476722,1.0822269183305302
-4.622663604989043,-2.9047353559138287,-1.499610114208953,-0.5422012798313305,2.8645447322653026,-2.124881066067308
0.952971402640781,-4.295379963926665,-2.6339044138180547,-0.4746228542011225,3.346681089324841,-3.268153421957453
-1.4996750680631994,2.242205191042528,0.595422863307463,0.7514213044353971,-1.9240619070507745,1.6884865590181715
1.1141122338000016,-1.2195930371149601,-2.0365617562641134,0.5859509677105047,1.3090887937312088,-0.8591667799008337
-3.112915250581171,-2.6861951035453755,0.3470357946156031,0.019559745619151858,0.6072657945900499,-2.000760981465638
-2.472662178643112,-2.3174084000571966,-0.7077439830999461,0.6981994449153976,-0.39559967049515876,0.11570432122197083
3.4882473761987396,-2.865708080232156,0.2323333202650893,0.4268361962890878,-0.4041540269264885,1.0435850262877269
-2.6401758794322845,1.6523511767912762,-1.3054203729152623,0.7476077176162936,-1.613437231460769,1.1581595423228843
4.052596425613267,-0.43413940021674247,1.0533596810862333,0.568588263105204,-0.03320801401065121,0.548531526650667
1.1651253253131104,0.3747733075982074,1.444689590225558,1.7655162883836368,-2.9057232364066308,2.926018938447708
-1.688898408895394,-0.21660990571887195,0.7921637006946507,0.8412906614323471,-0.92823391574904,0.4368449129086407
4.807982261116303,-3.5083191241606815,-1.3144911879668333,0.04631308220084884,0.6912705582042005,-0.7245941943462804
-2.7843083364131394,0.24323986001741438,0.23561803080227284,0.36249732459360845,-0.29601727893116325,0.8887326834164455
3.728629042441275,-1.384288765263286,-0.9918734181645614,0.10817326314769238,0.3362052048760621,0.3723966320993657
-0.929284111489293,-1.00111031116873,-0.25245866445346743,0.3621616371326867,1.0348368444305196,-0.8251565032573431
-3.106430328341147,0.06255742565491251,-0.777957487207974,0.6954729489035691,-0.1449949191586526,-0.5847641825187369
3.7262225289231945,-2.7159396812321965,-0.8642358570519548,0.49833527514600323,0.05341582353795282,0.1319590462383995
-2.3277083878983023,-1.3483885403358302,-1.4016471541544306,0.14222983161375888,-0.4118239615406032,0.03873956245525412
1.7444870268265897,-2.062755630785566,0.006527239828177489,-0.0679502727028598,0.31425801297906375,-0.31728070331468405
-1.3532200164251662,-0.17574140915117287,1.3527553471975078,0.8956119034168917,-0.109050554598071,0.7356978788151431
-3.798944488452104,0.008863341129660363,1.9265309735915084,0.5250678662118862,0.0667086915394215,0.2452588837657409
3.9960617256057405,-0.18954802049956898,-0.2510432047288209,1.0123918544384656,-1.1858067044069933,0.5343135533391314
-1.2828032921924397,-0.3821074607251294,1.091786351707371,0.10222727429800238,-0.5311366590876486,0.14879377046523956
1.708374639660883,-0.515693042723596,-0.7892426862630342,0.18203873535107695,-1.076941561092823,2.0209759543280885
1.0454031011795317,-0.8806896294266138,-0.43544722975520367,0.6842769435973228,0.2224347620436945,0.013012985689110246
-0.9377137144850454,0.8629001433600259,0.6008341408409248,0.8321121816267139,-0.24912156778050942,0.11568641882831687
1.7990110264773098,-1.2402943609639219,-0.4754823901084979,0.3190977520749162,0.1198074830565512,-0.37503143488064583
-0.1095032542554345,-0.7506008738859653,-0.4819048786081135,0.4920673412604988,-0.2511293443234506,0.6571404129302968
1.9216980491522895,-1.9230041583325246,-1.336375039942392,0.19806028912920204,-1.0676112309342303,0.43743449565445713
0.7189543332594328,-1.6507949697603896,-0.9708416032434539,0.770444032215662,-0.42795669364868116,0.7055802028388225
-2.626001943456913,-1.6443026172046458,0.7052893913899143,-0.04899584179278249,0.9957086458109388,-0.6577337813406601
-0.0871536017994603,-0.5695656909142898,0.4503093933900444,0.939039900454872,-0.23024024727563552,-0.08363453912266028
0.28119135311037535,-1.3395394239580374,0.8908249544343105,0.4991383388098168,0.13283581469343808,-0.5086549870759725
-0.10763762016159095,-0.570701106526859,-0.25888197629394805,0.3041092308541312,-0.5422633748078143,1.309361071022845
-1.378235293481847,-0.5421088055394585,-0.7513589074290659,0.4246432543873452,-0.37040854537147894,0.20378266550788782
1.8684696197122586,-0.32140589794175756,-0.1201695498497557,0.4726677003704875,-0.8120149784890442,1.0440984548994965
0.2059747944599788,-0.8791679039205199,0.15560936781286383,0.5245650655348711,0.3854275909694471,-0.680112460268055
