Gx,Gy,Gz,Ax,Ay,Az
4.121478999999996,-6.753817,5.344002999999999,4.4239999999999995,-407.726,12.810000000000002
5.957452718031291,5.35601158646066,1.2698689269625532,3.5408445854792086,-2.1246742583990574,-0.8640782835752736
-4.064941714220477,7.0044048616383,-0.7775505946783401,4.278009182382485,-2.1562027659768193,5.724633098422208
9.828687494777231,3.2975499214800297,8.21936915766952,2.7205214444482744,-1.5145829957455534,0.4613620753090766
0.9238818313259642,39.23980382804548,28.063441499583625,7.9248984814646715,-0.12432747042212955,8.858836269474711
-2.2170021730013882,-44.24051853490671,-19.22770820970914,-4.733818934375146,-2.579392055016419,-1.8898730407622883
4.794547924707499,12.851613534805761,-1.1446035965620145,-1.4815512927585213,-3.8482462722524575,0.9618242708306308
26.491848893194756,-10.288067081947611,-0.3518111207512481,0.022462375897812192,-0.7934707716294298,-1.0847006597645192
0.4855612783220534,-3.07793264775282,-1.4913222611517851,2.476950684304102,-5.292120999381604,6.7312798459108745
-21.638601872971414,-0.6203533793205569,6.413863557038091,-9.114423430843205,26.767102126800452,-52.93972146906899
-5.165141307909365,12.33518116096861,-16.28698247740772,4.3841402834144585,11.72832609359401,-1.9427684158183283
-13.62167737752863,13.428789189298705,-10.270103689982193,-0.7737906482451524,14.008824875177625,-2.5438815643939128
2.53301634748694,2.471845897193888,-12.780193892926583,3.750263512381748,-3.8057483094818565,-0.4952112247837654
1.4051122768896909,40.12227207261315,-25.21119284133351,27.976407920221327,1.038905908106853,-1.404814852735895
-3.859683322142143,-48.5039223584501,16.298258327688025,-16.93421107531726,0.8570898422622539,-4.325659891154887
-1.512369734139953,16.991842475709753,0.9882932196339297,-3.0750096330660583,-0.35924417470394676,-5.365868475154465
1.5788705825735434,-3.045442203498654,10.107952133670215,2.180175338472993,-2.817093498379915,-2.023979004689489
10.610879791268369,-14.81924864389875,-7.395635668811091,1.6759441141260714,6.784653167297652,7.595237252397295
-13.408201153439723,5.7395425964823295,5.83144345873273,0.9955332727468773,-2.5911717880865868,-0.5047797951870413
-2.2285474678934145,-16.15685527010811,21.839028996214665,7.347515750252762,-4.957381524212213,6.05329780136237
0.42053389771694993,1.8838093868149128,1.060373746811539,-4.793325724306957,1.917489079292079,2.7621853728080197
1.6116286852416142,-1.6663168354839857,7.935471976461248,-3.196313930083077,7.915016015705343,5.017731107899548
1.0956700488296947,6.222435129274036,32.439013105611835,-20.245815613450688,11.239054555373608,5.148441788321039
18.224868553138347,-3.3253517223751015,-13.162054175012276,11.741667779560512,-8.589491071539914,-2.860467852054333
6.8714131930467435,-40.26764068635802,-2.142845370655306,-7.496734828671352,6.37987728617297,-1.0798541042537146
3.418994458071481,-1.9869450877126167,4.511527355040789,7.94716314474626,-1.8703283241865982,-3.888910422341082
10.684395206370311,-4.194022833802203,-3.170922588592118,-1.027062697976886,-16.17306242118617,-16.83318425441492
-16.07281783478836,-22.778845609621857,4.16156691422152,-9.278036108668415,0.975200092837444,11.114573041343009
-4.751988840285455,8.845210645204302,0.9904174217997974,-0.03332139824019009,-13.68343187923372,-8.84829771921315
-10.190301882802409,0.5912686966342893,-11.21754562533603,-0.5532253184952607,3.696671788374367,2.258244748514155
6.085709403079421,-8.49854746303955,11.801879563973834,1.1026401327077417,-1.708543384688257,0.1583522180331397
-31.8351767995123,18.439415009067044,7.234030225048471,9.585414644087203,27.22561350794701,2.028979327796937
-0.10576860573795033,-6.05884267101497,-12.796085820799068,2.854412182346118,-3.7392545928226184,0.9127542211752717
-10.311591419535791,10.359594316436759,0.6726056326877603,-0.4705071090765298,-5.741681658329578,3.38999026304179
-4.2359617313439815,-4.156615817151522,0.9498897487924207,-3.8485571585149865,-10.6504818591165,4.181891749701001
-29.76583928217635,6.355160687803917,-5.836392025787793,-6.308885225342957,19.125462000539223,2.4858829927608834
16.053268679154392,-3.4381783041948215,-1.3081384615510787,11.370127812148187,-5.396361783867566,-3.711463790576505
-14.531308300794725,3.1242200238749147,-2.9849345696951,6.920275460227797,18.201970770639708,-5.00867037809887
-3.6391982341770013,10.91785307073131,-10.41023545695999,13.669535511018225,4.426557857988564,-4.526693872748837
-8.17803744953965,3.045464510634996,-6.985747966029933,-0.6248649644300306,11.647736373477265,-1.5240499460334433
12.911757726644645,-38.93179917664807,0.091298914293378,-15.280493007481109,-18.607064379173746,7.34092647696857
7.21021443205581,3.714793036589885,0.18774149629917813,-0.064658065580247,-3.083142697403497,1.149718358211542
9.453923653479949,-2.351307139529224,2.031414838970065,1.4160380904644814,-0.8985588576716723,-3.8931254150168266
11.764252167646442,-2.4776407769676574,3.692766860070961,0.9085176978647083,1.6681786802808685,2.8349721383573643
18.620598224197156,0.13157387231246886,-4.74327838453088,6.790734924120539,-29.675471678369103,5.147862867977594
0.9500666720209825,3.813091263616737,2.7347005009866567,-7.166433872366591,11.835297448301592,-5.485606144440887
-1.3909384276352112,1.4557684644277828,-1.3264328912924075,0.6227949541095616,-11.294829786079948,2.8543257542550586
3.366961802866218,6.969635269239216,-0.4165188593608361,-1.386809378437392,-0.8330374382765554,-2.1301151817241464
-10.397509807412836,-3.7600641451514356,-1.1608002962979789,5.6764590158238875,-4.725298698649155,1.2485796442760386
3.9584936083027262,3.0934224669746935,-17.63634652726534,-2.3212862416486,7.245129198825571,-0.11910583722335422
-5.085858901355156,-0.1986923821387815,3.1985577654872146,1.969189040731379,6.089517014871955,-3.9320563846963874
-7.510129416530679,0.03326456819283963,-3.691993791667665,-0.6676122650963188,4.293705119870494,1.3892001435749997
-3.0867596065858143,2.977184755971579,3.6941100383024534,-0.2955496134383693,1.2015542091983562,-3.9001947012203333
13.814695646461526,1.762633026789052,-2.244500219975545,-7.724032005177264,8.002219430776979,-2.0154638349722833
-19.519636471295666,-0.5915140109394026,-6.372184153487663,1.9521091731833573,1.986135761666166,2.3838644750049207
10.984928612010595,-0.30892707339156167,8.946768573486453,-2.788792858892787,0.05635652606364472,-0.942176363022289
-1.0944807139870427,-3.9219036171814636,-5.025172674402755,2.0802139736232776,-2.703780719649737,0.3038583838880502
9.24115410302032,-2.108140713165724,3.903191333879013,-0.8836384360540166,3.6344489254947625,-0.234763542717782
-5.535012266174871,4.29539242305884,-3.405551879867959,6.583230518528374,4.54348240749034,-4.978473746373219
-2.85741749721209,-1.5298164685387974,1.4074100872748847,1.213468019478241,-3.5830854883965673,0.06875291215510426
-0.37319218943058274,0.4742034753948201,2.037036696896216,1.1545801635983466,-4.035400090756486,-0.36579566829383947
-8.321481385014035,-1.812353920010612,-1.5722423683571072,-2.1461671036240664,-0.30515665366221434,2.54756924462529
-9.395758208375625,1.3542231790480432,-4.783713252949043,2.5242297233055764,3.7295790356058243,-1.2076069969329415
1.0774907425943496,-4.684745545217483,4.810667637404952,0.32471309585944436,-6.4061229347509725,2.981932722554886
-3.1129483311812485,-0.2280256340123663,-0.29680911235659924,0.49240979839596744,4.448473343446728,-1.1428405956659244
2.7869479323396043,-1.3721865122637205,2.308130254060625,-2.30500902466613,3.5113054341411356,-0.3846595680771172
1.9164673823105618,0.9141891837017568,-1.8928695744517494,1.480614294896128,-0.5948921390994938,-2.0975264019177744
-7.867331323579641,-3.3465460537551577,2.427787054876477,-0.62656826902538,-1.7641837187715537,1.0124839843242337
1.669793000000001,-1.5952424999999995,-0.4580555000000004,-4.223000000000001,-0.15999999999999925,2.5629999999999993
-2.4675772459013388,-1.7442945196356003,1.0301463244245128,-0.7319729509254751,-0.2026735840931715,0.7815138946798585
-0.2875436781938374,-3.7956882665598024,-1.412938171156898,1.339308869828454,-1.8919131181894961,0.8371946761425271
-6.93211274137467,-1.5719853244790354,3.5818460761375817,0.26372731111632763,-0.06301077929923238,0.8730150346130583
8.937204433278128,-0.06971627692835813,0.19019240844111895,-1.1742674109454025,-0.9627738824046475,0.1569412869127078
-8.245279890096263,-1.5442038509580804,0.6979730607090784,-0.25816165312030426,-0.46628307031397526,0.9744464421182757
3.2044408108439906,4.574528199308362,-1.314364666846667,1.537354581699842,-1.0680805449090325,-1.3798582230668688
-4.255350244049431,0.16499624436015525,0.0027422949857179857,0.7494410909766329,0.8140646316590279,0.24964575755435808
1.52754310211978,-2.2462646804119046,1.2739167643112996,-1.3037700382014943,-2.2999149385677673,0.4225775005111121
4.804870596770812,2.541341146781901,-2.124038684288769,2.9054820432028903,0.15432686253406402,-2.688953913091919
1.2257211585179009,-1.8142718922714736,0.11013063849749494,-0.21525408187244277,0.014402090536544454,-0.3867445325042759
4.001341139714505,-0.24382760907162582,-0.9434216950370333,0.7389489231627886,0.34534257853231165,-0.892851769720542
-0.6075536319945942,-1.0484830773115843,0.5431500549190291,-0.5924362489645072,-1.2508353510923786,-0.43024854334714
0.7946711156541245,-1.5262224715640171,-0.6127348552741432,-0.9390866924702361,2.2731269285878803,-0.17964884826882832
1.0432624634030478,-1.2902881861151996,-1.9470435474839853,1.0292418703266462,-3.207755741876426,-0.2354977682839921
-2.1403431156898334,-4.57563312925055,-0.8409382683298865,0.6397134719908235,1.6154901565046975,-0.25846042023963856
-3.193449869088974,-1.8021801481589406,0.33535152004819313,-0.5860510080038674,-1.7158595780501218,1.3241405863164588
5.110999535959084,-0.4496151604123747,-1.0101732752809118,-0.07370790148542217,0.9670707262683165,-0.22201284336686708
-2.337094992508934,-0.903901881613991,-0.2939100918243178,-0.06660771555823697,0.6765237104496147,-0.2532065989565613
0.849044847556855,-0.3406426067725239,-1.1698630740256188,0.6484310438918175,0.811429175778553,-1.1010869257744567
-2.1543242196747805,0.26590877317839556,1.2079966285647414,-1.0764904290116812,-0.7848542198481332,0.3791868957701588
2.0742284192919325,-1.834670340634427,0.1392597981493715,-0.80275290009582,1.043346777223788,0.33301933458807975
-2.7887533332576915,0.9188203287847527,-0.7526111938646554,0.9916147371899144,0.041484556531262595,-0.8882385041985514
4.908871447524384,-0.10053084990890593,0.9739820351294648,-1.2423499106646796,0.07868808045774056,0.44399227110773765
-0.530575333025201,0.2925648931494489,-1.1573171275006513,0.18246005762048034,0.18946989661455826,0.039939507792412066
5.23466387584738,-2.3317243238614425,-1.616956700808849,-0.44828328884557933,-0.3293263405600737,0.38004893842015763
0.3030274524724055,0.6929708613462129,0.9161524937885299,-0.09068958011719297,0.683958542731943,-0.35971903213157086
-2.647468227807322,-1.0544536711746013,1.3892977245800555,-0.6653125110045348,-0.4666542662607389,0.07914130690354809
-1.7881893336180321,-0.34323534754331364,0.38441525066157745,0.17438493611197958,-0.34696620506550957,0.8902977036331843
-1.1075662105139057,-3.172074937952234,-0.9434703806554666,0.014832456727347343,0.22106190828633632,0.1303278845537598
1.8000167165408059,1.6949332786666322,0.34065181610740924,1.0445865708276734,0.2367404004290664,-0.5730612873014285
-1.6140109328867989,-1.960718543881022,0.2904531344660001,-0.186180062704559,-0.4954337304248364,0.2795251797739645
-0.6347452388170414,-0.9725182495731483,-0.9950983122341555,0.6379174183260743,0.8575842782069223,-0.07891354834877624
0.6314500754622814,-0.45595352080424045,0.9544917689101666,-0.28424334792547035,-0.3001338506963458,0.43066662023563185
