Gx,Gy,Gz,Ax,Ay,Az
-18.979989999999997,15.498766000000003,-8.130072,-48.064,-523.006,75.962
-1.5961996293232041,24.668164671890455,0.9559915415099696,7.25896499176849,-1.3319440578006805,2.4607402870675434
8.172091967194213,35.80526962563135,-0.9980867300738234,2.2456778469412684,-1.4701762919717503,-0.5677480557353681
4.55390641119484,37.95229415797712,-2.1150559125080566,1.594750252393996,-0.37689780065981604,2.441667729764373
-3.7659628214288854,10.730151407454509,9.30435137278836,-0.8405880642467061,0.3497228157749573,3.470317722756538
-15.649317450461206,51.26630249601115,-23.57642741714298,4.295030927362159,1.6278538093121249,3.9005010364385986
6.680880512325582,1.7944065189068454,2.8024990245888888,4.6516520793889065,0.07662212689296388,3.6666321982006838
12.31967054242415,-15.621159103779963,-1.0803682788983662,1.5799967424905115,2.5693736587105427,7.354394371028154
21.223191957371967,-0.36719484365385835,-1.6403650866449218,-4.459067924979271,4.609450121606132,5.748408221529915
53.39125871871043,19.13282771767018,-15.74913319406194,2.426469298471393,12.606348883392503,16.559437496451828
-46.866691708592015,26.050195416839998,-0.90856641338766,-2.2772030499197897,-23.148031493679966,-12.59608202676732
-10.789915056650731,13.838241679750933,0.8375434563271938,-2.846812727557114,-5.837705917111143,-4.472711397386553
-6.0639442927550755,1.9486281453051095,-7.552399600197956,0.011649409987234405,-4.191499089745237,-5.660347002300716
-2.8006626395983014,18.53059004383378,-4.357614987786947,1.1247011852972648,-0.5139951381968215,-5.332227741774711
-5.065066723364722,48.8362376711029,-19.951685478706608,-3.8658102878787384,-7.664324639337969,-2.359479743052174
-8.82226733791626,-14.336273734805392,-0.9022650116338453,-6.3484255457971335,1.350232996477279,-4.824103750220851
-3.6460621945757428,-12.606159705640907,3.2796372245608856,2.7684003130514503,1.6523785075356876,-0.39442237812971404
-7.441309123334,-13.900819533858744,4.8102754852003775,4.931655813618151,4.9698235647980695,1.0275221676113682
-7.355532755359656,-14.51368419336439,3.489577796560045,2.3490486009270723,2.728821640496733,-2.5212422313923817
4.274351009804611,-11.530271827411509,-8.998767159223402,4.792762994101103,-0.9450578204724489,23.852128284513412
1.0545075720940507,-2.1099529939532546,1.096408019350871,-7.427186967217134,0.8492015516097058,-6.571861309338754
-1.6811099480864633,4.394105054025337,1.751385331852792,1.9694629764303397,0.9499938255375526,-0.9668061132901868
4.182052706085945,6.917321096377652,0.3733365229705612,0.29071033614742436,0.2262839419494842,-1.4712245597087623
4.422512727864717,-8.913003106038582,4.263142091523674,1.3263807321476837,0.49895312045336226,2.402283903304707
3.6932211012905367,1.5187909071464767,-16.028451816026962,14.218473221518323,10.974908343848742,4.3823684027408
-1.044928367399283,2.4642653333265896,-1.0902082884859663,5.4615838164006565,1.0581926001885162,0.09873005546999947
4.418556906665167,8.091495794056822,-0.1349244890793676,2.4826330841175457,-0.9291760030683083,-1.3357024328552658
2.683635901223944,-0.1617750733664831,1.7982668295801805,0.8555723095963271,-1.939048104084602,-0.30791000195851836
0.6603719340391834,10.281827077744659,-6.777959726665463,0.8124494320685551,-7.463144914204704,-6.334287110075051
-16.462974528412445,-6.987061738751631,0.6784351121178074,-0.9701048288692744,7.296113079814663,3.234638302624547
-14.573381984080338,7.060035405388914,-1.7536360726934914,-3.2823055660574516,2.3146869526550438,-4.828837574240287
-6.396646057782718,-1.858791532391372,1.3322453735859874,2.8693360658440996,3.567083112274441,-2.038506236321956
-0.9788117730637371,7.035138254254858,2.3903097242374813,0.7122988070220186,-0.8127514921021037,-1.4133482058932683
-0.07372925582836087,10.746559552365689,-6.049118314063066,-0.788470206594337,-3.509173545974855,-2.7082433709531886
-1.3176130801900414,-12.471428009351097,3.748063568414699,2.23471552903502,5.593719056428931,1.4265727911508645
3.7371943221946022,-5.590589102821939,-2.6782402190032997,2.265354107977787,1.039693319799497,2.416367556309993
3.8692872293478384,-2.6991650446163273,0.5867594942746828,4.033816762501136,3.559934294802602,-0.8871666439662427
5.966651149623203,0.718786353157423,-1.3768761114418056,1.4755388199814208,1.241655268114079,2.1153091001161597
6.407334938041837,-3.196627425849562,2.275210060595171,-2.734672343146225,5.810900457475251,-4.655364138354907
1.4786821159115515,-9.23742726246329,0.892404956670664,-4.059220840098656,-4.934167267637868,2.3891564695254752
-6.885349551988979,4.607652543674689,-1.046483279659753,-4.72197761751479,-0.06824025334250355,0.08837946714350708
-1.6650198291574596,-0.5428249048077199,0.688555080661234,1.638972272077317,2.3203616997586485,-1.270493358157507
-0.44747104805283033,4.923067505873501,-0.7943727083447204,2.5684220823923196,1.186187227812462,-0.49643120097548676
0.7149300780053842,7.448106847924873,8.013549947054875,16.229721966041826,-1.4004141264045655,1.1151687762091265
3.1172572093377604,0.8921739138297982,1.4096226310222484,2.9490648019777943,-0.7832927046302873,-1.075238277004671
-1.5217194451239981,-3.4280207367474818,-0.9066443949169114,-1.083640728538154,-2.026688839601042,4.205372073075074
1.7646291728801102,-2.806306142203354,-2.6418002814419657,-0.05929863863012219,-2.0312248898717566,0.5049266961751675
0.2772239629631689,-2.8626301490544583,0.507251797107955,-2.608966762782064,-7.150221262520924,4.17230573240642
-8.957844960066025,0.5613477258014812,0.6017458217064462,3.5168799795229564,15.23146916779252,-9.514488001315502
-2.084445630091892,6.4786498453503025,-3.9277612281256493,7.792984248740339,5.1709565548136,-2.251287140355016
-7.256556413439508,-1.2558163674504441,3.0939799644011954,-2.3043708179529694,7.277951818207847,-3.3393372632632543
-2.6508355972690962,2.3024934471833096,1.2115815853988101,2.3180343875644844,1.3707606854077192,-3.343525876434196
-5.8811941234727865,7.886617355131311,-5.557622060467357,5.889410362490027,5.756036499982169,-5.65405751756201
7.407677000290115,0.17662258899237582,0.32140401016913245,-0.22693178252645652,-2.8431973661608523,2.062175625506306
4.150258779075851,-4.194809163456291,4.933417513287544,-3.8068812707971267,1.6687356166930485,-0.38341240259884124
2.238033057532934,0.21024999381340115,0.48938304242293085,2.1851000072941833,1.7119134975788317,0.332382222427853
4.5315033359799894,-3.4153449424514863,-0.9748446325105631,-3.894365182735232,3.91728739619536,1.3882439394845254
4.342519072409807,0.4168087700744598,5.877150674692679,-5.780943063374522,6.111264275099986,5.847928618221744
-5.293670241031558,-3.0712245836577763,-1.4244342135814803,-1.563867789131402,-3.6968933300131024,-1.7997984895651222
-1.195550832539246,-2.4194237315483402,-3.2848353956080283,-2.016170806463877,-5.032968689012316,2.2965879877328694
0.6931325205678274,-0.6066277336467507,1.4880512845747964,0.679725378529412,0.22578668291394166,-1.0546639425292552
-2.127839604059793,-1.4433524219665195,2.8240894238440877,1.208383797658831,-2.3939092182984525,0.5528228017476009
-5.068298757762236,11.60269586987633,3.5086497576300957,21.706663100256925,-2.1183288893430716,-3.9506547014570508
-1.8563385713233036,-1.6328152577609811,-0.7331809755140201,2.9379513070685404,-1.864522458676742,0.5801146632050946
1.0270846653731347,-0.8941413465954784,-0.8606728693088788,-1.8319435637463075,-3.3977902660119113,0.41936628177569213
-0.04235612251269838,-2.1127026271853344,-0.18943988173712212,0.749468504971281,-1.8635752538307322,0.5456808287579955
0.173382696100516,-0.6709542427147155,-2.000156688706289,-1.6941659258911146,-4.0409588635180524,-0.5323325855107737
6.6440463259146885,1.7139246597950777,5.997940270043207,-2.8109060974814737,10.617527165838343,-6.301045717375207
-3.0049582590277226,0.12382378183139009,0.6386082781290552,0.3125443390732663,5.459651984714052,-3.8882861737134
-3.1008048044906684,1.8315696938317672,-5.181853178777464,-1.3002054857887255,2.1968911439103618,0.37837477766546135
0.09493585313853403,0.46884557211399924,-1.8424512991817545,-0.7795949909430835,0.032036282125217586,-1.9564020980068164
-0.6373069426891864,-2.305928251385893,-2.2632515552634453,-2.7609617270568787,4.866541477558574,-1.9488198299193975
-0.6524810616387381,0.7436465316612342,3.810890942801703,2.3797811428803124,-0.428686015370495,1.4247496458555835
2.267890204682508,-0.46203115558232155,-0.7839652535669217,1.0278012536094296,-1.7471616681264746,0.9861873613464947
2.4382863925208746,-0.7934816518641565,-1.6362333457940874,-0.4558323302069873,-0.35685204405149074,1.0730300397732142
1.4115377709035424,-2.088657266104236,-1.7096820054819093,-0.8625286609380255,-0.6984169714675605,2.377534174804805
-1.6910592600378882,-2.947090599575433,0.4357768624518742,-0.4607002677814743,-0.25105735946105634,6.155606727265762
1.9506490798776124,0.48303962889210794,1.8603177603209602,-0.9539102524681373,-1.0036756807826182,-3.640953585401496
1.012827818381065,0.5074016259717435,-0.3681923602457917,0.14449033920035148,-1.5633205610662548,-3.2684478636557124
-4.287888930122582,-0.6462893789899113,0.6928253544304644,-0.7397582161199161,1.008740075259988,-0.31688410217381763
-3.398594119230377,0.24663615969824115,1.409732141071983,0.8160001204369547,-0.4522269507917809,-0.7118533944824015
-5.523777412201568,-0.15052918919533043,-2.69562930047363,3.252225675646743,3.349862950357809,-3.2300735985766096
-0.7746865946259494,1.1761850862124943,-0.8941997349862707,1.3302886168853636,0.31508546060361775,-1.0583304611598678
1.3279539463248209,0.3577345454796259,-2.2105400141326808,-0.24426595561616193,-0.10335745574030497,-1.901492055954611
1.2421899213215422,0.19131912485410418,-0.8740216815965767,-1.305241185747211,-0.70197584079145,0.5098714715188606
0.8575816026970406,0.14842708203849186,-1.2403754552767654,-1.0462832045548722,0.8904503112627817,-0.5351051618544547
5.192212972792557,-0.6177312548047011,0.3025088337498495,-0.6725402825271396,-2.941673203608367,0.5302733579897596
2.2583565000000023,0.4767189999999985,-2.1118884999999996,0.12400000000000011,-0.9580000000000011,-1.4749999999999988
2.0002156595355913,0.17057963249299624,-0.9387602099351012,-1.0637345003558458,-0.3978427497696986,-1.1817364705674054
1.0561358436312454,-0.8165750118817208,-0.45166591468202055,-0.9120720305959108,-0.5842627045431078,-0.9806917948310571
-0.13456849320689424,-1.2468875190871025,-0.7770416966568605,0.645819536027264,-0.027194226322830417,-1.0162158505737189
-4.427843282156904,-0.6108318408418282,3.1089415098120954,0.2066099040093614,0.15509419070527336,1.1885723285257157
-2.108612531738769,0.43709140680756,0.5893409903100304,0.871845357024413,0.46058564240120675,0.12636257970907216
-0.048479005293024846,0.19640855012116698,-1.9544427579310522,0.7008979412713552,-0.22526046679855105,-1.30284752514114
0.7343821738450984,-0.4899226763760127,-1.1552123716942286,-0.5966721958889728,-0.4048334177936441,0.7797374632373826
-0.847310733895573,-1.0957522314303658,1.516584645657013,0.07856309403371425,0.5946107126735347,1.7850564318271285
0.8194407898641999,-0.2699549971200641,-0.04377571576187611,-0.802501965030225,1.0277203798315888,-0.8699062960922671
0.17456969606196293,0.37793006827083175,-0.5877859976820543,-0.6818528400892477,0.9835633926479207,-0.5702305351672641
-0.43212494591017936,0.828591800792936,0.03336877169457153,-1.0367081589068814,-0.40514989084038805,-1.0951437107970579
-0.9970547395427967,0.7134095549617944,-0.6928093089832084,-0.6241711492459492,0.641726396240746,-0.4845522288864892
0.7710557043425346,-0.42493152074617013,-2.476368931013664,0.937688088854272,0.1544515145253228,-2.0040154784170743
-0.07610337480276641,-0.855640393432415,-0.05767137093245461,0.26897897388067316,1.2891212464672206,-0.242455626599836
-1.6092738259143011,0.21809874361170467,0.7451917456013196,0.6891140934176477,0.8892441577424446,-0.4920085078843892
-1.092372693127517,0.29419081460209173,-0.9693034803533367,-0.182811571561468,0.48691914455607044,-0.4958615628414358
-0.6919722090606648,-0.16904902384074827,0.4820710982383806,-0.579533683124626,0.05955820623813579,-0.16259285662683443
1.7980541142772841,-2.0891506870870695,0.1464348877311794,-0.7275986868319637,-3.016207495417703,1.237553416034572
1.4419687484814423,-1.7324897724461856,-0.06839099406121862,-0.9644744980407441,-0.388558937527567,-0.056332770560104106
0.9933452939838194,-0.2223669149761902,-0.5681277968176981,-0.18357529266371292,-0.3257492085232063,-0.49625972377600136
0.37355733841726324,0.5194049578391131,-0.47810142820478546,-1.1893445871583714,0.7507000376606197,-1.1403235161179888
-0.0843134585959271,1.857113632584524,-1.094868739603101,0.19868644745703704,0.1371451706859961,-0.6958740307147651
-1.2646027408554612,-0.026915351435948698,-1.1591643491202261,0.00956537662485335,1.102996579898082,-0.42467596896072185
0.3038163819910785,-0.4154512164145743,-0.3317754463570217,0.9129973360766727,-0.3857675683358901,-0.7904448907428527
0.29314746712786155,-0.3333605377237855,-0.49693318265982683,0.4800873855160299,0.3052487213191388,-1.030124653886169
-0.85860176230332,0.77564719410842,-0.5838895283698307,0.7561066498686151,0.5133283764277309,-1.0299272040481433
-0.8706404278442408,1.0638808043425174,0.35556545017482305,0.6996483278244622,0.8381780331403308,-0.9898030669280229
-1.1465410396595148,-0.7529786393778503,-0.8248824801882988,-0.8724986448357235,0.7392630158957402,0.5214524243669402
0.4766791037692175,-0.7826398876125514,-0.1060382728625886,-0.7238213821865813,-0.27391923564370857,0.4294478449787371
1.8312856885449966,-1.0890765404005058,0.27653671530444124,-0.5050205830267412,-0.09966817464758293,-0.7495787906837372
0.5717192489743419,-0.48666818364943576,-0.16846282406693652,-0.33446841268497907,0.3440983058038273,-0.4376786358049427
-1.2969153819502983,-1.0307006083086094,0.01832083847658389,-1.4513256754797434,0.5957937795608694,0.5717690750341491
-1.8940625994400118,0.17616160980783419,-0.6805545303176792,0.3245149362241366,0.9185606641827995,0.008745207992795934
-0.23285557899053522,-0.11098456537549461,0.19675104122973675,0.628989777262005,0.3343562085160038,-0.963786886233015
0.6211266524898772,0.686668676037242,-0.21704198969804306,0.16227789809866505,0.030668101324633518,-0.9275517992818465
-0.19698418012091873,-0.44533563295486955,-0.6168268771506826,-0.2821589660010417,-0.46786932019281335,-0.025652249135176386
0.451668761775476,-0.30096709102875663,-0.6711929686143208,0.36395027343658126,-0.49113859069778804,-0.4599337813550599
-1.2714471772873384,0.12067086310116726,-0.14620802561611468,0.45201623177130057,0.10677508544836042,-0.013592983352815668
0.22414523688898852,-0.029628407611696606,-0.7183034766987547,-0.38791509649304357,-0.27786993659492154,0.3740572326799336
0.8916251018694863,0.2980569283554877,-0.268178775641266,-0.16787099795790777,-0.03795690016496797,-0.3277027934185784
1.6827275599527978,-0.7353438964148433,-0.15432263755864434,0.4180567141906271,-0.09018895083221326,-0.793737293260629
-1.0419305936043834,0.800168431440478,-0.18140522535085532,-0.4851859328875253,0.5955133100367078,0.2217430207138682
