Gx,Gy,Gz,Ax,Ay,Az
1.5123360000000003,-6.201268000000001,0.830474000000001,8.282000000000002,-374.886,10.61
-2.812024820274848,0.9237251671871552,1.9545825299059334,1.4766147229623436,-3.626605524998187,-0.49755601645667047
2.136054321006933,2.7818064731003775,-0.3577077300856102,-0.5093256375968817,-4.058805596127135,-0.3597897450911133
1.2382151392137482,-6.917891250847051,1.967197865321817,-0.043786375642781206,-3.838378042277477,0.01867670250245554
3.7997783214858143,71.43904246075093,-61.068326950955466,9.3222597193073,-2.360992824935844,2.745321928412679
3.4218601586050403,5.386415272650412,-5.758472894124001,1.6221406138001881,-4.710401472051718,1.5353631730578716
4.898964356880594,4.657798599338639,-5.9112878850586394,-1.7247131849662556,-8.1064927671203,2.5458990819440084
4.472231301843781,6.166802414543865,-12.22998648236802,2.3491540311608854,-10.787511588576066,4.59405627598976
-24.538460984581448,4.3300239897899955,-8.14598197045892,-0.2575572629083269,47.051614118017696,-33.2235066510786
-0.5460643151961191,-3.020604332857289,-14.036473428262177,2.603266743203104,7.764220915475109,-2.5211378218064233
-5.623396460599308,-3.6261426071625777,-13.564328379464246,0.1254223323252983,-0.07980818093283504,-2.5318982283611042
3.341456657460619,0.10201437302543992,-27.468388893302365,0.8154814146244304,0.897261840313389,-3.326850385216882
0.18661197358975512,-2.935524343896663,99.13002017258415,-11.820830393029407,-2.0023366097976307,-0.9624192310055069
2.014402994349073,0.020138264633656255,16.303264937831813,-1.095749652224076,0.020599548512956423,-2.1672190649737706
-3.6833661575991234,-0.7070527397041211,1.9838800961668763,1.5239948164206485,2.9494406777672637,-3.8704628707901656
-1.766518385394148,4.113018437480756,4.356659615819786,2.386387689058805,0.6232050208390554,-2.4812538559104373
6.488278241958946,-1.0642944151384186,8.675708329361797,-8.713759272175821,-2.0040124549523783,4.659370446033525
0.14439172798948885,-9.002952006354217,2.6501821706655093,-7.00336518976377,0.7990822393497532,-0.11784272129015694
-0.5946992830029036,-5.885745015843151,5.694028959385662,-4.553544470012486,-0.9327328021021188,-0.3351727544889038
4.3259813555651245,-12.09165212391046,4.793368725973325,-3.9420523225356243,-1.0924078347025512,0.30286592119966005
-4.413764435425424,11.376653163252287,-7.178154333986146,7.151869224974472,2.9170253839168083,1.7394618826326678
6.401677544474323,0.07622944147824184,0.6353250736951956,2.06260674445954,-1.8304138400574743,1.487740925899748
0.5698593795965474,1.828348502324734,-2.621584431250523,-1.9751454361595915,-4.48384868367674,0.09733555050173759
9.85535749595951,-3.7014092472173292,-1.7446177164369159,-1.375425513781084,-8.262375274263976,-0.45030679924321804
-15.875946312312358,8.455711057776867,6.52157835911169,7.085964163015856,13.674843025895765,6.978426336532522
-7.181612446790504,3.7703992855110657,-0.947718697315014,1.9500763840753872,4.680624163762228,1.1293451555244012
1.558760876697883,2.8297445402242776,0.6773053578733839,4.733695789641933,1.6764330478825737,3.7525486449092575
-3.9200073470697143,1.6002021499262475,6.791284720956828,9.662719150071824,2.323453866744963,2.7004365968988178
0.14897546415124308,-6.140301641567597,-2.6551474537989805,-6.827848245145843,1.4434263680360182,-0.7974640669293915
2.046899688785647,-5.632465429334444,-5.3109255624905956,-6.795487923787851,-0.49604480596218714,0.8690620534539522
0.9132111166942527,-2.0608299063137974,-1.7208033250387975,-2.7333892230284995,4.846508241010345,0.5727151364077625
6.456194633927126,-1.025037115735068,-1.0433562968795602,-3.100667749760678,7.92110107256221,-0.6852816496171233
1.8998626500027127,0.3754381880637636,-2.880916738202316,-4.150435429449283,-7.719265174587805,1.0261189967752404
1.7465615404784458,-3.489844628926107,-2.847415892369967,0.3462495411807264,-2.2835009854594874,-0.30491212078122876
3.2565384357077276,-6.288790078115461,-2.992683413670306,-4.874521215964469,-4.719254512493528,0.9727897337263014
1.7137398660853775,-18.90086266161836,-10.965870185284489,-9.356681848241054,-4.787325371315518,1.033683597692912
2.5198023498250075,17.166933695831467,6.140628548093943,5.588872916921452,0.2592817633852307,3.4505221308903753
1.1483784291508883,7.2646830192680625,2.9055703934728005,4.9388761792741915,-0.1808374509312809,1.0912927917419573
1.6712239780865523,3.56710126939525,2.200162133991513,5.590480448599435,-4.720804450116024,1.9933210173948315
-2.2517590825152185,3.3513889044743372,1.5427962505288324,6.834334033824469,-13.30019146154558,9.071701285439524
2.8562942305050267,4.921004310039768,4.67191393818478,4.520732299376716,8.3187446534815,-5.363819459818666
-0.12660111701451437,2.6477842468541732,0.39050240082870813,-0.11150345115763516,2.3361111964503136,-2.4132314187233876
2.2805204532970746,6.8415489154821785,1.4599591409867982,4.164711570524815,2.7517582329988883,-2.1231083202254606
4.827483876569197,5.702578057217289,-5.8872649916879904,8.667914990478891,8.900387990473227,-2.6374367481494545
-0.7359850659668525,0.06969479052936922,6.807576223092998,-2.8147711051903714,0.8168982767350634,-2.455363068555564
3.873385844875375,-0.04519147381615274,1.7591259251381648,-0.8565709711602882,-0.38108922793217737,-1.279893661420619
2.962918382156184,3.5044798059761786,1.538169124671602,-1.9164768256964635,2.2466381458163864,-3.739571587393385
16.976550665233507,4.698268797582399,1.7260580809880302,-6.589286448745853,5.730070068577268,-1.7628530753806422
-5.3296456987997844,0.9373199403034338,1.3653528879853343,-2.4672145596913277,-2.479654264042736,-1.3066492151799904
-6.993525500902571,0.9445163613654417,2.198589464628437,-2.1858691170471682,3.174602487704462,1.6989575209906569
-1.2886640726139378,3.8310377045239035,2.8799284597768606,-3.006926256788635,-1.7905166270929633,-2.0203120178715004
-8.244252778576733,12.430592510454241,15.820337413970151,-1.3455740025102219,-9.412787472062574,-0.15620522720172125
-2.6223701557434995,-1.251927457760925,-2.509172124784223,-0.31319483670264714,-0.8114370758328547,-0.10474312036481148
0.10200381945364922,-2.1841460187965382,-2.8448588833505957,0.8083194055683006,-1.6535409893237627,0.7556214337445548
-5.851375841154759,-0.9312768038368232,0.6173802662212946,-1.4460220183062038,-0.5514389967284637,-0.012951632270281843
2.510707707028691,3.7198735502457523,0.09263338838004875,4.455992203771748,1.2721833536422773,-12.285261484062381
-2.5115147031003935,-3.095009096782732,-2.4654749803243523,-1.0575859260037388,1.4813027614806753,2.1344023991398915
0.45742580142977785,0.37141860933434745,0.727881637390507,2.176229074229484,-2.192705552640848,-1.2549920935295553
0.6666400316728436,-2.557257368012756,-1.9864418878034509,1.4760269126895043,-0.6265598661261051,0.07448751882572252
0.5157935129272178,-2.1666565360325567,0.9738404625602954,-6.285077590893918,3.304504842910232,1.7116199630232856
0.8264592664624926,-1.8679473492404326,-0.9555141809288445,-0.03863780815899509,-1.5049894427145412,1.1434293335336774
-0.7835151423654936,1.9730399180714082,-0.0023403168524094298,-1.4424401884387805,0.5675825823317826,-1.5875658924743283
-2.1049921283232615,1.2521933335759834,0.5396047426617834,-0.3613457993276705,1.110883763342605,1.911532596841161
-14.630866473533981,2.357346340261908,0.7125414017125757,-0.5584283137790067,-0.7990248036129728,6.063851744843351
-2.1458066116344336,2.1318590516811167,-0.08546369152941224,0.6937478744813819,-0.3118547040310282,1.6545405374583533
2.813979836493357,-0.023297385508479707,0.7778034202160877,-0.05991394323660015,-2.4726396471685224,-1.264598808154399
-1.3264941687492637,0.5195888684447989,1.425847995876131,-0.3265344057357946,1.1571777116502788,1.8385617183910652
-2.0690578607921877,-1.427978730408532,-5.900313588212335,0.6847308314626801,0.4808535999765051,-2.8845700588354726
1.0121757536184068,-0.6223593083738437,-0.4808568659879515,-0.062076085349017984,1.8042716217782506,-0.5555019565069228
-1.3643448688572404,2.2703719991641695,-0.2565322091411135,0.8219998969597576,-1.0229116799960272,-2.3235319827212346
2.7941407562325216,-0.656159825697661,0.3143685135717549,-0.03148514287531845,-1.9500984218656798,-2.6168510836418815
2.7490993032675037,-2.6850585626638206,-0.3440369056518251,-2.0790070510993424,2.279887853842048,3.349005914374875
4.389971576873768,0.5172090581533741,1.1315055788427983,-0.3029608580138,-0.6958042149990693,-0.8827878874485411
-1.2891272241283218,0.5276240931812067,-0.8813580374677072,-1.0717727986995635,2.1166146184965333,0.5183273562234423
0.3742333121131839,3.3864072870417044,0.367318882049247,-0.8676040777601379,-0.42801941886789296,0.6390851930900728
-3.788550177039889,-4.36781100305476,1.3552729266526011,2.1546734453800456,1.5224512399182717,1.819724732089323
-3.0303749130100197,0.2987503487055283,1.5348198918678513,0.9094009974215849,-0.3718149972542831,-0.19608581588069562
-1.2939469413938334,-0.957834685082584,0.21369066338644382,0.30377354447594407,1.3442647626404867,1.470737725085629
-3.750955849429062,-0.9580966503823778,0.9099627299841595,0.30771227838704257,0.5477354180786345,1.710082452819439
4.691092057275436,0.8110741797108685,0.8771459251306446,0.9446298392739131,-0.18421103816252615,-1.7625046869213108
1.4444306035292684,0.853029261000162,-0.2115950589704646,-0.5310889139346141,-0.07850042728493342,-0.16779152642560835
-2.4285458545210776,0.29597800937176444,-0.6161669580652585,1.4202506844726113,2.3032441098215704,-0.4092031183006246
2.059368308571035,0.2621154156846267,-0.9793812640947002,0.8429670383567073,-0.009931766157824817,-1.4811506025096102
1.1827393503573762,1.5849966380376177,2.636754231230519,-1.4557717543989708,-0.739353964191898,-0.36286704001534464
1.081491021666408,0.4194271922392798,1.6125709847676426,-1.148355435380445,-1.2103327259903205,-0.8414113147664419
2.4771962870837227,-0.407140549753805,0.5974276851441571,-1.0389727431825844,0.025355600965055847,0.35935129517666325
-1.7584758615917124,0.056876841471641515,0.9602273155620142,-2.0927696384294365,0.7468331155066497,0.6493214965290101
0.4449795581895901,1.1099396420493215,-0.5903069883330374,-0.05625580198054225,-1.0633943782526623,-0.8355859906618602
-1.3087378408945662,0.7393597415299272,-0.3879071648286424,0.6727468558214857,-0.3270240376603382,0.07404445140653117
-1.1858333980678586,0.42904536960571993,0.8067796009768251,-0.12411601457348653,-1.281977441766549,-0.6054666644420766
-0.8053910707557101,-0.5080470815393126,0.5337313755790356,1.4369486111454683,-0.5524328614971142,-0.29333821042846864
-0.3693986947529322,1.399916317936326,-0.1139350653429882,-0.7156246973054154,-0.4810862718249975,-0.27525697008291106
