Gx,Gy,Gz,Ax,Ay,Az
-5.907809000000002,20.225908999999998,3.173234999999999,14.569999999999999,-393.226,-27.014000000000003
-5.190284454336968,25.061581741755024,2.7304379647235564,0.12365336495685408,2.820552588645537,-4.859951234128891
3.2130582607630354,19.33722153018322,-0.11299086372759781,1.6798127233348963,0.8317159638763068,-3.3045082394169123
1.0176795390608149,20.00191442923476,2.0660913340564133,1.9029884564331239,0.9352635852065558,-1.486109711883588
0.2803461697884476,-8.339877684821712,-6.473144455392646,1.5036388575013573,4.451157832112109,1.9354911267239299
1.8434262001780803,2.0500071150841688,-3.153961794003282,1.3924180362746552,3.6005529186145515,-1.1761013316951408
-1.714679451975694,0.8213157377027588,-0.3600715085342654,1.0968130774680664,10.028254037146533,-3.3274439134343203
-16.652432486314666,10.636788503982462,-1.3878294257377406,-1.6943481950928332,53.1314141663329,-17.662392930194176
7.188941099155904,6.042281509115275,-6.143307961610869,0.9025360681716676,-17.622425425059905,10.278513998451642
1.414777978237423,10.241433601762838,-8.512218991805518,0.2363762867042003,-3.766135215929299,4.417858822990988
6.313303959546527,0.11650922366748295,-10.014923754659414,2.197515823514765,-7.2707022905397585,1.8127074114457167
2.5561184182551537,-42.01492197959843,50.67698318673382,-12.278774244377317,-3.1941669206559817,-1.8625947379686767
-3.5990456192654645,-1.476658624901337,2.307898425243324,0.20273919598114443,-0.5551034424281124,2.4910340285255357
0.19738392250208392,-4.441239066513269,0.14040498737499685,-0.045194940806218886,-5.435183316791175,5.162535341981422
-1.6411849584402085,-10.181631919667327,-2.3478170216150787,-1.3723314189627942,-2.7000450797713436,10.699994920896252
-5.679355865464287,-0.10828639350553804,3.7792480279822205,-4.441101074032313,4.625541749545052,-18.139139947312614
-3.251739543396092,-0.9232910375611796,-1.0531683332426707,0.637300561445852,1.5795391182325724,-3.0565094544913256
-2.7923463069521492,1.029531412655087,-3.5132525192810924,-3.8697191794410046,1.8191862209889387,-1.8899114339523653
-15.7630363429768,9.313041017675532,-8.95492811516482,6.401144665785148,-2.219876286630849,-7.6781982171282355
-2.097918874421034,6.014424310291451,6.084891635926275,5.727780438464209,2.9346319952809137,1.2562785856793657
-5.44117765359344,-2.1543202346936443,1.4054069519019665,-3.9656355722212897,2.367515063557272,-4.944408654743003
-12.04435323123667,-9.603060499219874,1.9937423406996433,-4.451770337544449,-2.7201226374860736,-5.793405291515988
21.844066961311817,-11.520854930571408,2.9719953687265264,6.285452970821144,0.8169370287255773,18.091665288358765
9.285956481212178,-9.782848951652385,3.909223587180776,-3.0877236140060127,-2.509366966809867,2.555097386836066
11.65202826862632,-4.973372479912803,2.42300104864146,1.4729915655060883,-2.619509689867394,2.7596889006658425
9.099240092244534,-1.4777572866331927,-5.019494715045566,4.859266000244767,-1.5173788816523615,5.109181345777834
5.232936358699107,-4.567073559142754,-2.243544084402199,-8.355738212020572,-0.2822037513540274,-0.2391927144997752
1.2689588798325242,0.16785518852103953,-0.5358308442522501,0.14010944061171093,4.8459742251668825,2.840007207674545
3.9446749431923815,4.61676359213209,-2.143769179716777,-0.47276316566099247,7.016344811324306,0.21703752328795067
8.797656579721572,-0.7990468831449365,-7.632192738531694,-9.026605503957024,-21.084703780869145,-8.256562929063417
-8.337527298763092,4.115290892688903,-3.218772374411026,-0.2616957688901075,7.622499561456815,-1.5143870682906528
1.734073251974004,-8.60657871746541,2.9465289105984747,-6.772161776031053,0.018053524911748164,-0.08930799339178641
1.0275482024779043,-11.030841256728444,9.860601577008374,-6.007534951606935,-2.066991885014506,1.4942367479900467
-11.09510119704751,10.216240060499619,-6.39087180222654,10.985731078721082,5.477521120502136,-3.247050478365917
2.938882103001125,-1.452772257441148,-0.2973875333025824,-0.6922583621130758,-5.723690889202187,0.7675229298037023
-3.2456283848399057,0.7068048947548244,-0.02082711880202459,1.88466542077021,2.3574416219705085,-1.0798295164277834
-10.739975238597184,6.75593295914338,-2.0864340493747813,8.716942799989422,25.085372824679396,-3.22962171120495
7.632194391488575,-4.955552350094711,-2.669617914780331,-0.9344684390874054,-10.511974333663144,2.835941070990015
-0.8342428972528801,2.2713777884310176,-7.301480895449738,1.2247694819822028,2.419788805112931,-3.2341193562696002
0.20519197429431368,-1.1894387267084676,-3.532999350473948,-1.7588432892323036,5.107931438969327,-1.9282777358197143
7.229349340193062,-6.792068064575121,20.2698262996876,-3.425704254238663,-6.174124458863592,4.862698369975526
-2.1370034425723325,-0.03438345878715671,-3.1201552609209466,-0.2908902797230519,1.3339279400241253,-0.43697861760597734
3.532770137150669,-5.070693564404371,1.317035712614483,-2.323332099513607,-12.176253991127298,3.5929375867577056
3.3574316253263943,-9.053673339156042,3.2518190038974506,-4.133683664714953,-24.777021502832703,4.093440228887099
-3.424137870380073,6.41167075585915,3.8025940537584235,-0.007026900881435871,17.19222035857338,-2.481114589922288
-1.6347515923269853,-2.893781541561021,3.473122644518974,2.1712806986006656,0.9524632567164486,1.2601238210342338
-0.4105965670133198,-0.5413717448808786,-5.046025428766284,2.1576634888999293,1.5686781742173292,-0.6306420399955599
3.784682841815824,6.317809794134414,-14.783599677605753,-1.5503734218150678,1.4615878729844227,-2.4180673684753993
4.602772412899363,-2.4743800920270367,5.529002282737096,2.013375058270902,3.2407788521521663,0.544349597723679
3.7375910153092367,4.733150148590893,1.2259703497414551,-0.28011015659317584,10.640961102703047,-1.61091699173171
2.099479828021073,4.016757531705164,-0.6058650962280894,-0.6096434941498396,9.686983414490518,0.835185004862327
-3.5329642025225203,-6.085612159858393,0.4698351650387309,-0.9237454361123882,-13.167741478581226,2.059207673448875
3.27107189067236,0.9652829727276009,-1.5095973416996196,-1.7588610007394259,-2.7919847210538347,0.9524874617390098
-1.9529925685237521,-3.3184216103932824,3.772419396112873,2.905607494800673,-0.8430886602146908,0.5233312087637128
-7.172246141971634,-8.30145344582996,5.859673011438929,4.556779326000947,-0.39989935037293034,0.9950846322118241
-2.3758265328845285,2.9638948630215896,-5.948180335707928,-2.3999676134545282,-1.0885740656107323,-1.6331009095570632
-1.5758418437927681,-5.253648350202503,1.370464188207318,0.4347249671575078,-4.734647436738838,0.9229770507477504
2.312333313039255,-2.414130756870903,1.2348928990737993,0.5596745507249365,-0.47193203409153517,-0.1421042146634739
9.2968841057267,0.36665228923499593,-4.009184852102287,0.5669868565003581,4.527893936185867,0.10022297949304115
-4.705117946679531,0.6443495564653112,0.9631524185195453,0.9617554248445668,2.887361271489253,-0.9179873925720183
1.8829795910252005,2.397567242914241,-4.244390902892324,-3.098731837807238,-0.793347854034808,-0.017918316585536775
1.4842018707682822,1.9174089430524681,-3.3116289900656364,-0.7228791352068039,2.176672857758778,0.18479670414898264
0.7224725580130107,-4.889487254252447,1.955742335617499,1.9402535076094272,0.6223822935509133,1.337555597840205
1.740364166391263,1.1585601251282398,-1.3968951330493653,0.01656725324543029,0.39781695418583496,0.13300383758073941
-3.5286420027976284,-0.2821188933720549,1.1269884786106414,0.03237782102497333,-0.21552413401039505,0.16352562014080352
-5.575314995413029,0.20753274816412226,3.6256178767845264,-0.12061580907917824,0.014126646426967149,0.1395362563040804
6.069039161831857,-3.5695756587187764,-0.10892096970064546,-1.9508932801723813,-3.5555388771639067,2.1878741013584664
0.6376355672050839,-2.9038747584828783,1.6454441533777568,1.7074676700931728,0.9373842146934731,-0.8668196392606118
0.4201545755557383,-0.5544704641463891,0.1584642388540917,-1.1983173326771248,-1.979847504199562,-0.37962612770909177
-1.4216495852509994,2.4751605784642265,-0.3797626132674039,-0.3469261397018293,1.2543100795098971,-0.17677336500541596
-2.3669607082172694,-2.067997309721464,0.028730856614656908,0.08168986004676126,2.4198470291088086,-0.07618413202217411
4.36168767465169,-1.8291380148167735,-0.887421209295991,-0.5317093029650797,-0.7560268446827654,1.2869032554821787
1.948210324457614,0.3069626682644068,-1.3678215969979521,-0.7557090935396328,0.14876326293808806,0.008339324018149213
-2.3347094235754478,1.4865365369394938,1.369148148999942,1.5117730269482057,3.2986855793149292,-0.3877260181869334
-1.8809335098014595,0.682043822795543,1.2418228018383037,-1.5440631984080808,-0.7021347738342605,1.427706012603581
0.9974738911226719,-1.9877632521011588,-0.33669271976281,0.7195654631042965,1.3555306776211007,0.32750117502400505
2.0761919677721723,-0.905088140181447,-0.7904381861118072,-0.040863956982813254,-2.351022640174281,-0.2380292430342958
1.383145233130336,-0.011233755329279616,0.025606897461058042,0.32964434522374275,-1.9021059780774148,0.7440789337049797
-2.1348186111995058,-0.3721867603636184,-0.07986442748156009,0.6642988887080437,2.584211721616764,-0.6924059890621795
-0.39947794158932814,-2.3778461054811277,-0.1355663521899777,0.5049432793497151,-0.07632639834153787,0.5558181741379434
0.47489977206474165,-2.7784687589119534,-0.7914955189154949,-0.8466378310173555,-1.6346384542538455,-0.29384353444815736
2.5704620183139353,-1.8591563775003124,-0.12851099238994568,0.341365904840899,0.2090972384940386,0.10189257786818234
-2.640809396387322,0.09266892040594119,1.7893598601082232,-0.4812764648828086,-0.18295827166322232,0.16584120502905195
-0.6588423072417895,-1.109271973175726,0.07098822427186946,0.22668149967803375,2.4349608466699006,0.13797078155107512
0.5787200844319795,-0.9006262452790832,-0.020843299819174987,-1.2321648611536278,0.10832943479876,-0.3249980890660038
1.690185548484324,-1.01528478377409,-0.5783631766777799,0.2210442557008514,-2.812509062369447,0.2173240852681625
1.2271702170811012,0.3390207192585377,-0.6993325320977917,-0.42542070488403816,0.9364468755938528,-0.34785900042726936
0.7551301380876907,0.21115753485072908,-0.6697846040241,0.4588006111293832,1.3346160885391332,-0.14394940831015474
-2.737639821823449,-0.2556732148351726,0.434850865917763,0.4720052950908755,0.8058845501372507,0.6801345286477268
3.2006523320740827,-1.680221461162151,-1.0482912448054948,-0.5382411303045989,-0.9064587840662277,0.6581242043238602
-0.00166054191708076,-0.44448169625707634,0.2977194034725357,-0.15428638820635227,-1.2646413057944121,0.2728583218053154
-0.5441920865556786,-0.6077367671526503,0.511396658469043,1.007818277994056,1.9051976488326057,-0.15794974970333353
-0.8173716442117847,-1.0044592076032728,-0.5451740722945875,-0.30329748514602695,1.9560531901075153,-0.30226528315308526
-1.7894782980962165,-0.8863387565423868,0.808572622744621,0.17670848614805446,-0.9196676820158726,0.422445088554677
-0.4181616636085352,-0.9661060305752605,0.7832034616271759,-0.5579217060806378,-0.8437499900595469,0.8168757357604555
3.128670760913343,-0.8354387270384047,-1.2625334317026393,-0.46505311692069196,-0.6822562005972723,-0.23854184376199106
