Gx,Gy,Gz,Ax,Ay,Az
-1.3590669999999996,5.646092000000002,2.1953629999999995,-10.582,-574.832,-18.72
-2.8934672531206727,5.82489205511004,0.27642857430511136,1.6971295182622144,1.0071553459934526,4.63798712378537
2.5518083146236727,5.19009514973063,2.631738329108209,3.836784958093274,0.8062000065613792,4.536836048216353
1.2966337303663102,10.39585270603829,-5.471348830440544,-0.07063702131544947,0.41167554041991267,3.778414904168174
-12.281003689574753,9.629552765431262,-7.362162378194258,1.9624817029821717,1.1670274459370371,3.5176643683421656
-5.296839199381347,68.54639563574244,-10.724507550232996,6.254821422354523,-0.7404990461443134,3.114179016915531
7.941365788854196,-11.828928809907001,0.6623468201775474,-1.8573999704310866,2.665029086259631,5.624616336893195
15.706019537074372,-17.3421337191993,2.908980532182637,0.5972884226279458,0.9576205506962637,3.2066691228921718
-0.13293950881003813,-20.258815363553673,2.2435015783488885,4.915619384143626,-2.136284864821231,4.915650305804507
6.376153100434983,-10.26483886575415,4.817712021098515,-0.4873921373914649,2.2419033524681584,5.589508556659109
8.986429923342914,16.043741132994352,-0.8618162733947483,1.982739770161111,-5.695673932907525,20.79060835761716
-27.87483788070856,-5.034624286385864,-8.126316054915131,-1.1612719752195,13.22532128241451,-28.26904290666355
-12.080217489283589,10.921875579876588,-3.2303890657068455,1.932508869912833,-3.9096780643419624,-4.051531799482515
-1.7158867019442998,-22.224721046870734,4.6194553257216535,4.630981806116863,1.6687226465415141,0.08412912279223139
-7.212412974297837,0.3329503654460926,-1.5009760279717193,1.2232533217924095,-2.9566393248523584,-2.836924011193312
-1.8129441621034368,-23.536038575130032,5.2739598076264365,1.4036679853039358,-1.8958156839493814,-0.40027109447932774
0.06630601083241305,43.92441092401163,1.3074662617274921,1.385811606148602,0.6254786044597249,4.139925008615259
-2.05278515835942,-24.420627461687268,9.739992570235177,-5.769692526787639,-2.565152032495687,-0.47916547100883816
-3.8260754024514005,0.8455080215402027,-2.9779124003291115,2.174320547880652,-6.9333328839938355,-0.6311814353550864
-2.807448297972798,-5.040912697395625,6.234516078614481,2.60373796877363,-2.614508817865736,0.5275244202101448
-4.304540157870366,3.9038057569811118,-0.734822501906173,0.7386114334560592,-2.0041496333592335,6.709123576675311
-8.391630736807006,-19.583717445156314,-1.4073423013558524,2.386189618523511,0.5780094247435639,12.173548659630567
-0.589867001703217,2.8634817850912597,9.748608009791653,0.32298584826141424,-3.1435775259668275,-3.0863321118965166
1.5769554301984257,-16.348217150134147,11.27413609686825,-2.2354223176355807,6.811993400124113,-3.3226611817223057
-5.44033576629702,11.413768802497009,-0.4002212282560381,2.6084267647044252,4.59332545582369,-1.0832410562177541
-3.4616280060923215,-2.834758137523325,9.301058164097755,4.29172010311196,2.641576388641865,-4.656777786424449
-5.2568163678482485,11.412635038736639,-2.0124291677937656,21.79217960782374,-0.1396409170155396,1.9693141856598937
9.403899630437259,-11.15048676054829,-7.8518158740902235,-21.381862889372037,-3.511933031563919,-3.7954705588440962
1.6866514774011647,-2.821314483101469,-15.60983430602759,0.10750813436501439,3.4854586746711513,0.7616796392842441
1.0546954699507842,-15.643608523903165,-4.667399947822685,-6.672651403843965,-0.38609735009582596,0.34343963420320045
1.4680806619578022,10.121250809844575,-5.325129631802512,-0.5121404369399454,0.6257419896052061,0.3614267256387712
0.31048936723776804,-15.466097262123391,2.568248207623739,-5.271937306021779,1.5055050900718596,3.3265994007053448
-10.63804500797572,8.676539770002426,-6.0893172989236835,0.2962826866264565,-28.01523374038146,-10.800165070951094
1.3410018080844344,5.739470089885512,0.7398198237497411,-0.05363864289900189,-6.782436988369568,-0.39624276534178726
0.6511469928356997,14.64681892314569,-5.66697186812333,7.910674776659718,4.83471439542415,2.838429817462215
-0.08986586010102038,5.688386474093562,-3.302584329612617,2.145327949337391,-2.5416923721605604,-1.4699894862044607
5.798265526499913,7.187583216528614,-11.325236794854,6.795246864854105,-1.6907825410096693,-0.8518174366555579
8.055159878319879,-1.0231423882735582,-17.879064188701108,-6.320448416221775,-2.8402523120011107,-0.2552613210624667
-0.47928265943757364,-14.725920857221814,1.5770879001850897,1.4264050165774382,3.703500789352816,0.8239360191792822
-2.6875457102417126,-10.51708194373888,3.4793219185027517,-3.0590322516061317,2.370789613423391,-0.23269051902217663
-2.828953157386527,2.0665913795136417,-1.7293194549387771,-1.8156961781928338,-0.7722982792000425,3.316496745968511
-2.4140791368458565,7.369382579580299,1.6868950276786667,4.388342960835947,0.07347514092846774,0.6294071117699409
-0.3225209880771236,4.769818221087839,-5.456974832642862,7.710948317404483,-8.350215334299609,4.630579922708419
-3.928107791612457,11.07148139413945,3.7423051679239445,9.048011822049672,7.799052105989269,-5.013505714375119
5.256939875142914,0.4930140288601461,-4.405070280806136,0.5265039039724826,-0.049182491651254434,-1.8783369738637314
1.1081742555473943,-0.6960083270159583,-0.9146798600366653,-0.20707190774560624,3.1192439125210525,-2.9959435078735623
-0.6270100841182307,-3.092806205336949,-1.44873761280363,-4.288538173650885,-0.36890405945139326,-0.24781710683299485
-1.5953074131097915,-9.896743179607254,3.6702834672556603,-7.061562111646026,0.9553110106548873,-0.6585383391273528
-4.18617749248152,-8.458489623415042,7.1545701897657485,2.4210843728910323,3.4781643693335615,-1.092024061338713
-6.711610142537242,0.7079096057093661,4.339731078083103,-0.15061725889995525,3.6798269455738053,0.8530798360051499
-1.6374072466733418,-3.023875635163918,-1.7265511280749006,-4.679564395686717,-4.903244007516988,3.524422247770602
0.7238435077008654,2.0917579756714506,2.0127911793286044,2.7897966917436516,-1.5818424955769916,2.79313110257966
1.7371098498826223,-3.3878633087155805,2.389021641811288,-0.28428568204107185,-4.2824015947593095,3.090718636914504
5.062662854810004,2.8310979925728326,-2.1731308286956343,1.5758635898646545,-10.157668487998398,-1.214954354928531
5.191261011015383,-7.842780778098567,0.8325889656751113,-2.287110727729688,-0.4353975165199315,0.9520675374855041
0.3241679151180108,5.070552607062178,-4.727283705290535,2.935897032401078,8.977493733116678,-0.43596778638143974
-5.0525892813957896,-5.21175501588121,1.8877844899426448,-4.891420294137548,1.7509975987337416,-2.8107914085217214
-0.36222597052776395,4.787429501087601,0.5816674200284737,-1.3090748454090861,-1.021392935123354,-0.6259148596419171
-1.8551647491148255,-1.7931760622844877,4.224256358409408,-1.3481995825388955,-2.791470489601502,1.643283821654571
-4.957514840073436,1.2414748408964211,-0.8196679717233524,0.022729477157128364,3.598186608443999,-1.1417854344576357
-3.322873843539793,-2.1230433297500078,-0.5816146236086382,2.230213147033305,1.729771563793385,-1.572261639559715
2.2182616259094194,2.162882918816642,-1.073876151210806,2.2180516551195524,-2.270939298852523,4.4455274519340335
2.2963774782273605,-0.586279268878136,-0.6031633082247074,0.20177066239298502,0.8036680518440427,0.3898419743365742
2.235959243428053,1.7641024231361078,-2.0820297847132196,1.4841761761517773,-2.0889479939348767,-0.21828906985685137
1.8386886393319841,-5.263659588111436,-1.1413718108659814,-2.01847033290332,0.5935930890817912,1.547996377946919
1.0078941734733882,1.2192540656748236,0.35342955248582136,1.1981153148365076,-0.506882119730328,0.29632791965806726
-0.10941615888040324,1.1145960982743925,-1.0363449762826888,1.4451506251384996,1.0095429424877125,-4.238727303001465
-3.182779989780224,-0.2466481786280229,1.284126041442458,-0.9207134668664563,2.2983172672244554,0.24623532553225647
-2.8256512574884725,0.1598516988230574,0.8506419800848511,0.5804292842348375,1.0930883746176254,1.0936261230975597
2.530719226908975,-0.8484683697345566,2.7166064423401797,-1.183314223203127,-2.986683007028219,1.5725313572501167
-5.192987079074772,-2.390886282105618,1.305299584032133,-0.8222594506202435,1.3127425842899643,0.18212239033612707
-5.219156479403717,0.8732755583856013,-1.3736066666081639,1.1294185865855773,-0.36990626742893773,0.8979774167712751
0.7771742305465967,0.9496906977962767,-1.254026586555595,-0.2553086889158267,-0.3887685799490276,2.509193489137995
1.0788365046161283,1.5185169203553672,-1.80240047679155,0.8782071453502593,0.2917450419498586,0.4728099340521057
-2.856171513044845,-2.5224480793061628,-0.1256622081742811,0.14248698132607263,-1.5300975966853945,-1.5353703745980032
5.876100331407001,-1.128897913988697,-0.17604288581901706,1.7684934650081505,1.6758853288098847,0.04020108396404626
2.6998762200167876,-1.8855448644168271,1.7264275778216622,1.6799323298872082,1.7242373488931737,-0.26625671989434285
-4.05963695302787,-3.353504674787075,0.9239917587691999,-1.518391771687999,0.3956409681271502,-2.483031831327162
-3.9888909793665297,0.9431868265671319,-2.127289646131561,0.027152820315439197,1.1102165005692701,-0.003034020074097421
1.6039018289269247,-0.3932870312297909,-1.045831054284685,0.6370745551295742,-1.7936756315236106,-1.4653552978283497
-3.2515182361001487,1.4441479528308894,-0.5085442866386827,0.6000742835419984,0.022386732522679864,1.5306303054589874
2.5378904270681746,-0.7355994475436771,-3.1448976001945206,0.2063588506816314,-0.9493434232000255,-0.8444332489095734
-0.9535316768046483,-0.494775852592251,0.10900750715367336,0.393047632028944,-1.4128494604622617,1.0193877772563789
2.1644210434997535,0.9166157363673806,-1.7639130641708378,0.947834972886691,-0.84620968388945,3.0776404365406016
-0.16609009874778025,0.29632614068809726,-3.208509753108104,1.6447961428300113,-0.18596774000854377,-0.9808477279806729
-1.8133336823040838,0.5292866645528527,0.8065521536629179,-1.114004784002958,-1.4065527507156048,2.58583221775407
1.0884881410708,-4.171421836311552,-0.8592524086870583,-0.17659988896009482,0.19980500506295495,-1.7268524676264214
5.927594686319914,-5.303719224465382,0.35186212262415856,0.10368524750586294,2.0711988096041383,-3.493075640875632
-1.5148345246813606,-0.3943221748708481,-0.6447649647005071,0.5404952653748406,0.4381409082364667,1.2817418494207822
0.9420761459727278,-0.9792246386866417,-0.7784671676660067,0.024003525949078508,-0.26728694057526603,0.9055917160338498
0.5240546921333783,1.187867988702828,1.5312193317603242,0.515416873040893,-1.5229891923487777,-0.19588903844841132
-5.868703607095943,0.03989815368523386,-1.004510543849686,1.864780379021002,0.5990257027549055,0.7379182425407941
-4.036764793697815,0.7214928283319537,-1.5387871742754187,0.8840610696081828,0.5699046628806858,0.9591564630509719
2.658149376349113,-0.9817738076940401,0.9217758284395723,-0.192297892270753,-2.344474606112903,1.2718567467212785
1.6418201074762784,-0.6378974822358492,-1.6227637896904539,0.5654093823732781,-0.693546310550367,-0.456305299318848
-2.8784144661300517,-2.5352045298919816,-0.10407805902274347,-0.8523862304147194,0.17484048219684278,-1.4767317633354728
3.1901403304313245,-1.4203829409296231,-1.8122394283167704,1.0401561426868273,-0.17380980539619506,2.5848960015227043
-1.6292959362105988,-2.7687144586457246,0.10175228782303525,-0.7918861527618051,-0.2292263583887728,0.4418209269258133
1.7206668343010043,-2.2878631286900184,1.2517426267378582,-0.41570894177680984,0.7585505013268166,-5.245488838156872
1.1349780261351068,0.9629632655072902,-1.4124508027804648,0.9220662984337676,0.6068045151035619,-1.1057496797723756
3.975415201285114,-2.2421311907141446,0.9609533357172071,-0.5895884328304367,-1.3973758393367648,-1.4264235320554293
-0.36837864157947353,3.124319404476613,0.37600516914270277,2.463266714984687,0.2031260543999533,1.3152938855201004
2.123646369379738,-1.7657961725959233,-0.9051428743519262,-0.1357151756628911,-1.717918120393591,-0.3261478035894563
-4.868372780712622,-2.1150711710411834,-1.689085139663288,-0.5236080322215518,-1.4370767400209457,1.6210173787725468
-0.2580870512386604,-0.7490204632376682,-1.4240937792388255,0.5946180409493979,0.47766132288327645,0.5630812794256675
-0.15046767107100356,-1.5184076925011336,-0.83002062051089,0.4861790272737583,0.28347925454290523,-1.703737969930371
-0.3986994550672438,0.7516893985601963,-0.00837420579717607,-0.013959249573441523,-0.7470917342897803,2.6923962941942206
3.621329906734508,-2.2387073137998437,-0.49337212334270747,0.9718507838946101,0.6972960720867153,-0.7750839529676425
3.9601168265358195,-2.681501326459446,-0.8940359347684665,-0.1972324891290459,-1.2160483453672064,2.3506647343683422
-2.443610887291735,1.0913116269194043,0.38314578683756606,0.08901120846846822,-0.6511503428753773,1.2750491400303603
-0.3775900791972009,-1.0338098561684832,0.41593637505850944,-0.44185275361560933,-0.8195721259868451,-1.7601795330038064
-3.4123011180873144,0.531560374840053,1.275332747671162,0.015771600753938853,0.36126991400156805,-1.2436763594980933
-3.906289116618586,-0.7178140739390515,-0.9824605840102523,0.5961556250237977,0.26202320655926026,-0.1980403729676652
-0.7795034630292654,-1.8213501314954619,1.25008482535832,0.8956818928319098,1.1696713004955712,-1.1040437054270187
1.8042365037576227,-0.7402037793959926,-0.13969497005500497,-0.7365936066327339,-1.6016845961067583,-0.4082199962978137
0.3480705637648498,0.1555890746635642,-1.4104850920941518,-0.02603739000049554,-0.28569354861673396,-1.0565770907403575
0.05352338409608859,-0.6515017121321849,-0.18569456954072394,-0.6657844529954804,-0.555847230753248,-0.2736922409467931
2.0942767074734907,-0.6760565545939446,-0.8512017115414894,1.3462351007846936,-0.081184490283979,0.7101580166166286
-1.4944220145805263,-1.8785507005131323,-0.2759318094816152,-0.1623351738116911,-0.625402861675464,0.4922559696197535
4.5751309207270126,-2.604889451375513,0.13125440284140777,-0.7424707477501731,-0.04751192855881792,-4.095794313801701
2.293061862876928,-0.011146660194645719,0.1466238614876958,0.8252242143355688,-0.48636424798720235,0.31110038395062256
0.590466182806572,-1.9408458907227522,-0.21095003500985665,-0.2700343562174554,0.26585775502705766,-1.1824420501833373
-2.9268045814397996,1.8555160071853756,-0.5784313939342796,1.134175555107368,0.1237602874675503,1.882025920668066
0.9378507255927482,-0.5316830352533133,-0.33866993925097955,0.5164844477635862,0.10555709579411954,0.589137366844126
-3.059260382664653,2.295967491996942,-1.247421390119757,0.7040034799499111,-0.2556437760049721,1.222599367815324
-1.252892258267551,-0.45645038590229436,-1.0946782308832628,0.7829357853006369,0.7261937238856429,-0.7569408901973678
0.02909755662353236,-1.7141443113444634,-0.0906861592276762,-0.5024407550257873,-0.6760552518223096,0.3054438973065241
-0.3690576287857845,-2.2260618665845113,0.2098734730921622,-0.04356871754505853,-0.3280528978511684,0.7111124329339829
-0.030163960053529948,-0.675785722165531,0.41006494531342375,-0.21639160139285474,-0.19639481271192527,-0.31822932726894454
1.5043964588127987,-2.4865338046251924,0.700245810070961,-0.9515486945465583,-0.1412163535181874,-0.08847010324859883
-1.058525740361492,1.753799438776679,0.7651131758875632,-0.03590308278616017,-0.2750137266776558,-0.21662390193720055
1.355798652792342,-0.35599077480548513,-0.27141245013934445,-0.1351927900540113,-0.15394288610884943,-1.6263337206699158
-1.148499880529701,0.17916084206250665,-0.06968715889456031,0.5499068094296392,0.6481270632295733,-1.019799348256731
-1.1410627231024226,-0.3228672193815224,-0.7233536797319567,0.5769866475546366,0.03908597760369659,-0.15348027417032395
-0.8337704360088509,-1.1955256984805622,-0.3939707756239502,0.5245600858867947,0.5566923851292815,-0.2089007909447372
0.719416283836539,-0.8068941665992342,-0.6539790341842671,-1.1703505711696947,-1.21962656388891,-0.15207128690191293
-1.2639472843385713,-0.3178365724847063,-0.8062832458304701,-0.38435882679491284,-0.36028540807266796,0.4782507964193382
0.37130322413661954,-1.4086749944760986,0.02052659534130058,-0.26464787094401343,-0.4680435793767862,0.6111649693233021
0.8010612240302253,-0.23739717141339722,-0.22502126440590695,0.25743152274394343,-0.24853438902557984,-0.5051767634442081
-0.4676906028910395,-0.8754902422569525,0.29222367427612045,0.058237758395522254,-0.37273077937714644,0.9538226418104799
