Gx,Gy,Gz,Ax,Ay,Az
-8.179760999999996,0.33542600000000444,3.1470970000000005,4.658,-433.96599999999995,-4.438
-9.541141827542274,8.695208383591078,4.97734468636581,-1.6470132003021605,0.5215342212878835,-3.285334588992061
-0.9063319031475893,17.74000208621138,5.473033804418576,-1.2955532300835835,-0.6062177343361101,2.0672925757902583
-2.0916950071007356,27.942123342246635,7.294991410493449,-1.2223330918122908,-1.2209542964807394,0.7456886866939391
-15.704297835894666,38.73451894306422,-3.854133225203092,-2.3565439615089234,-1.7508725903237625,-0.2544756311794443
10.525663946341538,-37.82879132352675,5.296249532058457,0.8535884741026349,3.7309788502292087,1.8399666383111397
3.325143497409943,2.0370723347546926,-0.855645383476598,-1.7321487942247948,0.6270660512124479,-1.539260664093181
1.3544298604921714,-2.343591632890733,6.976538136785451,-1.106030416478365,-0.5579904226628245,-2.5170261841576025
-1.8401036465235685,-11.673467643658098,-1.9317197425504007,-3.4358608672444935,6.251237081646453,-6.7813501787370445
10.655620469968888,23.60654822216725,-7.0000648597381625,-2.0064575908328046,76.63073314383813,-22.133381208401936
-7.320864092844475,-18.953153943472813,5.1677419776351154,-0.4103915077366417,-17.323513739721083,0.5527705024557319
3.6326754491399784,-0.501731510618999,2.7760814505913665,-3.6528138321438486,-2.3210240730880365,2.411190695735905
3.5108329606155806,2.4455122208097206,18.743575476883198,1.7937743019706622,-3.2519046195937182,-2.422260909039608
-3.170250823809946,8.326441547508692,19.49723398258699,-6.151796318823339,-0.8988035182783177,-1.198795816307788
1.924492881321188,-29.529441287997614,-45.354372549642164,4.5519775110038685,11.373985424487447,3.2380748523734306
0.9681146794567947,8.893411457526618,-12.50840323598591,8.387134842803022,-0.010264030894909126,2.551188593111469
0.9443812567551804,-2.5463755386540905,1.0498046615039525,5.436370146424726,0.8871809513635327,3.4475826758763803
-7.298963587797326,8.872254217291001,-0.4389883743499281,2.9098767923759397,1.600638564326721,7.379351499931468
-3.8005565286949734,1.1076490500039604,2.6502739678477347,-0.37635956676458004,-4.6568990147324225,19.340484723884796
-1.370047423881687,-6.67434519324679,-14.346602102885747,5.038906847669731,7.260838477664317,-8.852408613257062
-3.1152656825515233,8.642123347708807,-9.840262582889014,4.920325625087399,-1.9656819406680057,1.7400250606280676
-3.5892389639379756,2.557112975480851,-3.3262621634404415,-0.2640445177511528,-0.30447585223249485,1.2161245871909432
0.8675862159596925,-4.677362991942878,-2.9049167517497594,-0.9631483192189807,6.848297205868884,4.478041817735028
-3.345643316242602,26.30991442059485,14.400354366715394,2.782323635620776,-11.785180512419716,-3.5348770808903156
-5.110583390756622,-1.3330641553650455,-5.973159648548388,-6.281051503913368,6.6253789535018015,-1.2171433576904298
-2.853078259806911,-0.6148935711876096,0.5117369393306737,0.23562550544848593,0.1193347708891741,-1.1215252186622524
-1.986185390225567,3.9562412184427123,-2.8573042966287656,4.720085319401285,-10.21322798290264,-10.61175817182559
4.385746295653874,5.401572674496674,-7.575897126077708,-0.506988595750522,-13.557998818993678,-19.07444082552236
-5.910153401498439,20.645511252503038,3.206319213164737,5.31746151845574,0.2693441123701561,7.842534567215778
2.8113438801930544,11.121965199961256,1.7571766176485513,6.708931819311457,5.177953248242871,1.1558452814175926
0.4219253865797572,16.157055789704366,-1.6272192329295851,10.164152324917481,1.3150095148381116,-1.9857704850676159
0.56977694049746,1.0117267001700552,-1.1205626469514274,-3.206574539589816,5.08329317144116,1.6445585395455067
-1.4648444342329745,-8.112538292966352,-6.924920022538476,-18.09465289176731,5.885035602030014,3.5994157370269555
2.81147289356333,-13.135677233219347,2.1456314662869778,-4.364643920063098,5.961465647990509,2.7711098843150834
-3.17592456741529,-2.3297868193748696,1.1432971901531128,2.716432344287096,3.1100942544543564,-1.8947300474688713
-6.5577912865406685,-5.091312798153437,1.5378172695194285,-6.2255796707280195,0.496805745385104,5.531500089821963
-7.3665294268071015,-6.359621000862637,2.900028459855114,-4.215509129163391,-5.353392346522652,12.82951207614487
-1.670289879930242,-10.400079076605254,-6.827390227567288,-16.45111980504406,15.12073035114427,-8.742339405194404
7.9440275087169425,-7.608427579984892,0.4388373398716782,-7.74939543137487,-8.55230522937253,2.291137343526813
2.963990205304391,0.5917381387579814,3.859878830624004,-2.4840885785220914,0.17517706348721784,2.0700026559340046
2.3163747076076904,3.874257313851049,2.9537874144319938,10.164370684522837,-2.6975055422417604,-2.2461371664334235
-8.04166029520956,1.4045899926980105,-3.4883631307867686,8.883426297951164,-0.27592537995216687,0.21629721944077662
5.4557799044753015,11.852373299111383,-8.726373032195026,6.1828314150077555,-3.7764725432572406,0.0582700213591294
2.5881665594801007,4.5121255996159135,0.05483771547816296,-1.5454018037517567,-4.787883016527386,3.1575940147993924
9.686700640389164,-1.5643977044807515,-2.0436706288006943,0.3751457194441514,-5.0209261357837125,0.5070566676633959
8.129108709450954,-0.2576828337579333,-0.1366627434747875,-0.8878515224661574,0.6026011792348336,-3.8085727771289664
0.270656182063139,-0.6206009438126543,0.8074661765079032,5.540246512533241,-14.032725073884741,9.76687683662157
-8.920530905388434,2.7574938284650927,0.16796457745382454,-1.0911157602362795,9.530634363260766,-6.232008441434356
3.492948118264933,4.310231636807659,-3.58408335752286,1.2463666138387732,-1.4446266517189574,-1.0321937760867013
-0.7759878373700841,-3.905215418954307,3.2986676136556676,-4.635344913331789,1.5515436288963338,0.37751236435317326
5.68656505638876,-6.483191343570573,0.35180971933713756,-8.436922637699418,-2.828589618834785,2.474199659154039
0.2436108776520074,-3.2304192264123097,5.3520078426067546,3.3134913560651724,-2.1092916035270504,-1.990802408480349
-2.354400550575809,3.227287698777479,0.15946332803827024,3.968178103626261,5.38080484547395,-3.974456352826789
-10.027649514893575,5.211262624966074,0.47476313197708686,2.3377917513726443,3.359716763340521,-2.579862034688102
0.2661776448937707,3.06204135050017,-2.4038589321814854,0.878558986861151,-0.5339372970779701,1.7454296966186984
10.40407639653834,1.952990705211995,-3.600464520936266,0.2570805413454571,4.558062434261288,-2.7176163384559593
2.0004306362371143,-1.7224269703456971,2.1925178282275866,2.3244341734494736,-9.103160845670653,6.087561363286225
-4.782931647187265,1.522224333864231,-1.0478540860646972,-1.9837563389902075,0.9144301041515748,-0.42027876952895005
-1.11021485615621,3.806915449002415,1.143692220307777,0.8443497505809067,0.7898517695543503,-0.8570558533969757
-2.9165466733204175,1.0620959366816098,0.308803624148792,1.4274615536817885,-1.0229993918914528,-1.3251701548563393
-1.5612993666742168,-2.1697596335385274,-0.16065325376713524,-7.743157158167252,6.380912892131432,0.7909791472011701
-1.5080051197527617,0.5088213020379566,-0.571244021446864,0.04331238538050375,-4.047997451340883,0.7119589098047048
0.49256178853018323,-0.6975760436277674,0.8562337713390523,0.6089229669720219,-1.6613358302167158,1.473024659188769
-1.78966902308089,0.01694364163343831,0.5713251759564436,0.6259899808601038,1.1503317037941978,-2.6186318667890944
-7.697476711143453,1.4069089572567703,4.312933711953006,-2.0637495944410102,0.7446466991750356,-1.6894765891320493
9.627760363582905,0.873115879531226,-3.174109941364752,-1.0629385792059522,-0.17565256258697226,-0.36757402493047353
2.155816258386342,0.9710218839916192,-0.15898556058397673,2.2271259155448067,-3.3019103602062687,0.7629735930588056
0.15242987711252154,-4.081867964920699,0.09623068607416693,1.0890181796914615,-0.26744498999036415,0.7485535847727629
0.6955396026866468,0.16005171886016534,0.42901843582519505,0.5336896076471909,0.3936414184390742,-0.35412599905920084
-2.5780710078127527,6.052452413568471,-1.7516432429010647,4.612154012110313,-5.1280623721806275,-1.8854563016127126
0.7137093579899964,-0.06306392658943483,0.8872187323327971,-2.564377743375746,1.5381597090317487,1.127385759663702
1.9634861143272508,2.0050963613136608,-0.8702126082213646,-0.506571848996772,-0.28962926620233514,-0.18479529807603157
0.44712371999773715,1.0217951171322768,-1.013410769476926,0.221526004453532,-0.3634383003967443,-0.2719184998779612
1.671053858835865,-1.206269896830582,-2.5245862949276603,-1.0142371496914855,-2.6746551912434104,-0.06844479852482202
-4.311597921669703,1.8961105714846105,0.2936785671833577,1.503632613893997,2.500575007906477,-2.8515693477947357
1.1010409858574288,1.3025076621526477,0.2720838378243937,-0.641678443205735,2.379874822651069,0.6251246972717027
1.6295289597718685,3.2532194155108023,-0.5241803936393095,-0.4022245818534261,-0.9043974397095509,-0.5462289037936738
1.004356258514428,0.1799799254565505,-0.47451063300307583,0.5011872449335293,-0.04004222713468186,1.021777114172412
0.3329386573445252,-2.531432902211708,-1.119981265920648,-1.1683663100682444,2.9462664350720735,2.538644115624495
0.08526901859297809,-0.4206970816343138,2.1391116766697964,1.9235677339747244,-0.6295732094775788,-1.8310497843655091
-2.175902971608833,-0.300087942362151,0.31981330015786524,-1.2961789436800175,-0.15443773821085838,1.0082950650949563
-1.2399718277530816,0.2377995542449589,1.5255949602065582,-0.41445878348305865,1.0733789498464381,-0.02922969928683128
-0.021655850488058487,2.213393568376041,0.6120080348283501,1.2034113682787688,1.3551768503227444,-0.525273098204752
0.7198147532762281,0.0528475111634793,-0.20122242472320712,-1.4730326304550845,-0.6119334515952743,1.2062639917181677
0.41054140661141436,0.8195619191141927,-0.7404672702277272,0.5850649207246174,-1.7124700308879675,-1.690864590515238
-0.5691588042955529,0.8721792152631324,0.6346838261119035,0.36678903663920215,1.2858931157941542,0.23479574281769633
-0.14028472766121097,0.5999488909300965,0.03487946849247825,-1.0509680610728318,-0.6756515074742655,-0.6647259994613031
1.1805214125508374,2.6564603409796486,0.2734802792135871,-0.13674598540671162,-1.2376437039974704,-1.760587239738669
0.15589634069773609,-0.4916814866453594,-2.3500536493755577,0.4002967696596745,0.4877921227742732,1.256907141045349
2.8840305039350707,1.5246388067576921,0.12733536462474687,0.909157709456837,-1.1427938981265633,-1.9722936104643554
-0.9242880618772766,-1.8759764620978574,-1.0141649755380546,-1.0112375934993396,-1.1922413768799829,-0.7236474798233047
-1.2924528323260558,-1.01709665681606,1.0851484607074178,-1.0218604708964731,-0.9172852962825901,0.5408548159369311
-1.0107337220011068,1.2015070078883314,0.8005616353677132,1.9537384047070911,0.4580512568870727,-0.19277015329652292
0.39411590085042836,2.884298185164166,-1.0353167740915983,0.4014257033189236,0.8157420731427052,0.5181430371766405
1.2342965031430235,-0.3292092454541552,-1.0393880681795475,-0.5214467226232997,-0.9165329557324516,-0.7447331740626006
0.7578226919147086,1.1548069513395114,-0.5028984003227221,0.8741786134834106,0.49159864671030695,0.6043461160762015
-1.294451624037998,-0.4013878444696686,-0.4020634101438257,-0.23470445320741715,0.27400152259392474,1.8622411092076263
-0.9334537579295854,1.8942796256243053,0.7418628595843246,0.14456344365316853,-0.0061636717500387905,-1.4782059884332992
-1.9209551263308968,-0.4646472923559397,0.7469991242649572,-0.03321003952038798,0.5105824218451296,1.374844803513581
-0.2938584936595769,2.2534496021933275,0.7392521323833428,0.9949970141453242,0.6545459276034791,0.710461491189701
1.1502054218491862,-0.4241647566376221,0.1482711027094309,0.10277441984611183,0.10787277429692832,-0.4564398576465095
-0.7354793351816354,-1.912025444436375,-0.48875059476184857,-1.4482408897304333,-0.3097665530009239,-0.5088983703093464
-0.46298126501582837,-0.4486030713526293,0.5712294436365749,-0.7217751162252133,-0.0908194438219217,0.3065155909031885
1.0289189222097077,0.8571184986369289,0.6302275781913533,0.45034743452275916,0.20236819815811735,0.5563204553783618
-0.974055050411355,-0.17682680159498343,0.29463458390808317,-0.4981442198040539,-0.36302807377041457,-0.29492377282827786
2.273809952327892,1.1018408443178938,-0.012181925556964401,-0.005573830338682972,-0.988385336523473,-0.7710595181019673
-0.9642962543582121,-2.1017082338629773,-0.6139065555036142,-0.858658185319829,1.0907892645033068,1.8746102755776908
1.5966355156259808,1.9678240463507308,-0.9103025718398263,0.3840349530136071,-0.30462448014520327,-0.5732533193076069
-0.7094949652346346,-0.8343517733338175,0.10396893266500967,0.1348765408755892,-0.21720366395294644,-0.5045333132908287
