Gx,Gy,Gz,Ax,Ay,Az
12.085645000000001,6.563232000000001,-1.745737,22.1,-504.65999999999997,58.706
2.208448260299683,17.018021770035574,-2.752343382395,3.6809075402040383,3.5312909743693996,7.138535655414711
15.747090647396597,12.73343865694362,-1.2035656777393862,4.818882473568778,2.3275305718526367,-4.672083466506894
15.284708983390255,22.346156610398047,6.16463458708074,4.345385994885683,2.7039383596308326,3.3598094628749977
15.986434351698476,-6.695414658789294,14.477682073598785,7.594567418211206,2.3895791017412344,6.502250503585325
-21.027756624063855,112.72062227217711,-71.81521820146168,-4.817207800790699,3.7077242395673444,0.9867099108705419
-9.337055729071393,31.471820166016958,-8.812834540534633,-0.5916023265763262,5.862906084749379,7.41879769499455
-16.119477967590292,38.89363495501082,-2.006379459693397,-3.859508015897668,8.109314559711297,7.327491230507196
4.986088835118419,22.32026656899554,-7.63043922492068,-2.8937050688981487,8.062636429569544,5.6846691960586995
10.13898818609378,0.6296755396627352,-16.45528574490962,-0.5395400366876986,26.18947906362767,20.796318440265196
-7.397666647062907,-42.09871418470346,0.915457931693581,0.32881706800963517,-36.004812040883856,-31.26911563501698
-1.8498297890853397,14.2803642173827,-0.83025329819079,-0.07938672062350194,-6.299450054310365,-3.977811490262623
4.561638874662531,-2.8496284875947513,-13.649902944098521,0.8524784903124163,-1.0064455692802243,-5.2138431890457895
-5.6135301723754125,27.86916481739317,-20.15969517125523,9.005892544418014,-6.503455233309557,-5.996356173628881
16.130175055730216,32.29477914707304,-31.029388561939143,3.236549825403932,-2.85514418308519,-2.5825566751189672
3.8471475254184986,-28.114175483782944,13.872230481878798,8.802844948374814,1.089300355714991,-0.505714644421412
-5.275692474582421,-7.820037407941239,-2.9491626197334972,4.006359904011766,0.7237076194494622,-4.7057542494399645
2.409301853120219,7.669262821465419,0.6012620280660146,5.076585996684676,-2.4274807579354842,3.1046538569029902
2.8910279062096316,-5.198849217136058,2.2831017990460856,0.009783552328696876,2.4237322425648173,2.6865212693142464
-21.176493022591387,-9.132545778112757,14.558171147239138,-2.8056495622287594,6.564867387265679,30.4230539323583
0.7905202355445065,3.0328145884146167,1.4186167165891774,-3.4806063495669104,-9.911498726515509,-13.762447607881796
6.455666703300304,17.136849976234657,-1.354424638830535,-2.9736314552561294,-4.152740207944769,-2.6698908476896035
-12.396018604105578,-17.916478763039937,9.058167890436241,-2.454107618531239,3.8205618867127464,-1.5478280484334561
-6.170310784207947,19.258173836250094,1.859006625071386,11.531906405126715,-6.413668444824134,-2.666843429865287
5.67983598896672,-27.84780217683202,12.995527419973095,-3.1388501226732757,0.3178445982387963,-0.08168611354623856
-6.812701536607275,-15.29020674536836,-3.8862842451044246,5.686579603111784,-0.02010421160950493,0.03803883447472067
1.5291952570377396,5.152283780107915,2.0040084195447188,-3.86260017256641,-2.8246518201600477,-5.9993600647755585
11.943154853182097,-16.21446405628614,0.7473844747533495,1.1056035033943297,-2.8498166807139977,-2.3101886301190304
-0.09687343697925854,-17.893603665101352,-2.059124656526885,-0.38683038329304265,-2.1222118616700856,-8.235981268096536
-36.05781628556072,-33.99085182752743,1.1829434145730175,-8.150235237148046,32.717994380532225,8.90897814180407
-8.369824155361217,-8.50987382745564,2.3992054766959905,5.289581087475075,1.969025064996523,-0.34816974379842014
12.623864434946741,-1.4108007997154282,-8.227040699248942,-5.933359171166236,-9.631320105721539,-0.268432614845342
-10.560897625509966,1.720516562965626,0.44554793924037994,0.6550625155767431,-0.7337501357848458,1.090380800330312
-3.6133627178066985,-11.346247996116798,-6.121988729112577,10.947788977837156,0.8181739524651994,3.2557590788233917
0.5790493772423736,4.335375731440702,21.88060428374479,7.299147993716626,4.800212691017599,-1.0189766862520369
-9.212392187625257,-15.25634102227938,2.395377860971103,-3.222317178939994,7.340900802236812,-0.22710056989991467
-2.5984443623243445,2.9361629654996917,6.304683567165201,3.3152631695330985,5.809512083832557,-0.08685774768023047
9.228894394766439,8.9350205499168,10.116661056616152,5.58049808967817,0.7345508440498829,1.8670248149262763
-7.697672836113383,-9.761194141485772,8.867784256660496,-6.175485194765594,10.083217747865373,-5.864211893826116
-5.816900142657239,-1.5822222084413582,0.8340774467232053,-8.3324521717917,-6.439074663872564,-2.6540934987762017
-6.865333919367934,-8.104066896234096,2.6816027614995397,-7.347225507767847,5.20521020248204,0.01582343672828035
1.2530718446732827,-9.129405991446966,4.2080215310244835,-9.005293649879274,-0.3161463417032535,-2.538501512009473
-0.8364824400436808,2.140064978122194,9.492555572422326,4.6959030270506785,-3.311995717035531,-3.460094932505627
4.032075917950742,-26.140259262006282,-4.547023319527325,-16.858607694100254,-6.224184168435107,6.3891905736593415
6.254834398065506,3.907994996699898,-8.20533765558435,4.775327818416353,-4.541052771425509,0.7306738932387606
0.25452531393810807,-4.7413686159905435,-7.419401416483205,-3.014062503850851,-1.6605397891549405,0.6829559180500383
3.392441685141385,-1.4638217652869443,-2.447724413338686,2.0418663021546126,-1.8853050024326792,1.638916402844298
9.267213587609817,-4.002672212321695,-2.6370166737296494,4.4154972444681295,-2.2640101795140146,3.2084930794824333
-23.200154503214275,-1.7081729874190341,-5.812775099167242,0.2454272681316354,18.656457338259614,0.5783048057118441
-1.4415934314928336,-6.694898914927489,6.467164557758129,2.9679204016731306,-2.2616499792751914,-5.317785860820788
-3.4293871048863167,-1.1589486762935106,1.1849970749603438,1.1628731369943694,-0.6302338070292954,-1.6837951543353566
-3.7565368202835687,0.1417740380053415,-0.14450384639134395,0.6104988418563777,-2.7989036930365927,-0.6729005617817929
-6.596833074763445,5.354841914192112,4.085595277452692,13.399645661395565,4.66804055983021,-8.493207888083575
6.6517716130659,-23.251977311331082,11.181833972163968,-17.176568306346446,-2.524917057236135,2.391058855468221
-1.8600072008804318,-2.1907458804280937,2.8004167763407066,-4.875377930037807,2.302012072385576,-2.048801388856839
4.806630996807299,-2.5412183300745905,0.4785744232233968,-6.036895654767682,1.9002540841231954,-3.390722894186597
3.7357622272185678,-2.3028352417354494,5.261515134609951,-1.6089959801920992,0.6801037506839498,-2.1747602270329094
16.423213793502196,-2.0325322321495753,4.912482889072598,-6.590268497277004,-6.3758620369379875,-2.677603741978681
-14.12784457581741,-2.136506188662866,-3.8412929246749474,2.4430657120418466,-2.528217002632236,4.833225295751294
-0.7949334669038006,1.7938182087780596,-3.2419172965244187,-0.16538816852448157,-1.0414848931335952,2.1577843983253735
1.3087545634964453,-3.6435017020217257,4.7239595651441615,1.2396500064373335,0.19863808924589565,-2.025996758657292
-0.6466438011062489,-3.1860001978411763,1.154116574538313,-1.1392881755727315,1.0839193345212124,3.9849025572405803
-6.786908222535544,-0.2742015235207176,-0.9299747246765725,10.098430579898631,3.95737669403563,-4.472983268007129
-1.3958372702955524,-1.9960185244264164,-3.5791475100087324,-3.3673767438770983,-4.045671541434541,4.491622682571222
-2.9337559761468803,0.5482874855432245,-3.891352898737732,0.7016721800556995,-1.975899473041144,1.1322011572584043
-0.5866958451805857,0.3535130709991332,-3.485962574191321,-0.7728837255231245,-0.6182876287225025,-0.7860328194368056
-5.223286274426547,-3.70647591035362,3.763482055227475,-0.2577855266903384,1.8032709534251565,-1.8233669770841983
9.02150557610555,2.596046426301844,-4.062367463549427,-3.2626741786404185,-4.21961436049334,-6.7317659143523505
-4.726865269929681,-3.404279612168732,-3.969150570986477,1.1259574227387688,2.3725631883073746,-1.0629693664403437
-0.590403542063898,-1.2648195668358708,-4.277703487275378,-1.8242093257776995,-0.47499962808735274,0.82564494433135
1.4757374660581675,-3.469862107378089,-1.3419528033579908,1.8094474795161615,-1.2955558465716832,-3.0279530371289516
2.0900027697998764,-2.603051651118032,1.0060167357520866,-0.5557256337182416,-1.0964275126681133,0.09575168828480374
-2.6728446836441138,-1.5502702265120036,-1.6702749929539003,2.814841426784157,4.438769940231656,-4.540971336961806
3.098142090416384,-3.073998580978956,6.225958008354388,-2.5843854969992828,-3.4484743365649133,2.6642592860947705
2.6273889219257676,-5.0692863826381895,0.6308534901928501,-3.0718127640431163,-1.7341144313076922,2.802354546015038
2.3569380578151495,-2.664464064184536,-1.030649891090554,-0.10813418053366408,-2.5574365335152582,0.6101909237577399
-2.132117501745186,-6.460140375850627,4.066505373738808,0.16672790086237455,-2.3687169951381213,2.0366776057922564
5.715150784655437,-0.3210229832364144,1.254732600464728,-1.1714356045066923,-5.304400847986059,-0.07700969772173871
-4.036047468053813,-2.375412377792457,-2.845751831820741,0.050309893768387015,0.6575799181587674,-0.05973207743720099
-1.7569868690271457,-3.3201672271896125,0.3021896088330216,0.17421829873933614,3.7983328317144047,0.5933309425488587
1.432344316076266,-0.6614726905408101,-2.6962669808992805,0.8532634061572961,0.2635322349347029,1.1929517700558072
-2.9804736023194716,-1.949789153019734,0.15336493786395677,2.4750133761131674,0.054230182868532095,1.0201330183846777
-8.536647503755571,0.343955968161646,-5.278866899030648,0.17335186504879774,5.111110399141816,-2.587681796523305
0.12940551707185444,-3.404429565175903,2.871376393550581,0.6113229723045279,1.1134452902241065,-2.0191194953238347
0.8938514011604779,-3.171780916466786,1.045253949689269,-2.858027041283595,-1.342247413577566,0.12247964937904499
0.36488699440965594,-0.11296107203973105,-1.7802883034736408,1.936285537027715,-0.7717913770453642,-1.0455508365180943
-2.2070541805105344,-5.964494334086943,1.6108449445835813,-0.9054059522098016,1.405998223672805,-1.8865163005837262
8.810181334583769,-5.076340174024924,1.0796925699555326,-2.526616017148774,-0.5933840373071096,-1.7856492676464022
0.1339182753922028,-2.0517996251446498,-0.05369820692859939,-2.9671161363676717,-1.5702080470201496,-0.8807233475907271
0.5598343009553128,-3.455540365062797,-0.20835628825119498,0.662601877828412,-1.4041740295945146,0.8576880699960097
3.8475613440522687,-1.4786158570998027,0.08039319310551174,-1.8657347727771785,-2.778718958806947,0.24427693447035836
4.623024278441651,-3.3041986367323664,0.5730745138980234,-0.08013042067782078,-1.4640671727832244,0.7175892098962713
-5.733157582232044,0.3326370872912432,-0.6092856002781151,1.3224879133935,2.65045853787702,1.4767532252612614
-4.152022485464005,-1.9481620335533267,0.4138740352906901,1.4913223020594226,1.0084280260919778,1.6596608576417435
-1.0765711054379032,-2.137328468940181,0.5295615285481488,-2.6997080676965703,-0.1870152278930841,0.5210489427828597
-3.7111856107610564,-1.7909475297564055,-2.226833776743883,2.2917046786012913,2.391403239902223,1.2912035686237697
-3.6899521580937833,-2.9403061449745294,1.5524771714196648,-0.9741124164695787,2.685295976589184,-0.7836949863172229
0.47618899909460577,-1.3698362098766683,-0.4392846430793518,-0.9917751574996466,0.8693122293184592,-0.41435212480249994
2.008304694961571,-2.4311657217074334,0.2862752284314405,-1.072038354611286,-0.23795067390713953,-3.9058339650103817
0.8692032507779477,-3.743110898961598,-0.13201701125381926,0.6856972217221949,1.5679594090885796,0.3785549723295063
-0.2210791671727853,-0.28914485947919166,1.0288953177193365,-1.5156390193495193,0.8901558682309185,-0.805615450736632
4.372091978102374,-1.535468565877518,1.2980444661853383,-0.11113465112134613,-0.279444700028685,-2.0913443126079865
-1.2432132563374985,-2.5164793005005865,-0.492130483299835,0.33862901657167566,0.841693810020745,-1.4137908054953743
-4.402948546894947,0.22469124067193158,-0.7745248495078901,0.7353919991657865,0.21058353500010318,1.681869155695311
0.38218131235952135,-0.6915734786756711,-0.13658084003650672,-1.351963019297267,-0.23195108592084923,-0.5015056620287873
-6.949805766336065,-3.13648800030992,-1.6564256376090551,2.470587839057672,3.2734777690240184,1.3710427363035365
-0.849978899598761,-3.1284317055832105,0.8006593283516017,-1.2019110942156215,0.7094360555820268,0.17292401130819202
-1.805992128526101,-2.4195878430438365,-0.10204680174257741,-2.143166027448775,-0.789655930686429,2.2538164859736565
-2.8307964111316686,-2.266493044758017,-1.0885064463432985,0.3265433615836371,1.1579860000165656,-2.054169140323764
0.36885473104317157,-1.021712157004811,-1.4219166530444185,0.9843108803086162,0.7653631844112897,0.28944027467665134
2.2345668263684546,-3.2788661708443456,0.6548450132815085,-1.258409823338994,-1.290604343471651,-1.1163312929949631
2.2556706164536515,-1.0957198125467036,1.7733085393412944,-0.3014156250087626,0.3753793083682876,-0.21413022402034532
0.27638489821846246,-3.403251453206555,-0.787408882054415,1.051579550007993,1.2702445087054313,-1.767439291587501
0.5317593296134526,-2.095814392472663,-0.43149054794197844,0.7971319050619329,-0.40017013214666763,-0.47722903398151306
1.8034979773600714,1.0700921992807269,0.29052785570985806,-2.0139552046980564,-0.02477617647879171,-0.1764730307011791
-6.813656594653175,-3.112084406805021,-1.7315935157667477,2.0734357812645836,1.8841752245388474,0.3753478182001577
0.633312533718019,-1.1986641281430934,-0.9513021457131161,0.04831966023550072,0.9186069419213518,0.38353776008527074
4.3191974784633,-2.3477295301183183,-0.44524724556666984,-0.77107787735082,-2.348937959003687,0.1872320911180263
-2.2514172189891775,-2.7791249672480163,-0.2690846142277077,-0.21698425643170682,0.6805694818580452,0.817663024222852
-4.478237336462334,0.16449812239033246,-1.0586448647342248,0.5173669608033424,2.702077541114889,1.592448227292819
4.149717195247279,-4.65320781085314,-0.3226822794512712,-0.1099283901545697,-2.056113366813403,-1.919804125071381
0.46700690467487815,-1.4646106018710092,-0.35803434249100696,-0.9903125176531812,-0.20528668200454048,-0.361070635992743
-2.4785993099364974,-1.5312314297805363,-0.24714530760945685,0.125502694872429,1.1726000074354337,0.10867008860891803
