Gx,Gy,Gz,Ax,Ay,Az
-9.466007999999999,-2.4303550000000005,-6.951468000000001,-15.469999999999995,-409.8999999999999,-55.956
-0.19944247271194354,13.127965505498018,0.5500034763203149,1.726353384667166,-2.2556070529404755,-2.981963253981021
9.33913988626699,-0.20295259454147915,-0.12663336930771965,2.4539837448728625,-2.124873624814501,-1.649231966893422
5.766427624607104,8.841799553929217,-0.19482732887049792,3.1209133016124264,-2.4382231032787263,0.09078992728044506
17.164474297075945,-16.05319008005425,-11.18310958112566,6.198815763186329,-4.51590556422157,-1.010808363810684
-7.881175735548619,26.924139799427394,4.913179053574992,-7.479759413151883,-1.4468380822899045,1.9448362685517537
2.216596562990542,-1.6830363000503805,-0.20279175492126233,-0.9219912695720842,-2.911034977020336,1.1380066321620161
-1.9761365368399808,-4.53988049964779,1.9852010120012542,0.09541401258149869,-1.1503877095538937,1.435166177242022
0.5847822612571274,-11.605903031774323,4.425460672822874,-1.7184692453970076,-11.451072860877282,-0.6371693516546033
14.174490677631738,50.54886095480752,3.1802352150218747,5.131404157153706,57.73519327186369,-30.91926411355528
-4.172037541517218,11.066523637164096,-4.0496582387120075,0.47529522460431517,6.614777160202934,0.6337322545729163
0.7050014553498507,4.014252295691253,-2.16519560455563,0.9813314268804194,0.4962057906791768,2.5723823369257794
-6.323289639391199,11.675559857699625,-8.01647192467114,3.39057127283097,3.1062536528669566,0.2622384593512307
8.4890897635707,19.50708937452175,-32.932847627591066,19.095616214893482,0.9895141728977319,0.49323808551878257
-13.358130045309025,-33.954382722000865,20.229885754596534,-19.805854909450314,3.335848762187389,-2.704660644794581
-11.715094255135954,-15.813666260983853,11.930907413844244,-9.32284288100552,3.251471126648201,-1.4975344289517327
-0.5283410413732832,-6.558517057445608,4.97060955148414,-3.279443770330037,4.36500084407528,4.753803795448816
-5.919585457415563,-8.932596882684788,7.534525019409722,-8.395100016292472,-6.119218244412617,-6.115754928657335
1.7375685570791255,-3.235273540682862,-7.975046018131081,10.396067725663926,-9.13092398202243,7.716345311252471
4.915930862854023,7.088180343820094,4.065504447523221,6.020856551136257,-0.6720072819890925,0.06952689246932109
-3.013857008167397,-9.152166272702235,3.7974905388302242,-4.720192417698341,3.594467795927752,5.248443683144372
-4.344076190605783,-0.623567850053099,5.930860039603427,1.5363736918310442,2.025707813730071,2.2709250330138673
-7.502630786863312,1.6549867865965946,10.931137817735912,-7.619506643936821,6.166300240574733,1.7789774027164431
0.4507646178292237,-6.299810133449553,-3.806959514320093,5.9220442143290875,-4.265494238521822,-1.0684623865495886
-4.257591178213697,-8.26579454698692,-1.7303990459177006,4.333013466900835,1.1350297466091466,-0.8686157053087364
-0.3163990844278934,-3.58868512506633,0.9023432611966089,-0.4630069367842086,-1.5297708204917426,-3.493968207538455
3.1462517610287106,6.343061899722004,4.480570379908382,11.756087381061464,1.1191824886922366,-2.7553045723740635
7.681318477421092,-3.9354844038081245,-1.2462297060723397,-9.96350617756098,13.599243374648893,15.097002561632042
4.0076617797858,-6.466230975478478,0.8649847722328992,-7.98285101384476,0.04252326689456937,1.5560879047873397
2.34151615167822,-1.6700343452636504,-0.028077953272319434,0.5815009575970456,-2.253735101012818,-2.255867988432564
2.682409438859734,-10.145017596552405,2.9975660249672775,-4.506535474252066,-1.7827622487426142,1.505855842062549
1.249581670592721,-31.037540519022972,18.27491536829602,-2.2247050062988087,-0.9932332184609605,2.034764372629768
-2.108966474653939,12.588266723486148,-7.921433910148164,9.331458866273328,0.7393363285495593,3.4841020330953576
1.501348137224126,8.065545678501971,-4.829133020864012,1.1011488852053808,-1.5774593950665519,3.047430426738848
-4.643742016094075,-1.251052238714895,-0.8707464255457906,2.4842346028271662,2.0736190874089058,-0.966937638550773
-3.444770344248035,1.0371853164451998,-4.773508325321688,-0.6567948825631225,-0.7548963954048317,4.1594221814743095
-3.786529230177831,4.7641865429969705,-3.6434610356656396,11.14152775887432,-6.931876006289939,-13.175168543746189
-1.2647657084006338,1.2384867117099183,-1.3722123686081293,4.846067223499286,2.8963530847304533,-1.052869139649995
-0.7823228999187526,0.43815283069774347,-0.7385155063144739,-1.3351975892351025,-0.9482412550926642,0.6134196725689036
-1.67650377495651,-3.9586169208960453,-5.049944045863878,2.5000560289968243,0.4265643591629298,-3.62304270143399
-0.40819115620879687,-0.41580615641463314,-16.340096876566076,-3.620955740799445,-5.207943146438973,2.7388928224421623
-2.4820422293563187,-4.25588539348915,0.5177968220867162,-2.385181267044883,-0.2703551022750349,-1.434971891147483
-3.105167854106671,-1.6973276055414792,3.2505393399655,-1.1673086442267024,3.72451372765358,-1.7337233584208152
2.8837659583614017,2.933579154773703,-0.9413195362954282,0.7291063273440238,-2.7787017547792514,1.1320129737926075
9.079453632198325,-2.318769541934171,3.8822943005360395,-0.8047721979535953,0.23331957394079783,-1.330393698839849
-8.39790058276431,-1.4336962446151924,-0.605494787062504,-1.8771814284004724,5.857947454896958,4.720279844423379
-6.161872726829793,-0.986108680805222,-1.1291522909858478,-0.34389545041998093,1.1518492209501034,-0.18471556005387735
0.2676486541227895,-2.7029680951005606,0.7569386679104818,3.17840612872058,-0.5019619762158442,1.498877734086586
-6.182977642109616,-3.0238060060308873,1.0600365285580233,-1.6642312574415012,0.1837607517227392,2.1465443031889406
-6.063769095346914,8.82504542077491,1.8443487169201624,6.763363916789326,3.61826367138584,-1.0658126764274725
-3.173054619453047,-2.580349265518892,-1.1888175273492443,-0.5427811503781722,1.30227335709299,1.3806753344356488
-2.902261177817283,-2.0741142106655723,0.24467257571748857,-0.17154439202099248,-0.2979991646552822,-0.8829672192612722
4.58033606914657,-0.22666274017317528,-0.1932021054539061,1.202509416876171,-0.30003940984179844,-0.5722062667258331
-7.849664110505297,2.1443391265010043,-1.6179370407650429,1.6816775817119516,8.930484251579,-4.4631629399672805
-5.590654824567421,-1.6269588720752663,1.7067609788266398,-0.6829671400402759,-6.269728760395754,3.776251770162028
0.2693594127522261,-1.5479227717745732,-0.6683981956631723,0.16183393106732602,-5.381364582606392,2.215322850433666
-2.8632875958765847,-1.7254422083924128,-2.2438321093462124,1.1174146025935447,-0.5344991668922031,-0.9114447678069455
1.6362598283833638,0.3248805206969269,-0.34233748684912146,-0.1829879432756013,0.5776845495103892,-0.0891891135521946
-6.896626736388044,-4.315690298178723,1.7378655322609626,1.7403060752142865,-2.7970997517322145,0.6753221681071894
-2.3226926005419863,-0.3844366903381097,2.2634488259754653,-1.104079201570264,-0.16093004415589637,1.2512292385292674
0.9466641711044324,-0.015111306187820528,0.14383630752081217,-1.309205869129936,-1.9636152610645996,2.6821845398786897
-5.321557435635299,-2.7472047835905067,-0.510987427087187,-0.8032903856990411,0.2409252503438613,-0.15402552588012788
-15.566385033099323,-3.3957918172906894,0.9771718804514447,0.06888391893993831,-5.43998894615756,2.8018364513785863
10.21438434092655,0.6434931457132531,-0.4291634944003724,-0.12642368977551918,0.2876188657333687,0.47087968178073963
5.874980178603668,-1.874541121670146,0.15885306415834768,-0.4380618787491377,0.7360775965338918,1.6089472714833657
-3.6444062349907607,0.49209410289960054,1.1306120127579933,-0.7747481139322849,-0.20808517795141568,1.913892466193091
-0.18204246211469352,-0.3383689323772375,1.1857571202711623,1.157212951436374,0.024712695027996806,0.09997411349362645
7.01848379410257,-2.5091764288573026,0.8359381632932287,-2.4066097220912672,-1.0369182667530121,2.166082125844123
2.313840084267813,-0.4115419019182106,-1.568925789997907,0.03959186892605546,-1.1697661216699078,-0.0185294335844427
0.5533427319465392,0.6755783987867817,-0.3322736541906877,1.9778595700304948,-0.2998332919089376,-0.6271591038638407
2.0029165430676477,-1.5543279712738929,-0.04871156309401659,-0.18977072087038824,-0.28028319764879084,0.6686502916689692
13.974316854000595,0.10885036308340923,0.5155419111316816,-0.30561370652395636,-2.3044454303773616,1.2947915697433856
-1.3412976547850044,-0.006117674927125449,-1.1508171019598088,0.9996695498676499,1.8076343558243062,-0.43981862256164267
-1.0349420881753342,0.40210408077849275,-0.2915200460304701,0.5785171340776465,1.8342428598635563,-0.7826501789914974
7.358888723927446,-0.429610156623487,-0.12490833730334777,0.319534874775963,-1.3226920600551144,-0.036318059262342384
0.6537933048042986,-1.7517994061412734,-0.5734356169374719,-0.14161835283955126,-1.1169003951248004,0.921198567546482
2.13516301961033,1.8032176477787398,-1.734721275170082,0.48805254449284746,1.3501321088042983,-0.46706462688731376
-2.9416902771099047,-0.6171511688943504,0.7574590608750188,-0.8018449918795317,0.7954949186831811,0.9204278284196881
-1.197013776162605,-1.4132054756102188,0.06597205781570198,-0.28208011383748766,1.3017635356015558,0.05425333864415677
1.4879063550383183,-0.5803440855659451,-1.55656150098197,0.9654174519821903,-0.7492078551234798,0.28269336128559597
-0.18116821511867665,-2.074165104516886,-0.8177692022360831,-0.43559580404279913,2.2498299785777496,0.4124670439800009
-6.010599409678493,0.40589111809626127,0.18139094201029551,0.7679667926004418,0.41787376885197564,-0.6826505345224493
-4.417687199480285,0.15721205897723858,0.15480559001177452,0.8902273486606456,0.07924961072153697,-1.0908698999473894
-3.0990340049484884,-0.8503585327579533,-0.7114115007894574,0.036535492595652835,0.8068416872594264,-0.35965531592698363
-1.3566556861790897,0.7984082842638666,-1.227601827293211,-0.14207112099992097,0.02763027228331061,0.22793207914270286
-4.108413919992978,-0.8852604861713339,0.5779117823404594,-0.08009926323938443,1.0306238304479258,-0.13543140464347833
0.32448862674002704,0.23395518405047153,-0.3514021956359569,1.4291579666751588,0.9240273406352073,-0.049611158156123825
0.6716467436417505,-0.3734009692804253,-0.3809808186370096,0.5344480971137978,-0.7977248398528571,0.3104049754388573
-0.45322554092511413,-0.3355554072715933,0.825993929475643,-0.5969691035852636,0.7938640405484529,0.5709340216983103
-4.060737801814409,1.666718456668475,0.3754294173342525,-0.3204043792863179,0.5804554418158554,-0.4912767291388056
3.6314463813003672,-2.135481054157501,-0.020961049142271287,0.040199755077543864,-2.0154944709544083,1.281417778415436
-0.24902611913908146,-1.4626749943684993,-0.2946657088401387,-0.030585530243920633,-1.307844547970054,1.515331447534465
-2.8218857133271995,-0.00968888523149658,-0.006098076880932224,0.6002147739809767,-0.5649252924123533,0.11974366079508064
-0.5150547723412091,-0.5541063343650553,0.22031241866936932,0.6466601964563615,0.6647116418538551,0.5689206404660652
0.1737809310109789,-2.577556697712101,-0.34146785564092497,0.6003374186730495,-1.4607138761086087,0.765770567858975
-1.7652817996399597,-1.7450213646752233,-0.027962797766052643,-0.21985077361879166,-1.0874601662162584,-0.04287885165081113
0.2508526570973442,-0.48186639076472326,0.11504097834102894,0.4590314687574344,-0.2290543926238941,0.1688772478958016
-2.727635499613268,0.029100874052663296,-0.8341799681612752,0.16544047609138937,0.06298103759437412,-0.19984322552305164
-1.4708711434706911,-1.5055840135921066,-0.6269690736994296,0.8813558240141458,-1.3211655275533916,0.14147326235188487
-1.040080064239884,-0.6422663425709356,0.18649844768722046,-0.011612970775430826,0.6226047588556121,0.5193016956437325
1.4083967274839142,-0.15039559026026048,-0.23684124218830727,0.26478660274468624,-0.10659830648286203,0.4235917934003992
0.03581186181557586,-1.5187086247207244,0.1470140842483381,-0.19252042696530045,-0.48538939440731865,0.9552720371956968
