Gx,Gy,Gz,Ax,Ay,Az
0.6950839999999976,0.45463799999999954,-3.392193000000005,70.586,-569.6279999999999,110.68799999999999
0.6936202229663216,6.019846159871536,-2.5745226181147283,-2.492444174309352,-0.44191383635755727,-1.6383192259781911
10.205353370318218,19.394913947339035,-1.2739402862141374,-1.5993796839628096,1.4927910384278629,4.979522595178937
-0.6425637462719707,2.3513984542403463,-2.493881344082731,0.1990325921002852,0.2972859933581537,3.020375456007052
-11.46225581954213,14.700395717425323,-3.3835534546689914,-1.7884096887435736,0.08606107835276172,5.8681989885121375
1.2334521131462117,-13.353291976878355,-4.717549327475875,-1.6098857093804937,-0.1386769077839499,1.4701467452765187
16.155711987573074,-57.53566152814242,84.26369103635571,-4.807003101717622,-2.553980077312703,5.562663537542445
9.335141889545044,-5.414042105467821,7.549545559602647,-1.0908116894295679,0.29541405743611526,4.868468881533129
11.0778449849397,-21.005923587027095,3.5203323440842054,-1.0027060009177156,-0.04664987684490485,2.5714897544205466
-6.725146540493794,-5.452571669116157,10.684457664528791,-2.7455396521555877,4.444570731275755,8.762191970276888
7.593918473818195,-54.589009059850824,14.880356176690771,-5.0938512856081015,-1.9648027587390313,10.238182009559896
9.717869498956187,26.705670882507587,3.8821434298415505,2.5400990523871587,6.645731176155181,13.391751616614401
-45.779735561025234,-44.71165093211784,24.145996319110562,0.9969911545802175,-20.927217972969583,-43.13483900446979
-5.510012390815584,-43.983909161187995,21.089649162628582,-3.574313220348016,1.9961841106332407,-10.799317043282645
-2.953747252737214,-8.327426417805118,19.564022270975627,0.6091926845734352,-7.789779173951445,0.08629896293904338
-12.373160841211574,-44.51542042562688,26.443719948397955,-8.182562256538198,2.5582133067822994,-1.7786813633780647
2.399036504401498,-23.209306882497195,25.916791597888412,-5.378465735913003,0.785492797766517,4.7125786872862925
-7.208562133331478,-25.66922246458746,49.498877790518094,-19.280809010633316,4.227754877466177,-1.9551124769001809
4.87487356464743,66.78831982725369,-118.00341473347183,28.687093290359794,-2.9919304429146183,3.26792156133966
4.976320064569584,6.132368999647284,-45.304193343701066,13.075102484686367,-4.142369024724604,7.14222352197744
12.368004631730205,9.053264201958218,8.767761947479151,-5.451423881238952,-0.6259541669881993,1.1163696908393
7.458244178566081,6.810453491181857,-8.7189586013169,6.590992934907517,0.8880739493668983,9.3674102918426
3.463523454833708,-3.1354819208888873,-16.340063395368897,9.146666498607718,0.5883470123093726,5.67120664321003
10.431106267904994,-20.955203724377306,-5.650167842525976,-0.08832597117158536,-4.284058856574359,21.32348491254677
-21.509333800766775,27.96015329443066,-14.84334377170379,4.920358647613648,-7.561622098674402,-19.758815094488135
3.767267665158051,11.3417266835868,-21.905891424112642,12.340622773985295,-5.244677209844852,-5.328088709518767
2.3703649881649484,8.451464834630851,-21.85250343548497,4.377291314895395,-2.9792877713220522,-0.2216200045010317
11.947745669911555,26.521522888057746,-17.015805842756233,17.38092508335908,-5.082952544823451,2.480983190791643
5.588663536787179,-1.3473687514930406,-29.039512271229416,6.740928435443384,-1.7278695702877376,-0.40772800213660376
7.630268177019799,34.42704288727554,-32.79348854697706,29.343178902747578,0.12470043073459763,7.582920153477915
-20.118008871993123,0.2736075345158602,17.42775164492859,-11.790744210764743,5.363967162926788,-6.59972767781205
1.9179103564561437,-5.115392723864176,13.445966425022327,-20.583557364502475,1.1463637310537798,-5.320425372639685
3.7506992915241493,3.22275181219005,-10.080047581883754,4.467181576954504,-5.624834388185131,-3.791928095663745
-14.046525691825668,20.60956799335592,3.3208306708867386,10.044237091394288,-3.169834526192779,-5.410399254238478
-3.525218566654809,3.7435247651409083,-3.0507101183007483,2.214798714886286,-12.042371418278664,-7.592685227833724
11.896921294771396,10.559319455390472,-11.540722116371565,12.927425648614046,-29.64114471001713,-9.008332238944357
7.14610933435853,-1.209404044478472,12.724075166245173,-4.505497256393861,13.1073703132742,5.456760481158113
-6.967193732770178,-9.194004183552696,1.1128075499214873,-12.369912811141043,14.718875480125769,2.535835555305194
0.03452060300268056,1.805118247930154,0.944436932913667,0.8909435449508437,-7.763269100962608,-2.876061040812438
4.943364001028743,-1.5883939147692785,2.092057612856881,-4.545210948894045,-2.7086910661658643,3.4738943750436397
-2.083635071378443,1.879726279365213,6.74146106102768,-7.222409891170808,3.8756144082290547,0.5246948304495129
8.745522037248652,-21.092198758590254,-7.799521663714285,-25.290230456643926,-5.331773586080247,2.020116558323826
-3.022919718610177,7.212871472339961,3.5190401790057235,2.888505395746647,2.3972709129650305,2.9594783891120473
-5.341941477950904,5.537900583942,7.3448190177509645,10.547492789816726,3.015429183591361,-0.3951042180435794
1.377763810606861,-7.533105874825785,2.0891555044175094,-10.258658675458479,-1.1401175969388628,1.711197202758445
3.451151989874065,-4.974398499184806,1.2223385238578501,-4.280085275071339,0.394880079937344,-3.698500894002243
-4.306313180682155,1.468483710604198,-1.2586576835119594,-2.6322371751578513,4.697424694246982,-1.084658778135955
-5.099788650424566,-5.044550370721333,-3.0817047013517067,-13.637883490061938,4.630681736240925,-19.112328941275305
7.766521477927962,2.9559899751955165,-0.38894806421718264,-0.6277780191022031,-3.643464523126619,4.891896608265153
2.4681207907958456,5.880191119845781,-4.138858553933113,-1.458558983707483,-3.5644327227009147,4.665109622461275
2.6179775992683068,-3.7775829244693977,4.19377069600313,-5.585871541992697,-3.048185985361219,-2.459151174619604
0.026343632383040494,-4.596848225834536,3.551053465442968,-8.799910264122563,-2.689529688334635,1.094390626383996
2.916517824933294,4.630385170176085,2.2944104750217074,2.5873028658496993,2.554321223770099,-0.1173269776238256
-11.936870251014165,-6.684956276607444,-0.7089338451652075,0.19671869351197557,8.957800286119504,-6.053968171221516
1.9027917498073914,-0.7193690042751055,0.6406048321038769,-0.6902254622953755,-5.69908910716308,4.336723419393292
11.226757990180282,-0.18830688285787134,-0.04353220294668847,-0.42912001841461667,-6.070378094854035,3.877364149408676
3.3466249214323978,-0.8624974656773001,2.4454260772222893,-0.17450282635369085,-1.7784621467476542,3.1948481708445153
-1.9475887815794544,-6.285279711588098,6.093385333991088,-3.7214145243695755,6.33062857363773,-3.6649401582659933
7.3201137986935505,2.003633990536317,-0.21912291337257842,4.370693984248352,-6.9471310180705474,6.729039664402922
-20.664493526177502,-2.957178956531504,7.05976225671437,-3.157075626075925,18.617205406246025,-12.396018230220463
0.33766201500225723,-4.281406859061403,4.855182807052166,-3.9019696805564585,-1.6892450479681493,0.6297654957007819
-1.1374734662332755,-3.994988115607554,12.150159336389173,-7.234311286152523,-2.33443318541786,3.780415545099503
-2.87568496672104,-3.307124667522948,5.161204514645074,-3.704461601882107,0.805530038974811,-1.738429113715429
3.313988094659551,-2.808554943539052,0.7969089706522934,-3.6132015236647392,1.5309984862990995,-2.2510389244854223
-2.5716039860254023,5.218512675176483,5.734172171331705,-2.638946059259208,-1.1805687948471633,3.6337391143712034
-3.8929274768026083,1.9704721704326325,-8.82419945173842,7.826475031968429,5.3248227587727435,-6.24678671564351
1.2993154878874613,0.8443663803608354,1.0830724185413199,-0.5405110192416169,3.816900627774087,-2.977707705284465
2.34507786813014,1.02230655757861,3.7100414793362892,-3.185728082252119,-1.0273278566710173,2.933840109431709
7.043826281291219,0.08406204659215542,1.4387978917178763,0.20081054435836965,-1.5462179606624638,3.4717257305343994
0.12313129885434004,0.1881725091217885,-0.9910632478199846,-0.22324636083068206,2.559013559361511,-7.912261210913923
11.278134053248927,-0.08879969627149076,5.1011528379470565,-1.8107695316168793,-4.84221040487053,5.679066949060108
-9.437345473393357,3.0042929831363265,-5.807605917824985,2.93219911195013,4.08748925028057,-1.6758613524263015
-3.670620235555603,0.46571878893811486,-3.9297371359625237,1.5300421862419549,-1.127062917309493,2.276468199926156
7.444152220508545,-1.2287565248106116,1.5908786966105677,-3.1876703335064116,-0.5536780639034216,0.44612457894683
0.08754176707254024,1.7619303538132818,-6.1087398431547575,-3.4574615530191863,2.606990785556211,0.7733269540543531
-7.431997412521527,-3.482615598643626,-3.238689658998343,0.5526979633060977,3.289469947386182,-2.0724386454010126
0.8823548782198426,0.14245026095471935,-3.8051405245434196,-5.134876335835996,1.0411499678449736,3.508352896637401
3.458579687433847,2.7428583543555147,-1.4988189119541544,5.3139388526307325,-0.4403045369268,0.44792305909919605
-9.34339201650592,2.391128022410953,3.779236518464778,0.6939994947410546,3.1636472958833384,-1.811389587661817
-1.78267557974668,-1.78320141280596,-3.5278202271952823,-2.006064229961556,2.1116692332903284,-0.61585510726864
3.589939383605879,0.9108563567696935,-1.7541414132364335,-0.705160656512568,-0.5462622656054583,-0.8974813036028629
-9.1345785356329,0.8089937993874645,0.07900430653639906,3.0309789867757693,4.067630286571998,-3.797167643124416
2.6371240302415373,0.519470710510499,-0.172607023507096,-0.11986581094636539,1.3121546005494906,-4.320630743084209
1.7767275494701127,1.5210041451137188,-1.547067727813597,1.0307842539173286,-1.8705121451595499,1.9757740084295121
0.6325552414483036,-0.01819870747158181,-0.5683586194068244,0.8825274240838787,-1.9329981317545015,4.083839571349292
-1.9006527947964469,0.22341853723254038,-0.5882554527065512,-1.0411780491000682,2.3892415542638314,-3.2762053157648823
1.4050384849357247,0.2421907990983182,-2.2226357725258117,0.4478012190808309,1.3536453614856432,-2.1325803106114414
1.497357760834142,-1.58849601134636,1.7203145608409307,1.3671683660414993,-0.6194966921421424,0.1754055197120497
-4.48587611705933,-1.3434684053642376,-1.1227317356572892,-1.14645155726416,0.8674856452295174,0.8174878783430046
-0.06519600363293199,1.762929174259852,-0.12786540016935066,-1.2376635562298552,0.6815935414418594,-2.2887219307561875
-4.561091411358518,1.815672066123229,0.7650527913341493,-0.18093129745969802,1.3830953514259612,3.001760824098544
-2.3454535270363803,-1.0796122344050583,-0.6481360743683859,0.4823217023774065,1.9708777679581744,0.6192859119535599
1.4047905128968352,-0.44716157555100366,-1.4949863329935396,-0.47969937156587306,2.2155818454361573,-2.6449914732671074
-0.09524377522061028,1.277515363734453,-1.2933026372438876,0.5152217718768669,0.7917762457671459,-1.4582458876692226
-4.7471440283235316,-1.8541357559912592,-0.44567214613640993,1.0713856576966692,3.8162061964276637,-2.960751644087049
-0.8967084525791111,-2.3508852763031713,-0.6592559789512682,-0.9526995496977069,0.12195179409933588,-0.28514615259987475
2.040448301427328,0.627781947610508,-0.7800870826024138,0.7727614545646092,-1.522870143766238,2.5302000960302373
-2.903272024823314,-0.7251292835421792,-0.47958357419378705,0.3580419404386516,3.11850348730309,-2.111012474292661
-2.509831157785659,-0.528972169691736,-0.7694565130333363,0.718147161777521,2.4246956130971977,-2.9077826852736983
2.3233292810237898,0.05242767101041937,0.9613784003984296,0.1993965017275063,-0.6049180758234243,-0.29427482450122405
-0.9932927177080253,-0.07146626934845104,-0.1155549571585109,-0.08220019611804681,-0.05035816360445802,3.0247130353979412
-2.3418799404213444,-0.49379706446958094,1.2012934989054709,2.89950986663197,2.7628255444686993,-3.2977311124413102
0.1832661209658603,0.5258515240740118,-3.7017206880487974,0.22147965053891872,0.7939245591916848,1.5654817848769453
0.8912177489443489,0.03688934359746795,1.3864395924032233,-1.0734315669039212,0.14462776457057752,2.045376728801861
0.08819756766330139,-1.4326907767942294,1.6276205099785246,0.8476959801522884,-0.14503000022823542,-0.5912970920095747
0.9224902718651367,1.1939818586110693,-0.3942349169174816,0.6754535775702661,0.552586260325713,-1.5691589806665056
-2.33643137730415,1.6027510410061754,1.749850501343549,0.012672530717845215,0.48323544970477417,0.6479245049576555
-4.776739190507026,-0.7436504181121748,0.33622238582257735,2.5487191558271203,3.114643990238387,-1.4974033227858587
2.6877145737080643,-0.5964452569737146,-1.3304473591126653,0.9473518177994213,-0.4315539921888354,0.48962681985389034
-1.5567808933212361,1.7736377521970481,-0.3676987749414687,-0.5202978895751027,0.5468410634868933,0.6665950825018687
-5.2356772850051065,0.6011336521330253,-0.15895447240941188,1.4242016518317804,2.256913332425237,-0.9289448369717469
-0.4325178082668817,-1.3754367475556266,-1.4973157152258327,1.3035558379551713,1.8925791699583459,-2.4774658117255544
1.3846553894997817,-0.14916880484413045,1.0467453886741496,-0.19985491230888083,-0.39196894453855124,1.5563017919740454
-1.7758210946094162,-1.796962418082875,-0.6078869300369412,0.02132947056256837,0.840254663935683,0.9063715137579053
-0.5190445492472966,0.08919967887561103,-0.39888726527950297,0.18617862853001754,0.22601372611269027,1.0557334514065362
1.7505415609768522,0.13377258883496868,0.40497116177512205,0.8937175960755087,-0.22384980287725365,1.323307667850568
-3.1606851980617945,-1.7111802994033538,0.6059319931547893,-0.0737473932474575,1.0031790194775367,1.2716609344626584
-0.7965705539281618,-1.04221267764974,-1.307986925237584,0.25251135901216604,1.5987204963161046,-1.5701694510302597
1.997070884827032,0.20483445585550297,-0.7560716851662935,-0.31862582514813775,0.11850904503417005,-0.2820774462210106
-1.7584996290880732,-0.1367432042289053,-0.25845432405491076,0.30166727281089223,0.16715258501861718,0.38644775021806343
-0.6750562357827465,0.30824650000245674,0.8691870212431942,0.3645581170647188,0.20408991477507088,1.3373214696227995
0.17352192715466686,1.202252364695114,-1.8746235247123746,0.5815302153380283,0.4943821317441654,0.21218565623762442
-1.102051401199363,-0.34533254765027743,-0.06308209930434863,0.3821058137978598,0.4995661354728005,0.651321257496691
-1.1960603153724652,0.1894372258134906,-1.4799044080245294,1.2519638219385627,0.9077312562446535,-0.41561631322526804
-1.2036194035757874,0.02301372861584794,0.11372174210349134,-0.23762082773778379,1.7406331940060187,-1.0583372198847858
-2.337896800525361,-1.786742588112467,-0.5654736683117512,0.919677303576897,0.6620340677026594,0.009381730840449415
-0.3810498335188427,1.0810370629538533,-1.0992434411312242,1.828939881766098,0.6330367040959496,0.8833874778741343
2.1867744679201824,-0.5886870740165391,-0.9872399202810549,-0.6454255827567494,-0.5989857140062262,0.9491852906217061
-1.2141867377250415,-1.2302889083684967,-0.7467028942310717,0.5769782806863256,0.23212990675650005,0.3719345396844965
-1.0029545817228573,-0.550277522451709,-0.16769492147018,0.2058807135409773,0.8261454288873045,1.0355583877223307
0.4205793563557889,-0.6999794736706012,-1.329011807245276,0.6041181196902127,1.1908618893307965,-0.9752636934291262
0.4235406351493832,0.3473018167983162,-0.07881371434023086,-0.0946264900624958,0.28598051051825735,0.10575386547699439
-1.1580665394933929,-0.7993166318929118,-0.008601843350630328,0.3402134762298039,0.06874034634337442,2.708016132650788
-1.7985972314988476,0.30447450080999106,0.17535354355662902,-0.4683112634976949,0.4351136040774635,0.2753981085386414
-0.9707361358207928,-0.8870470955841561,-0.07576169372476328,-0.04044982284193982,1.2541201045140506,-1.0002581351567235
0.03257040495204566,-0.4870652409115006,-0.3674655502490281,0.3134739378860275,0.903846687896585,0.3534360431219374
-2.453515806654309,1.1726280971899459,-0.19654596308121908,0.5755558005067419,1.3585684454198428,0.5118127402921205
0.7829532317100651,0.5940812407307582,-0.9197741152301862,0.8589374127824236,0.715225876878265,0.09169380507710789
-1.0888087563945072,0.7917257054587397,1.30231054339373,-0.7390660642185448,0.6666338016798493,-0.010174874360834307
