Gx,Gy,Gz,Ax,Ay,Az
-1.6567460000000016,11.929675999999999,3.2209960000000004,70.74600000000001,-502.658,18.902
-3.0668379946984903,10.484496173806011,1.2859316882173333,0.7698954525778188,0.6976332892489938,3.762497135447272
5.988177126519431,11.732144214823125,0.8149109469965983,1.6088860504691,0.9409402840495531,0.5090594052291981
-1.2352148989336027,8.60992456388356,-0.7423341662302687,1.1518650873611638,1.4935063564469029,-1.7479017103659986
0.3147516181704573,22.14470494156231,-1.699765161724018,-0.9570323887575782,0.7561092358538228,-1.2283252178343065
-8.176616731865689,155.74967933190925,-89.87577556327071,3.791845912126956,4.0798425095144095,1.3860752621285601
17.529346746211505,-14.528547716716695,9.026739591339362,-2.2310681793830187,0.04893023564448512,0.4076494126977362
0.7072601993938505,-8.507043535852965,3.001220617649178,0.40129855645553153,1.9292735310724414,-4.430553657766186
-4.748210925828288,9.215902248961234,4.5713451286226885,-0.7008702192755085,5.184937133660467,-3.629823240851882
1.7112016678226598,-8.525506159152654,8.198562302658022,-1.4304793806688398,15.495236179243268,-7.556865312757386
29.400025396118348,-22.52530772250287,8.502577279679803,3.2402881124285177,76.53756397456328,-50.97380911504497
-6.147841314354023,13.339934180305452,2.876763086007027,-3.0326787506537842,-12.875340660718907,12.062823582941625
-2.508988944369368,-12.154647552657815,0.40054623907209475,-1.8703207673745146,-4.936260944321575,3.782999113162351
2.7994288616518266,-13.357965072801063,6.356497576034004,-0.1654504925244702,-3.506170441370821,3.94664240977498
-0.9140553527305997,4.319790529411806,8.479043736144934,-0.19049745703776155,3.868575183006236,2.6780737974386213
-16.484231574038596,-0.2957335530993541,43.3245984138415,-0.9770122910578931,3.998577989886103,1.881567544916706
4.286669351893081,4.413825827879571,-19.192675715499828,1.5700437735275756,-2.2313717307221888,3.5874216980867164
1.538656805654647,-10.77209805522102,-6.913818680195378,-3.7926281109688933,-1.7302840510669166,4.971506184339022
6.509387408098961,3.0934684033288473,0.08738147408158436,1.6868722471466193,-5.310188665093907,2.548235062398361
0.40295783951275466,-1.379106113844216,3.7392369982446354,-1.8085194400314302,-6.434223929571202,4.72320351955863
6.672078043598644,1.658312538498686,2.5946202968163536,0.1557040151355813,-19.17309714556162,17.63170478467778
-7.213761914093837,-1.493329949976423,-9.644480874864914,0.569514123484991,8.56149468080833,-9.68571908694513
-9.6811257027706,-0.4029953922200802,-4.51783988478146,2.437220340027451,3.326451037395795,-4.317689060643247
-2.5543665479263473,9.722795386659453,-4.19242530210207,2.7354791567226036,1.5330237147431989,-2.215832172914082
-3.1455170967216333,21.771863439555517,-1.0776452786386417,5.871934805084032,1.9561483826065995,-0.3078173832715211
3.4347707360390087,34.70011630215306,-9.202773213960217,4.806107578836464,1.682639080154806,2.5188170222490736
0.36786305663994145,-37.97680694784933,9.312480708114165,-4.932826795646243,-1.3778867717482601,-4.316832170228904
-0.6588909371943066,-17.01846349065428,0.9587273284994335,-7.453660239690469,-0.3619695125636593,-3.996953294353592
1.8068751568380548,-9.328221967665321,0.9542485322151071,-0.4012570945199104,-1.909587865391762,-3.7346339144984713
-3.836840315026852,-5.310376965688089,-0.34170145884127745,3.651992544175299,-1.7897591789642324,-6.938209920537227
-20.7806174497729,-11.416480306949541,-4.858760804444351,-7.414780306141676,6.268865573987187,-3.0791841113371947
10.107089421178923,7.366370407688308,6.160541773335756,3.459601731610817,-6.231716589548641,-2.5180221525620987
-0.7637557869504656,8.80106317181376,2.8985627646682204,6.149099643325868,-1.3217896080286071,3.7055649871956
1.463972063771612,-0.9793547482093697,4.7531646982534355,3.2158565737434994,-3.6487666708650117,-0.4173684950723242
0.27577227576128316,-17.683515743631794,2.838613096066691,-6.707534381011661,0.21646503482950963,1.0468857868909043
5.517985055058115,-14.704767055523355,4.129123965813607,-0.998823635764629,-3.6483717523277113,-1.9535051894464084
0.8677487698508856,14.653946736002851,-1.0733750563487607,-3.0460494139566903,0.14899798657988583,-0.5753759765037646
-5.568754822595446,9.587140768443117,-3.8293336805965184,7.3029459768623175,5.144926327143729,-0.09453346414201891
1.5266968168209332,1.6298023683290914,1.0443054854499638,-1.1946537324616213,1.1096326522091484,-0.9033048433686606
-6.491960388967444,7.877360826073346,-0.6558218478016022,1.0178457551097781,-2.181409567585992,0.2286547834764907
-11.646438089166136,6.8768646172289145,0.3926816589292539,7.309097226844064,-1.102104048413751,-6.205870345716053
16.184175896765876,-3.2125852462365776,-0.5479221364198228,-9.678226981912564,5.626583943517527,17.724564236367787
2.546089808713802,-2.467179175048276,1.4674661036115406,-5.329879525198175,-0.2049376323330101,-2.5556560315538137
6.603177074048769,2.3073315015384726,1.619406198965339,-0.5835888203842206,-2.753378179035115,3.028158762576888
5.09233653408249,6.428228965690329,2.842788576590939,3.515633727157243,-0.04387971411406821,0.5341423624631969
-0.38943082755133873,-3.184614417943842,4.553880647619978,-3.2949863246082662,1.478801121242895,0.5316304163086683
0.6481235057467319,-2.1673237880022356,-12.62857943047832,8.12467826004622,-1.3404533985553815,1.0859047673349624
-3.0405115187013565,-6.590897731983459,-2.6166952891226614,-8.910203796079973,-1.339321562659728,-0.02862459830370767
3.732075191105028,2.7428263979367493,-4.022494249650841,4.164019864647983,-0.06610976359506537,1.0903111472688716
5.697467363343607,-2.78640207208835,-1.8487233219488153,-5.256948796915854,0.1689069948528117,-0.3388900934302146
-3.0277927922929377,-1.1817998424644411,-4.665141818243928,-2.742522148589515,6.424979600015903,-0.20704534565143295
3.6344877870869494,-3.491696484565582,3.513367381683495,6.293970904526741,-13.155321580001248,-8.07898309621438
-0.5192617518401161,3.9398481660199205,-0.577460603447703,4.155612151255186,0.5048118587832302,-0.5059920903807158
1.9310531745649553,-5.363948487484651,-3.84376373284229,-2.5946084032146928,2.502916493944048,-0.9090824071303893
-5.7122684575432885,-2.2320830005746037,-0.9598450656527288,-1.634655092936737,2.9564727941288425,-4.554172582629928
-0.29374435591771064,1.9924849410417838,-2.7906432081243002,1.4703396726533873,-0.601005357345124,0.22486686918215604
3.6222881792991304,-3.5066257671744046,8.96323874399522,-1.0450720057490162,-1.854668649875744,1.865498309724103
4.374232233914879,5.6139020329828515,-0.6239985413966774,3.735730533322431,-0.12177503278015855,0.7346517753348258
-4.354504241597061,-1.8820384969678112,0.5066477322990353,-2.5776227512754026,0.2879725848478706,-1.6885051851524742
-6.757282932342125,2.5672252213131026,0.4853589979261632,1.928480084408025,-2.552901528501909,-0.26822635287595065
-1.4364764543160526,-0.9943145929178527,-2.738548471626559,-0.11828718550072459,1.6166180284891993,3.23236503314673
10.587948009216564,2.885245822435827,1.5521825107627172,0.22979468746446807,9.369424593958325,3.0345309345328237
-0.9391178429595302,-2.468750621474161,-2.1703520619443135,-1.5042590654704777,0.2612544646289542,0.7494614055711122
-3.34262945654218,-0.06828660840226908,2.797443492385933,1.115669857994185,-3.8099637183054114,-0.22907025843568873
-1.3764135507840782,2.0303773089025587,-1.0986514725008778,-1.1393016404108494,-0.87567507065656,3.1432681439175822
3.804489245192256,-1.85211872546589,1.7428683117036945,0.9672680844468204,-0.33219413207155174,-2.0568513158769077
1.5496153537862205,-2.221513520933609,-4.420562529380018,-2.5619843146860006,-1.324099773092559,-3.2179690298627186
0.20831704096684267,-4.388967516171947,0.36360798809017325,-1.1436187574997176,-0.7751292416468878,-1.073873217341081
2.0724894728184022,2.098382773746928,-0.6978730368400304,2.170530367890361,-0.16169336398557455,1.1225632169607547
3.6436414735136355,0.42634181672105265,1.1421318666010496,-1.2471019105434187,-0.892562709392128,1.0924265059504674
-4.240073131589866,2.0997022955928966,-1.2028183838339266,-0.13601028716934538,-0.6037512086422905,-2.07021943941793
-11.944983811162611,-0.9849861359920752,-3.141489611376333,-0.5905907479638746,-2.3414184120712456,-3.366878147932928
1.0359278915623327,-0.5456845166380582,-0.021599146132566,-0.7281743777047032,-0.41114966326649593,1.9591849200707694
4.93679903213953,-0.737292509647797,-1.1700281830284769,0.20620123631787024,1.7348240298884372,1.7213168684670923
3.36762575044549,-2.519872169851993,-0.28079753306042954,0.30715820368664337,-0.44527159933744676,-0.9101611007961582
-2.8213016213190634,0.591322230573755,-0.6976662159766289,-0.6880151686557511,2.063174291889613,0.6881360352608792
-7.054137313928667,3.2179876696044505,1.1433135407914792,0.4427113760240735,1.0861837749792096,2.1762630980511175
2.3121533491462465,2.3382794217684704,-1.346222017169166,-0.06704385380382338,-0.13267849356638395,1.6996417071450485
4.031307172767345,-3.065756998634211,-0.07265954234737615,-0.47218255812023213,-0.6530864216944716,0.18706342345267024
3.0867308162363285,0.5990094217440123,0.5712686562062164,1.4035948452576579,-0.24479103460584678,-0.8644663699758923
3.052659563392152,-0.7135927809508554,0.4256639657298999,-0.6277778830715242,-0.6737048196940181,3.3090097767094524
-0.5754074773657629,-1.1078909678270548,-1.1175306166868517,0.6467789322474522,-1.8049262177542493,3.22114003311376
7.850989499999998,1.243710499999999,-0.8149409999999986,-0.5790000000000004,1.1560000000000032,-2.0109999999999997
-2.889562833113572,-0.8479411962905998,1.529854790114988,0.13665316957262647,0.8016413241524827,-2.727713370463097
-0.5884048139106403,1.8539922712720216,-0.8294775998287298,-1.1249326387197174,1.4294961375965443,0.16727576033293612
5.505045999060531,-1.8705598557046588,-0.09991284137101142,1.7782937324639922,-2.695141105907568,-0.06313436746278511
7.247826052167729,-0.7510859764469661,0.06767652733000418,1.696301871082569,-1.9272697626764925,0.39950764885699885
-1.7622312553874864,-1.110637104818962,0.166735757319885,-0.680858325402983,1.9541255070759456,-1.2420671859105266
-0.5362580459683985,0.6480290659853628,-1.1221640204465357,-1.2841500959973793,3.127796009060879,-2.5410005391658306
-1.6730908963475308,-3.61618406417907,-2.1412885000780406,-1.1919123143566832,0.6549986439506696,-1.1507632739194789
4.996499429927019,-1.003520813928715,-0.17689127345469674,-0.9815645986038928,-0.5160783823606625,-2.1040030409229415
12.00821352648632,-0.17602890448734088,2.453973799493201,-0.3693909403584499,-1.7289964165970757,-0.724413969495567
-19.401099657943483,-0.5279642757457157,-0.884922206744027,0.20516701209649185,3.0724504609096353,0.19798140728607794
-0.6109326514351114,1.1785714078871081,-0.7301362548702234,0.28657826160043853,-0.9293389321143332,2.0478414183902407
0.8368306731287551,-0.5753152454771779,-0.8146899057487442,-0.32323438677940103,-1.5062424968469266,0.12210907513487923
-0.08410054181551008,1.3978115392890382,-1.046411531478817,-0.5719359853231047,0.771449841226439,-0.5337366234543433
-3.520093029835164,-1.904430713496867,-0.25780055856240236,-1.1139231257803672,2.0433645882590348,0.33292548054265575
-2.31236617912354,2.6026283479820425,-2.389524391171229,0.3828443636512141,-3.4177596466202225,2.248730576487194
-5.427560646211294,0.8865256954493667,0.5277547777805899,1.1079924722911385,-2.3213055667582143,1.3501344375279025
-3.1462726430229235,3.6869679969049742,0.974954503469003,0.2703061774157569,-0.19157396666427884,1.3328163297555797
-6.932750122988319,-0.15416519265506579,-0.2569620959818387,0.9177126971690333,2.0639786767188193,-0.015258930051614217
-3.0686591659328206,-0.7431615897783075,-1.2997100719823957,0.1079794644432143,2.018492877620142,-1.137132576620583
18.807147070787764,-2.3407887575339776,0.44432526486177093,-0.44384829785014346,-11.266146788257535,2.988777537959168
5.330585839392127,-1.4944072232885341,-0.07765113077574393,-0.6248205717219091,1.1722013428074831,-1.5718735099248922
1.541264090951689,-0.8982260639258176,-0.4428932829432948,-0.051198180428568496,0.9377842173762263,-0.020348823588113962
1.131010259293699,-0.06988316712126208,1.3173598953502186,-0.023202910262976273,0.18278747642353532,-0.29036059596938174
-0.5178660292106412,2.1085002907710724,-0.42129031969544567,0.25719029999131005,-1.2991434290257509,0.21881024874221136
11.991052543454922,-4.328385654377944,0.24534468111344127,0.032842129846216706,1.0681718841833527,-0.7685167098819798
4.811405885202074,-1.7624981267307425,0.8974862372507769,0.18079071980544548,-0.2607252504338984,-0.28035998399453554
2.93165261948986,-1.6637803883283624,-0.9881869704404161,-0.3029156182035827,-0.0330083102470895,-0.766422240174503
2.9692756684657535,0.2671146206039612,0.7300819068360627,-0.4654751040034322,-2.1819440419022387,1.2919443407644189
-5.985014474787575,0.41550433588924157,0.002079129988948436,-0.14507723115684254,1.6170508992033186,0.1274839920280172
-1.3013941295253573,0.23464170109034255,-0.12759041043609887,0.731993499292149,13.141213865566982,-4.909578079000617
-8.61275569165881,-0.21114902225042642,-0.9840193682736444,-0.23037421275560577,-0.6520862218251591,1.1867294978740586
-0.8400579345923198,0.37565523124003386,-0.004950435203150028,0.6957701553764712,-1.2568068293720245,0.2859484689480736
-1.9388916096303774,-0.13992743371230576,-1.6925155964143814,0.09817386955390309,0.08628453322628193,0.15444869068182943
0.6226839140247544,0.03766245311547753,-0.6952808068084235,0.0021556222885391607,0.9702717742687496,0.13147826284203973
-11.868549285441798,2.3473263793913226,2.1151802729987974,0.07735759670903289,3.662890661542984,-0.6989943814330255
-0.37298222304441264,0.7890159546267304,-1.5535251409349353,0.049903838695667835,0.8261637299948892,0.288647374528495
-1.2784898132916909,-0.10940739012624978,-0.8079661939292785,0.26431765777013866,-1.2711995573394925,0.40430664495197366
1.0319534590128168,-0.6219846369423777,-0.723153104493884,-0.4250017067962695,-0.009770603880461692,-0.8576293564860562
6.308361161377273,-1.419689481581944,-0.12092954858262883,0.3179325590075276,-5.4491296583376005,1.2718843847774115
-11.723714221354848,0.19850185260392866,-1.0494941571299496,-1.1977311911418012,-6.732683235861243,2.6521956092424217
