Gx,Gy,Gz,Ax,Ay,Az
-12.093404000000001,26.062554000000002,-1.2078650000000022,-2.2859999999999996,-498.682,-52.658
0.9980348498171563,38.86995708290119,4.076207011984437,1.1069239976394574,1.1816089628140898,1.0184200425329928
0.7087268412757309,12.739790357940242,9.776510223879857,0.8391605509494403,1.2743332076192708,0.9448464397755617
-1.6433888204335252,11.033335489318649,3.8242391726091074,1.6497900192187351,1.1241580541348928,1.6104210035144653
-3.1089936276443226,11.341133067995697,6.978343110839582,2.501467842913783,0.498498094598832,2.5214498602040036
11.110901680591132,22.95295321593582,4.875107645051681,11.703585636939705,-1.566450194152546,0.3808555269217188
-0.6615630061544575,3.6458212092427296,-2.3817940150330577,-5.386929739201742,3.7647369288642345,6.423075037431691
6.009189660708387,4.665333287397501,0.47181946506664874,-5.614039152625121,5.338276096886251,4.097171297178962
9.809036036459782,2.420922237844426,2.997447353526397,-3.8011471099146403,1.2479165787199418,5.821298286759162
9.759111404166793,17.94293529820692,5.759201936384239,1.4547396302154083,7.778538606339243,6.864096372729337
7.941062012099659,-21.819471943303263,-6.61467827573769,-2.0459134235425642,-3.031911685692066,24.979797849711744
-4.685153796157431,12.70677102972206,1.903640576476917,0.18870803646237055,4.930872715510649,-26.58122003131379
-3.153754039134582,-9.779469478384026,-4.863566684279166,-4.4342902282369785,-3.8808517804249556,-5.849077651876393
-3.9798663664953966,-3.351002748904911,-2.8756880576011783,-1.416811920271939,3.410944200635132,-0.8493520222393545
-3.4675815026696415,-8.513815193002957,-0.8777077131555789,1.7038179778244031,-5.644866996332832,-0.43809064123165675
-11.429147942681013,-29.243533228259025,1.938929071459881,-15.916615399077628,4.562609753838352,0.09339520631693432
27.262220373108477,75.40806769592439,2.521140468595699,29.309041564395706,-9.863730532085885,1.8968401501544423
-0.9993935917041048,6.741819772211809,10.365364394189351,-5.93891666485722,2.202729934317839,-1.263549240610646
-6.313777616759176,-6.142755431535028,3.894152736668988,-1.9084802575158808,-1.124440799833523,0.2254697835367893
-4.22794760775133,-13.015643949659248,4.3555700753169395,-5.989138850665729,3.2838005141116238,0.7439597585852732
-4.676263444578074,2.011714770894688,0.9228024951860128,-3.0850885294446235,3.382260238377505,5.409198711203817
24.32506956720538,7.169395012083182,6.251440844594372,0.3933324024540306,-5.183623300391078,20.95370918835151
2.7325940103649113,4.746049155503185,2.564562161090785,-0.771957458323024,-1.621268157038425,-2.2034336944622392
-3.5607640620871774,-8.601568975431038,4.027362250863853,-4.7150337441790064,0.3506030055531038,-6.023484746380794
-3.8964892763476695,-8.680584348348848,3.1932706219544746,-6.308361348127482,-0.9440308772774838,-1.8976357481693833
0.8690943992067595,-3.8005233649585266,0.19352249985566533,-2.5569041782014654,2.0811032226465174,-1.2180765530622615
-3.7767584366036866,2.136186873172057,8.10256018142011,1.422527932175771,-0.39027577812468517,-7.898401899566909
1.4902716324069916,4.794364812655406,-7.842609093446262,-2.33691765663686,3.2600049741852457,5.947105388042839
0.09560964991584142,-0.1577134400134686,-2.530303325383672,-2.312880867119204,2.1966553161831897,1.0547438614698275
4.10922060909366,0.27966425582823096,0.9508968747669793,2.590560312071233,1.9633100912569743,2.7357879224190826
4.524861325775348,-4.745779913070882,1.1925785779943028,-1.2942180994889099,3.1273044043266793,0.9751711442096166
1.464356116210389,-9.651702550476244,-1.8762861496385652,-4.558551539386821,10.093184104010048,11.249867127426784
6.200726651959548,0.0019393734100177085,2.5207009009710397,1.0073638020103524,-12.767888069767045,-11.160653608626799
-0.3386074416304422,0.6594753905040593,-3.4689442316289316,-2.2897452513946064,-9.52693045389028,1.3236497387490873
0.24383963232701533,-1.2279773381812216,1.987227392134601,2.255812049036342,-1.040542520256834,1.6621869962022635
1.4551529998867438,-4.101798048380824,0.7762114775498075,0.4355065869770131,-3.102385895456609,3.21067234137792
1.774242980263984,-3.7768250214543615,7.9938106396045026,0.4390432059713108,-2.697556430975268,-0.6973485347683577
6.000152603286297,9.732322642466931,-10.187349826841642,4.0808191146072,4.5918486917326655,-0.32558294820858036
-2.5778331403175923,5.3924983646918285,1.0265691678066973,9.289091914880375,1.0795332844964034,-1.0839114441002744
-3.8284894291766998,-5.016500743903985,3.7884070877013607,-1.0280007327039984,3.854155002370329,0.9361229801271808
-1.8902507435678617,-5.628963808951591,5.905090169678736,-1.385165075556771,1.9072425999181384,-1.1980800045211206
-6.659008292914724,4.665782782791552,-4.8363573234138535,4.019288975023066,7.429058048408045,2.6972772936298526
-5.7174823223170215,-7.698311313371823,2.343065928290727,-2.1707658464556725,-13.514583998986911,4.129572454656721
-4.999317147177418,0.5437833648598698,-2.013945584080051,2.859660809499409,7.2605007663273335,-0.42083248483926017
0.33593064587194443,-2.4305470645041387,2.6732938345501744,4.170967127024973,6.573542862311326,-5.470858281694697
1.5897258657694917,-1.0803242797025598,-0.5587059699795389,2.8071226373400653,-0.7368973771145184,0.6970558949542172
-1.026805380856572,-1.4162072732164104,-4.217270625025467,4.675529011971136,4.8105617735904325,-5.35505229841019
5.809992682539078,6.829762807010969,3.8179405261343646,-5.321360678960024,3.8427895927779083,-3.9527258829231333
-2.452129554456598,1.1857903112757657,-6.6114149642735685,6.905763185749556,-0.19086308165787624,0.46139835038942834
7.670155222715858,-11.065989805926538,3.835766176314447,-2.9049615625143304,0.24188239376716844,2.761133619194722
1.4078604011674616,-1.3895518278162187,2.2901603399194093,-1.8734552367439374,0.6035616073866563,0.053769040607012666
2.5672530585958864,-2.4356118139641962,2.3922467203704465,-1.528039392449305,5.376040469187821,2.3321752860094365
-5.758626795317017,0.5299853550480387,1.7691199108512214,0.055981041880339644,-1.0778638852334996,1.4963392154531063
10.020356498041874,-6.976269466688699,-0.959037425405357,0.4128264923710663,-4.819012007224679,-0.9804929098109723
6.69531345907012,-0.32542206531456475,-1.2285474401943333,1.0101897273669214,-19.000719845178747,0.7683036220684745
2.098233482530329,-0.026000058903047935,1.156759290277124,0.10623549364387835,-4.352868043601504,0.9689582858977326
-4.9832560231683205,-3.9184693775393193,-1.3017603027565645,-3.2918698282232404,-2.5953581719503074,1.2834476323920112
1.0407584500673541,8.351712717562217,-0.8377342761890952,-0.17394168182185843,3.9051172778193433,-1.3484142698658308
-4.019220798566707,-1.8048211351559922,1.8467349167436213,5.379923079086218,-7.044294020575231,-1.8643369359636492
-2.9195671722396046,8.59199593785502,1.3036660148517667,5.470082807591132,3.6404460372612295,-0.1320722626830203
-3.8139145227863365,1.494181458211783,0.7001162317615595,-2.00351982954601,3.8389704925873493,1.1296610051239426
-2.658788631861792,1.9841367621115666,0.17426309897828002,-1.713273142872824,-0.0798398879128787,-2.1721972534667486
3.4658808292852177,-5.45532556718579,-0.7057766193802071,-1.0932320331068373,6.494324069826388,2.8124734573021772
-0.3155714851709055,5.700084528821272,-5.173174316572778,1.7171514279727327,-7.663343490734025,-3.900724272389415
2.028231403643849,-4.521847446888436,0.10769713869483333,-0.7508581913299044,3.1541403778303696,0.5475591906200791
0.5940426213023666,-2.7895212360371175,2.3788623346477444,-0.8150217125089358,8.796818347651376,-1.2482911915655701
-3.145056963279197,-1.375259703227896,-2.063120416490609,0.06869873630605211,2.1652021971654563,1.1111651579566189
2.344459000004556,0.41276533646852875,-0.16833785077154373,-3.8993596262727173,5.202055936895101,-1.1784872284871508
0.6796581084826867,3.556322748041829,-0.11433168896125356,3.9126274671159464,3.082509804992048,-0.7840947346707626
-2.345149183707553,-1.633762304563224,-2.3865755152151253,-1.8055060148515625,-0.6747486041955625,0.7023876004810559
-2.223962151154963,-8.562105456982495,0.7016908516557185,-1.722806032949291,-6.82899012065645,1.468792328932185
-0.6595131837458038,-5.678600832475148,3.557494239378351,-0.6218003207814068,-2.9479358287274144,-1.0667036137726857
0.14039567937695718,2.886178210860649,1.8207735569331782,-0.15089142322357754,-0.43082471944160255,0.8569661115306675
1.6764898259549927,-2.8435578329128646,1.2661181279106883,-1.9128799002657215,1.3326065282192374,1.1731577735302778
-5.9845889830242145,1.5737704866031172,-0.46021834590834504,2.0254484801108066,-1.8491038985775392,-2.1075699712847644
-2.2583774481373364,3.688099546944752,-1.6222955382042648,1.6334787529745338,-4.235974561100311,0.23013694870106882
1.585599312096496,-0.7778687424439725,-0.08011103128180935,-0.2770148073223081,-3.479642756377284,0.30683576812569985
-1.4645866249870396,-2.7529942653385397,1.7533566127244167,-2.077318217184814,-1.4195272375642498,-0.3458666240219152
2.446063169051452,1.0118873115445854,-0.29930673001286545,0.547832276353352,-0.33278097359813597,-0.2695257608074989
-2.1845218570726312,1.549126763752722,-0.9459749790288083,2.0071829028248587,-1.0529348118830126,-2.9019311107102537
-2.0040278055468144,-0.4749493288794573,0.9373167088472947,2.1734293903102486,-1.1814146047171312,-0.6914447241175816
3.227702191220797,4.413754017369024,-0.027221168476733712,2.4915376869598003,1.5945128738361065,-0.5042846914356247
-1.587709177538671,0.6643708416598171,-1.6296077716387145,0.7115081549678808,1.574151025160686,0.2619534671429639
4.344751418635657,-1.1328345185861695,-0.03968054523251957,-1.5768937420106477,2.771215489113186,1.7747674762788037
0.20048349626616302,2.738574352418622,-0.8359118162406489,0.6997511628375175,1.485718263590862,-1.4471881838167804
2.223812755158104,-1.2110880786833063,0.781863081508346,-0.9508078164556543,-0.7784096247625497,1.464565492161005
0.7669903312042885,-3.5512970821210237,2.3908186731424736,-0.6551933125310032,-0.4653647277428361,1.2207656135601288
2.293872656077875,0.959755858418129,0.7586684202135512,0.6631264690492831,1.576700650643796,0.10864348120182135
1.5503374180533414,2.804933370656103,1.3412961408364077,-1.009790776340848,-0.3216715407316207,-0.04522362421551546
3.093108180971906,0.34628317322960966,-0.13545100189354087,0.2474157406148073,1.2769441302793227,0.08069950716967372
-4.483571730371765,1.1219544594045854,0.8856098929941291,1.159041343618673,-2.0092045092963535,-0.8370602059756255
-3.2871761650968114,-3.083623095094072,0.20678928730404827,-1.0798325759238572,-2.489927504367657,1.059195424408447
-1.0678189803388036,-3.608304696565835,0.7166856229901241,-0.6159544250733946,-0.5327765087611782,-1.012812493672646
-2.4394465068543196,0.12150403214248368,-0.2949104220601163,0.4557838783796902,-0.6224330772193212,1.6652330751544362
2.5967810214457008,0.7591896941012677,0.2020615393112503,-0.4235768559158377,1.6708437395686695,1.3003078185603925
-6.924809890418734,2.2940495426746845,-1.0073652979575594,1.538953871134947,0.6149246725960268,-2.4385222966101123
-3.6187090108754227,1.269444905349898,-0.012169761708452007,1.3317281462704087,-1.3165273831319566,-1.6773368583438224
3.6837981296057185,-1.2595748699738398,0.09235426327718402,0.6898823747779386,-2.0597725797288784,1.0338249174377165
-1.6415727670160025,-4.029119086608921,1.2239606098834277,-1.8099928249703003,-0.07204466354239764,0.6856925644812168
4.5278120346065736,0.14145548469587133,-0.3914052061689539,-0.030975135798281817,1.3265602588667886,1.0452259167874844
-1.8962042839312347,3.1399453108273745,0.22468998294692094,1.464013620092672,2.154729675830246,-2.6483511934410227
0.07696626122233236,0.06825992573234833,0.28290304877543504,0.24340315073022256,0.5999593707820201,-0.2669338613301283
-0.007943947851406064,-0.7018211711937415,0.31819696937502656,0.11322898755817273,-0.326792168719427,0.5352168470023984
-0.17340156349539992,-0.45872338525384304,-1.8390170020147902,0.30275877226706704,0.23749000515452623,-0.3914605182193405
0.8981460764402375,-0.8935091995042886,0.7623282372689952,-0.6262398545540062,0.925314432093015,1.1607470572351632
3.879194298189973,1.1406981448142437,-0.2205923175241507,0.6536222773682965,1.0963193183825757,-0.16998487908051885
-0.9551337147576718,-0.44408290232396413,-0.06969348877565978,-0.043926045281063114,-1.0049374638357207,0.5429524893371461
-3.7854118486563255,-3.309286794361373,0.12279346510489787,-1.6532241217233823,-0.6973522361431617,0.7791897501537226
0.39980730839226386,0.2363699291637273,0.4563504251519888,1.2709568582380961,0.40042081252209805,-0.4530602147400319
0.030942062159108552,-0.3882496728864409,0.6139902933830591,-0.9360202186440705,-1.2440962717174764,0.5227634552884095
4.600992583868378,0.4384319427666725,-0.27593522493185774,0.10929708538470084,-0.16840450035170434,1.253692368047489
-3.6471754705217845,0.016891240074809022,0.13860127718358817,-0.15913406024343668,-0.13188846358940431,-1.2017470430955637
-2.685211174271621,0.4166579238598621,-0.1473573531513499,0.40731261721120116,-2.146005846712984,-1.162072937327562
2.1440027557613117,-1.7284193960680048,0.6762353547884116,-0.4812440564958935,-1.7881809807567774,-0.2984252766251375
-3.8776731901617962,0.35998701990017756,0.13582194484886365,-0.06729028615700877,-0.7922596027807279,0.6955073096553483
3.1009775472744208,0.21723801792756042,-0.015106746233784645,-0.007403252901196321,0.5316813199440097,2.1954240481365517
-2.853668059971359,1.3299557347358966,-0.8899595962792868,0.8060522058115849,1.360059328609187,-2.0398113227865378
-0.8674575133671472,0.716809066531526,-0.4488330569322949,0.9320363466909349,0.22224095265759936,-0.45998081049196565
0.1677035298001296,-2.2194148746941416,0.011790364561626892,0.624408655309826,-0.8865439671868384,1.0348759290017848
-2.346295351645051,-1.70247089221375,0.4796560220048664,-0.7036794387332106,0.34519127895087665,-0.9832325964345829
2.4911170437888597,-0.9522938126649875,0.6660903343629914,0.3621495933409517,0.46687705243053496,0.8724621409606006
1.4959626976000886,1.5233578833918409,-0.2393773324478728,0.8411946672433134,2.673393520282689,-0.5042549179566306
-0.051947198645406194,-0.6511628858592794,-0.17522058957292777,0.13797121335206533,0.13568091986951003,0.6251477448238756
-2.008729053240395,-1.4320662215100652,0.1760860019142559,-0.0017273226384480235,0.24538921680396777,0.640426204159074
