Gx,Gy,Gz,Ax,Ay,Az
-4.620741,6.092981000000005,-2.498177999999993,53.16399999999999,-402.66399999999993,83.17599999999999
-1.86364253299253,8.960941232665233,-2.4417369627195167,3.42430918990498,-0.3866655861338381,-0.314362446288415
5.802110367449291,14.326296002926526,-1.8837762134771254,1.8721724818476306,-1.3298408527228318,-3.5944070232803735
5.482722869998067,18.277603219671136,-1.8770648924482332,1.3442592684933528,0.4748687565635281,-1.5757164787130677
15.880797161329674,120.51238163693804,-86.51642283858617,-6.63340161258751,-5.880672839901437,-4.842932744639908
3.1917605625037506,1.048585686086522,10.008668273783018,1.1772640244509236,-0.7862813513656814,-0.7869609392808521
-1.1100538925947567,-3.954905756756373,7.467558191174842,0.15830309184887087,-0.6559216741971505,0.3539553810812264
0.7449062007076941,-2.492417673662267,3.6339002104586697,-0.8584746510082735,3.734398829664539,-4.654355094035731
-21.423067885842045,18.47188220151876,6.2048924949933415,5.051172607849513,45.87893278347637,-54.97396700974471
3.4858876603376032,10.984968361803375,2.6313516006524598,-0.7876021973313554,-3.70303440957577,9.728927015812868
3.553062833417913,12.477967735672847,-2.4948235461900667,2.6908437240445204,1.230442199735581,6.2414003864416365
1.2546139330733324,7.847676776932224,9.246521258469869,-1.1501154757262229,-3.2325668734788584,4.56613614913096
-27.778048505559937,97.78789935336654,66.90819726638645,2.074972738030853,11.409682592499507,6.688097218314626
16.407908588086098,-26.28561466882278,-18.658824465406028,-1.3549058992894323,-6.159129363662539,-0.8873960263559781
7.586013163066667,-16.638611493759107,-9.627553314732351,0.12772505708233378,4.197948841470542,2.4547519150454193
-8.476360071540993,-14.526829679844754,-3.7096419654298565,-4.678422530926362,2.9932329702433473,4.3926895826626415
-20.14097475177582,-11.01202135043386,-7.551766373061369,0.6094396347664581,16.41373299270039,20.370539240765943
15.540716342200843,-11.152190239637665,0.09817834085788713,-4.654162755216133,-2.410457992333865,-6.016370055976614
10.21577423991166,-3.4697911247637383,-3.261308592145087,-2.340599313594602,-0.6622823557430337,0.0019133408800415808
7.7575646074960956,-17.530245341401844,-2.4470686968764688,-2.2576767650172584,-0.2718256113272435,-3.666170385620324
21.81276424106026,-65.37030053936411,-12.920681262516473,-3.9858893097865207,-7.741929469057049,-5.835613593444295
-10.472255787155104,25.769119521343743,9.082307373653519,4.15861667587666,3.515521736150814,0.715494022008358
-5.085530145322105,9.023621149798391,7.017115645624619,0.1273811760157919,-2.628653564182018,-2.1095657426073187
1.3658715891043693,10.931277188222934,-1.1089811167128576,2.033676457017821,2.675125830198165,1.7059858145018616
12.959351663914159,0.745466887238944,6.165311483921419,-14.592966958076058,4.54029521801079,-0.8819810904835057
-15.223464034786955,6.884694019046307,-6.272672353160444,9.924865901934083,-3.1343785638919752,-1.9084023212072796
-9.913995363203771,5.225819698370498,-1.8464945159295825,4.127339212705417,-2.7161220825530683,-2.2010143219022016
-2.003714129189742,7.16063565049453,3.100663294413719,-0.28489973202067276,0.4964655350644409,1.1491262212139333
2.162090894023557,16.63695431195694,-2.4561273374548724,-3.8782937138036573,5.286662309831673,7.441248630556796
5.090300633606731,-15.824502522110567,-4.419829889768345,-3.3147485179453797,-5.25684060668463,-4.038475494690939
1.5874398590150904,-5.878655188232187,-4.925157360187447,0.8443664892401075,1.9770842265678497,-2.014421721486316
-7.123455352751974,-1.891299395074116,-1.481062704097972,0.6269022583167395,1.1999502078983482,-3.826494934624152
2.033929706731623,-5.324038861496953,1.7622468321565492,4.351876625634361,-2.3073315737307003,-6.172765179004062
-1.9296779658863548,2.0719346798701226,-1.0439935771859727,-3.4727621769940624,3.3897672428872268,3.5871851113766864
-4.1263011603599615,-1.1788605541589234,-0.5839881280148507,-3.0871606725767298,2.3539160938583925,-0.42296622112987703
-0.5347354557316576,-8.529821210518206,-0.7658723707489726,-1.4552477295139532,-2.0443732911793897,0.4293453927549451
4.4179441935846375,-0.21947487332279758,-0.8294141986369383,5.585191884729358,-2.270145458798191,1.4418901425127384
-2.971999724175964,9.864746466541158,3.1667272895206096,-1.8985844756433832,-2.8113081462354055,2.034385934224758
3.103934819840042,-0.630899788298967,2.5748803182044626,-0.45257479542638723,-4.0805118489715975,3.293024088636031
0.9006599671536493,4.784984584242629,-4.408826896548145,0.42493603067665764,5.21110572129703,1.0765739840211819
-3.2622557260970106,-1.2231847115947543,-3.122475140741922,-3.6809976480961826,4.547175513303291,-2.4377032151460685
9.088985983781741,-0.6984915013490054,4.3890375378000765,6.138077220772181,-12.78033761878308,3.7769543416273548
2.733567305524142,2.8614625237010896,-0.321644923328349,1.485027019424183,-2.4874132420988806,1.7240304010332548
5.308769326372626,-2.363479731294216,1.8578099409253555,-0.2978068412680984,-0.5314056398078952,-2.5530295736462207
1.1892444538944953,2.2881651981808866,1.3311729766537592,1.8087681371909348,1.2135730464417316,-1.0457904571648515
-6.979795659715903,-0.10671173376276355,-0.3377837843639413,2.982969493752579,3.4605486915777375,-0.3576824420631879
3.8698615141037935,-1.8214526772866426,2.3121849310743037,-1.4871093141609173,-3.970383507263857,0.1442454233833781
0.46230784180221984,1.891398745771365,-0.6964795623276232,1.0614564116070142,-1.9325675932726047,2.37832493013002
1.0701183461391697,0.8633874088327513,4.239287757126853,0.8198826190510813,-7.97976919627974,2.661847703824864
-6.985926682748571,-4.199696830175655,-4.202997383091459,-5.3312221905255965,15.884054212224944,-7.679411370001452
-2.3875948800298747,-0.2779127204497517,-0.33579788200287536,1.838390274489129,1.6820624350176991,1.3852066816101738
-4.6483769698808475,0.1977658656303537,1.7334661757542449,-2.4471381838746917,0.8422117482236876,-1.0717385089606213
-1.1691220223474408,0.45570179677034595,-2.3713592251212274,-0.3298274631500451,1.2477284540418283,1.1864400757389768
13.451610471509339,-4.667633823811015,2.0769362642023372,2.3559334205066866,-5.818205483678535,1.929538391751788
1.8985025836084244,0.4380876095188907,0.03736517738405526,2.250819446563074,0.09313726684483942,0.3992555346765497
-1.57357624180353,2.3913820692236265,-1.9165503271053523,-0.28832344612255634,-1.371146526760083,0.07218784999660727
-2.29651820100797,-3.219040740213186,2.465355623837147,-0.5834479075224586,3.4582779238884136,-1.509723201066434
6.162714378152374,4.848965779882335,-3.2074868265197423,1.7704861493047181,-3.2851476418675416,3.4752014883377296
1.3128110430374504,-1.420934694421569,-0.5586741288818828,-1.4815695307362398,1.9540989397205089,-2.901169665606558
1.1519026372941337,0.42422312519570404,-0.05921560453873376,1.2317457966163181,-0.7394108056956827,1.618161854980826
1.0881717854172723,0.7659183892483625,0.07321679647207385,0.252793656982783,0.33998465052107263,-0.43675431775356144
-2.2508745469794995,-0.6032340199686594,-1.818055363273063,-4.962861220714768,2.3963029008409267,-2.2906412721933633
1.3337953357107903,-1.1156645470449018,0.45806287037913157,-0.9485829716410794,-1.24165291907967,0.45489212416973857
0.4062920269120837,-0.807155296976212,-0.15430068128734375,0.8767500103648695,2.1231612363682224,0.5507025156868598
1.1299284191085603,-1.6503131332144443,-0.8905839640519824,0.712274347090109,0.6286600978946234,-0.9560818123465361
-0.14938921733761712,0.4930713812930146,3.54046755852923,0.5826500506838643,-1.394973532138606,-1.3345741005408849
-2.737612094696618,1.9939509644758397,-1.7358522134229273,1.1291247323128655,-0.3043144844018586,2.0018366785600565
0.477621646919131,-2.475584831416813,1.3928568354940278,-0.3455900564480148,-0.4660507277688842,-2.1853952646492414
-0.5163840047749992,-0.5518756470652244,-1.7746362147551256,-0.10819621225160053,-0.8282313115965274,0.6968902845888434
-5.231473053834959,1.2143582038110792,2.089187466304699,-0.8870595554538233,2.298681101974132,0.5710730876047294
-0.29442505689258647,0.16376927107684042,0.1579256773400302,-0.8570243470651655,0.7605740401594874,-1.338568423783184
-0.7935663658655652,-0.6506977731337544,-0.1674970328177934,-0.24523181569742447,-0.748364533298468,-0.27798956339710956
-0.4465923628377113,1.2401294959119882,0.439072733448847,-0.7516669677699361,-0.11942559014963561,1.085640735149766
-2.741338396243701,0.030740696944984047,0.1199873025003102,-0.07756673870599809,-1.2924342517945895,3.6553214969322547
2.1022620800570806,-1.9821487103651152,-0.4365070845491336,0.16311230815480904,-0.42696429081370535,-0.8583521507726963
-0.0403154675447257,0.82185162678313,-0.7262563177188697,0.9214277323151585,-0.1117821155208494,1.013571528395952
2.7424102720401438,-1.51356820012768,0.47917543240294236,-0.08953412946103484,-0.34467951411777314,-0.7018914391523808
9.249216964175595,-2.8400239037584356,-0.38160158959279117,1.7571792602493357,-2.973191495047735,0.36594923751221986
-1.7761892777397665,1.2342567699169475,-0.5621251617440526,0.6043650820888545,1.703865814394275,0.6201223497495334
0.7131566183042417,-0.25021910828553157,-1.3133881807182228,0.20602778703565597,0.3946841904551221,-0.582981392986244
-0.7412127813958923,-0.799761949905414,0.7329605709319734,0.20653017644744506,0.9131329143283559,-0.5187539777535966
4.451226382663048,-2.338116756413188,-0.9449619021046873,-0.5759944899544327,0.4767794290461814,-2.266041811491013
-0.5963294511004111,0.7612374785669381,0.4831476039835541,0.10075554808928473,0.2675174672227571,-0.5996863260845967
-2.232199545127654,-0.07555665933190933,0.9168714240855331,-0.3922385468483176,1.8659785523162635,-0.42660838333170253
-1.0979707721257326,0.06563977747349466,-0.5474206558536358,0.2408969325876728,0.571430433151279,0.7871366739404536
-6.224269779166569,0.3154483953465608,-0.017525113339194653,-0.5309487255299707,2.395644506893295,-0.4984766108057712
2.441201164379528,-0.9760150317785634,1.0529846628050177,-0.5899594323381615,-1.1321949070955146,-0.6680246234036388
0.07879869117956562,-0.3557368465267918,-0.26728575219784356,-0.26409037456382967,0.015240683694898671,-0.0005489148346280448
-0.24453615337271306,0.7093764090054875,-0.03190196530566512,-0.031197408881934743,-1.0062317138716226,0.6236518305026346
-0.18597180901079213,1.8588389983848481,0.31158269665924415,1.5745406847174128,-0.4398227110560503,1.1016982407823908
-1.4833258496025148,-0.8571299617949145,-1.1718745204544985,0.02882605105773267,0.2025390519673465,0.6110592458059898
1.6189498946187277,-1.2205783236943568,0.4420043996468524,0.6853532905747881,-0.8715439506191099,0.18079310764362977
1.2448030740981346,-0.6680159738877467,-0.6411875736692333,-0.6674359810281864,-0.1963912060477114,-0.3242428205619763
-0.7355064256841509,-0.661231781905721,0.6766367452600134,-1.264167069375214,-0.40082309716096454,-0.1565912530484108
-0.5918753929088135,-0.3355367632655081,-1.7339664993455852,1.0329932687039223,0.10989086434794376,0.7414750108896258
-0.6732822124477528,-0.9469363571093993,-0.3001247700347696,-0.09903250456425403,-0.5270537400864618,0.61048051107449
-0.1806936864180134,-1.2254202326912251,0.011562710331831816,0.1477776416787948,1.0358648788967812,-0.7168440463868582
-0.5584444206697645,-2.0547392024178235,-0.8105926068735676,-0.6595951849473016,1.2352015446618743,-1.0577643249037925
2.3786319126162296,0.7468957572529016,0.6502336857110018,-0.28086328454855763,-0.44860931206018967,0.023985057999786064
-0.019427328380667186,-0.3000227212937124,0.16357160698690237,0.04258385534845788,0.37392200052564784,0.27773256199548857
0.749993354348054,0.23236519686648757,-0.634032280441745,0.44197145009774275,0.19139708417672224,-0.10610152355851185
