Gx,Gy,Gz,Ax,Ay,Az
-11.146615,-9.127332999999998,-1.791141,52.956,-410.448,-16.889999999999997
1.6197436250821893,0.9182598533554882,1.9031224040332857,-0.11338818203333188,-0.490638451840952,0.6110915839247943
-6.900073935377316,9.306308991890177,-0.13398386203847568,0.14186689094904414,0.3853064098504611,-1.9169992951235173
-5.991979030190564,6.257045868735509,0.5088049587424643,1.9627470025997202,-0.29815551805640617,-0.6146625762474659
5.193109957265229,98.55684893044184,-17.17089102880168,14.377753487099719,0.16086498735239319,-2.3303547272681366
-3.784151901944749,3.5761817568929026,-0.6373415179734958,-1.6940055382881294,-0.00496170043254357,1.7781625415226354
1.9253436664490615,0.1412178492026004,1.0837788109358657,2.018282249519076,1.5654628119607037,-2.2553635847816444
-8.278480615979342,1.990253494938469,1.6712466723804908,-0.5633958028531523,6.924456404642934,-1.1156857629162404
2.4624593053959973,-40.27818414797092,14.443665602547547,-5.73803846061081,53.252298587589465,-20.881236495898797
2.4577255080263978,8.321284880906274,-4.601038314827943,1.5821540456904928,-5.312373166101439,2.793116262908067
-4.077324297691513,3.2124508637026,1.7112543501448856,0.4435202738063153,-1.2136116088766546,1.1512307527057972
1.6742266213449755,-3.490329738755798,5.606301835324986,1.0683645980403007,2.6054603720171485,-0.21565867736206368
-5.458101992037033,5.519172138233978,38.0688366219707,6.3169059147177515,1.7147393932628217,2.835733399150171
0.5133933070981487,-0.46295517152321786,-10.659404341337023,-5.2759126707484505,1.3494978616354523,0.5355859299722412
2.123284682970389,0.7658071365906238,-3.6359808925915917,2.4384813321406424,-3.4101756010475874,2.6330455166794486
-1.9928060685572473,3.7449369999358058,2.585035026727123,3.0152019769232457,-2.730654606650071,2.2669505814144597
7.654538503220097,-5.378098082110494,-1.077494577409178,-5.892845666568084,-7.28045778101032,12.263179205978481
-5.012109851713561,5.305563124327735,-1.5483874579873576,0.7968024438935979,0.0801983092956145,-3.3891459195107076
-0.7364496301496684,3.0514503678580667,-3.145390699637221,-5.7238662479741365,0.26483643250383326,-1.5413445013333396
1.8277903345005564,0.1596965837429125,-5.226030715305566,-6.849148333463433,-3.9990369109349757,-0.5204510123662961
-2.1658592955367157,9.581196866029103,-13.565248272211818,-17.855530049547255,-3.83494310599668,-4.973221883653705
-2.3051207004211802,-0.1519685841534708,6.082708715960269,11.038991168600774,2.297687771352839,2.24812430296363
-1.4811487977307345,-2.701281783378724,0.25967416886106376,-0.7454566394317048,1.0490489114391437,-2.2848212000319643
-3.647275606912709,-3.7958200164304214,-2.8620889594318513,-2.6771866370144046,-1.6378957019571578,-4.032680172859764
-9.787033519021922,-5.043874477175297,-0.8630985135907956,7.506954131285596,-2.042766819533531,-7.43459275621455
5.271751909528282,-0.4961087110400012,0.5877824705052088,-3.4838095233003794,1.060278204074688,1.3874223989250885
-0.7212190908076718,-5.856408998140198,2.8634437868532134,1.9002296678256196,0.8633944640399625,0.3452261141968527
-2.318770513575652,-3.7069447645110385,2.8036986066803546,-4.261073017192901,0.3624876540121875,0.04956684286427837
-0.8131262965497239,-9.521433083310638,6.023292518315873,-6.777840120191615,2.8673706767818907,-1.4610599163137223
-0.3498349355034289,2.6058782160410168,-4.065595352200129,-0.034312887219977384,-0.7255332677087718,1.508696323079245
2.5978663425908715,1.3877557961012958,1.1738270136878883,0.9674652617025852,0.5375584936517799,0.7743640952801361
3.8484573708436742,-0.13861205168158933,2.8790299162251816,1.016133803232261,1.2460245347293841,3.7747511146821493
4.630675795039499,0.6601101362905908,0.5362106148569517,-2.2046619271723853,2.0575644601509397,2.705992054968438
-2.695243780109682,1.1953895971496378,-1.5614929626142313,2.1074639892128193,-4.146242689158527,-1.0821611505872908
-1.7129406662450857,0.3591342908104873,-2.929423222223737,-0.39730865887369715,-0.03576932096223784,-0.6468224616734515
1.5882343989714545,0.5880951272474302,-4.254082604541152,3.0911157198429193,-1.8263717991340986,0.8369572515335968
-1.0920145859248287,3.395653611243377,-3.5349304629992835,4.4185011731918085,-3.900284122590213,3.1529532238650737
5.408429844801026,-1.4249656830277373,2.3683075619259215,-2.0137507137811386,1.0673494092497278,-3.4542325619448864
0.49627573613987774,-0.7216034282831982,-0.8178777117055227,0.7292230536659057,-4.184117402591963,0.6974761997694524
1.0861362830642618,-2.320836070856736,-1.1766582530515612,0.15058775637391575,-3.632043567250457,-2.4462044266350587
3.319477073523946,-2.680712985755132,1.5256367598520857,3.7167573385112687,-5.267246518881571,1.0822792087834243
-1.5288548933906616,-1.4128179038958502,-0.6269976182614283,-5.274338042161727,7.145670882793683,-0.5447418046563614
1.3596186929730916,-0.43667946070465025,1.4302435077114741,1.8459401588078057,-1.8337248897974423,0.8126033123229948
1.450646316415347,-1.8224130587950496,0.7420612007300849,-4.249126149530452,1.2907906857800506,-1.696385897757488
3.537428757805349,-0.10716939385059365,0.1417269882561748,-1.4287785977101723,1.347692862847829,-0.807454842237313
-6.341367972944685,2.6913375078860575,0.7758016699553512,2.8545426093403234,2.798419321819427,1.988266860304045
3.425758339951369,1.047179966824212,-1.0563994397599195,0.5575398980323552,2.9252864995333647,-1.02933155152536
-1.7831263943916764,1.6337936224651366,-1.275788688656052,-0.04061647622016862,3.472914187240686,0.17494898351532978
1.4928267115293612,-1.2273959441376536,-1.2580182227351604,-0.27627183526976395,1.786232336309074,-0.9130715115375259
-3.2035449776571303,1.407711155669384,1.4786651671084543,1.6033696733257705,-3.006349505898119,2.5979042081863097
-1.2818707014005755,-0.6682133927468468,-0.4526911134611815,0.04862947373684212,1.3190151463243602,-1.0996211019870619
-2.9731999640909863,1.345445640013019,-0.6497444992450936,1.3069266766058272,1.051663450828572,0.7832329710125108
-0.8067544290252692,0.8421272819581356,0.6692506072892621,-0.6923395521360534,-1.5825668427956108,-0.41766257635489
4.9567598571426,-2.292014868880704,-0.5548296026604791,-1.0461137227674406,-1.585774180702973,0.7218712950173863
-1.3989840430755207,-0.43083302075462643,0.8068528479480905,-0.16975787163720346,-1.1787236898400426,0.5841104262510746
1.2788074827033244,0.19984897556800718,1.175529936617106,1.421358050969027,-1.1807645137838918,0.46515550438096365
-0.7114584390422323,0.04466309574792596,0.1776090796362909,0.24798766841665437,-0.3590942326124962,-0.7409240682547018
-0.963849044921339,-4.478945320816552,-0.46376480810786147,-0.08521758806527602,-0.28112749975887974,-0.7529197651762334
-1.2571545503068209,-1.275142578796284,-0.30278581614172506,-0.2806298196097169,0.9111980141866871,0.48251609913093985
0.8169185720361904,-2.4340159143816926,-0.8733904224414768,0.2484324184033313,-0.1039483968201888,0.796752675989672
-2.148102997615319,-0.2268193395855702,-0.4175113806071451,0.19062386769665324,1.0442152815857724,-0.11989684620286539
0.9681546882825662,2.796391483329691,0.7355418334714986,0.2752942985423179,-1.6258426732949565,-1.3463691022964106
-1.010776605714335,-0.2127615042714599,-0.35645968903944836,0.9048754251785699,-0.11183137129021459,-0.026066325240583277
1.4759049036264102,0.07630812782398766,-0.4046519195967564,-0.1285066507111444,-1.099983132630133,-0.0318956293865848
0.7531008942359128,-0.3780575707459086,0.15067379854218887,-0.23673255331330678,0.25161847508670876,0.9096465125723282
2.100703680883778,0.498300999531327,-1.0273193876290738,-1.1532676983673738,1.905112812638993,0.3149625265184949
0.19312173017129103,0.8361536583610605,0.4086562533390311,0.05032434197800306,0.04948371356764625,0.4227634484592824
0.45279712796040406,0.6388934702371831,-0.36072856721307867,-0.5170164566282534,-0.6022173149702154,-0.4503265444000467
2.104087241001718,-0.8706087179216312,-0.13003774675346833,-0.7060053267099056,0.2612736385221787,0.4469210069550649
0.09179016301653986,-1.4460008690921093,-0.37734364870124915,0.8815839007087675,1.3055117950123796,-0.6717920374035953
0.8788956471690073,-0.8537654029556293,-0.6736117746727848,-0.5307015468585571,-0.09377796675419992,0.030086423296856422
-0.443709939063479,-0.5613897135772898,-0.32056825727960675,-0.01412129611571905,0.3267097724378709,-0.6530686730501502
0.825222784722351,-0.08517708869688023,0.13140508574048415,0.46503037384958157,-0.453096934334975,-0.06784923312991432
-2.199659423977605,-0.6993102183647744,0.21660566912157397,0.18194263188015955,-0.5700811934812562,-0.12649329597618353
0.9120922080793643,0.09905608790889686,0.13495643435355786,-0.35015502398311293,-0.08540558102410628,0.09535633229690382
-1.8991470361399347,-0.8822001778848487,0.3701299988500379,-0.01335977547302486,0.7533898584580203,-0.12613222112027334
-1.8995886985781236,0.7238954923444556,-0.07218110294646063,0.281901823427122,0.8081656056485179,0.03278020719388702
-3.201106584016417,0.7250767324169529,0.3622545453787302,-0.48385261074042285,0.24797707467935126,0.29095707167554063
-0.15825461712484656,0.5870785475650215,-0.0602237594386037,0.5002379644092494,0.21576936642528466,0.08310592742801706
-1.0341139934118966,0.20963953742887048,-0.23961783422323962,-0.18607356175968992,1.153883899956585,0.034413898060528914
-1.0921975180943673,-0.5895551013078323,-0.25377825110951147,-0.857309460320645,-0.5337770131381498,0.09996239756991793
-0.13958449158871566,0.24568446293881963,-0.07585271469765348,-0.1130139194857479,-0.23657417831730998,0.46399716811174163
-0.4836481707534007,-0.6209460017740323,0.3296719864219996,-0.515797417131705,0.4779129230469099,-0.4364287484368742
0.7033180222970401,-0.09385162225822077,0.31680490799949157,0.323857637554923,0.03254474234999169,0.4103117992159866
1.34816252145824,-0.6540185153621962,-0.635828803676857,0.21995877669987218,-1.5557406182380273,0.3225766456513324
3.1382023818282603,-0.15329253353968464,0.2974820165184524,0.8673969099935673,-0.8262518852091578,0.5663492909009088
-0.504544764945106,0.5106074508840064,0.022493168215559467,-0.597170607188864,0.382980954794961,-0.11436470293628137
1.8509759055802821,-0.11684001370277103,-0.0664504879389537,0.6050957968818999,-0.6672973806638166,0.31545861413498166
1.69756895529689,0.5727807757602064,-0.007823541472264411,0.9161978390141912,1.1370679830993673,-0.30484401429754365
1.4411507276497384,-0.7005040530091465,-0.7494270204793698,0.1283304555535461,-0.4122690421196984,0.07127312865320232
-1.6314860336521668,0.02547434812632904,-0.42152823905341,0.5878711503023739,0.05049219992319584,0.26580819075668616
0.4253470532947954,0.11258300496406037,-0.14118042931107633,-0.26989634525075007,0.6441672630943673,0.00547143047521248
0.3496280642071018,-0.5092496055520811,0.3717096557118927,-0.753008073405156,0.5909888867954749,-0.24254440771069907
-0.08845819006746108,0.05410796681861613,0.03211196181896836,-0.9518457804627136,0.3187130335622663,-0.09119042061684846
0.10825853728643053,0.33810980703222776,0.25288470639196386,0.5056046835757555,-0.19246965401887228,0.1248655817352046
-1.6842485069805695,-0.41585809282695974,-0.004804974361115488,-0.7642566667457651,0.22521176745342253,0.08771766952068005
-0.582785664943987,-0.8238508102411073,0.08605993452732935,-0.6211788232483605,-0.6484374004087566,-0.19206337470400048
-1.5954133630190175,-0.6554748230036892,0.27251705099339796,-0.32381248746727975,0.030299217110322907,-0.17438320715630937
1.9942014515309165,-0.923078220093817,0.019258679686461444,-0.41340140575248313,-0.20209104788512922,0.06158376609237342
-1.398563941188473,-0.47567976042831717,-0.1634402614796922,0.3474764980366989,-0.3973194666113766,-0.12889994847401276
-1.1895045734788654,0.2694311253628885,0.0927582360877437,0.9161424332635609,-0.08218168547736987,-0.11937390794841081
