Gx,Gy,Gz,Ax,Ay,Az
-2.6897070000000003,1.039398000000001,-4.501093000000003,41.496,-445.004,20.387999999999998
-0.024632830367087077,4.365105464973837,-5.061549756328176,1.7008499405018425,2.864914455920303,0.9993166406551403
3.906412804769129,11.877140051447194,-8.430468786764216,0.5123525713276526,2.6398784712908867,0.4334407695637048
9.180628496625404,17.249687501259206,-4.510024714676162,1.8323589736127253,2.7149691672176135,0.0702515536995052
20.585299388341078,23.83684594850442,-30.488897952697194,10.731183864428274,1.8562934099785744,3.163133193882859
11.18519993117059,19.738079767542146,7.4530754569202005,-6.491476377620514,5.53952053302799,0.11525421775634337
8.718317977720647,-2.4703754192266,0.06473432830133019,-6.290993034680795,7.499859887708201,1.740550392355978
13.080898117490143,-2.138882083808834,-1.0277992185101865,-3.9258582642938755,11.845225157705626,3.241908177316978
39.9073089181535,9.4780363032784,3.027695745695137,-5.922349588810482,37.312554776117686,10.142491961210839
-36.965468178518215,-15.67054886857393,-7.386061178093685,3.1562676455173686,-31.57102010770267,-12.55722403729887
-9.567193706602545,-12.528335409097046,-3.7883669553171764,0.9214432151906818,-9.589952340120819,-2.5610813639364123
-2.058398458466426,-9.94661571369355,-7.630753983147081,-1.6847539550056911,-2.3557002830404032,-2.957038268677358
6.050452463162995,-15.331254872957485,-18.52432055087815,-0.8984840272440259,-5.229402234445174,-3.0226875553375496
-30.4375180870143,14.961853554587204,50.892794975206876,6.258457832295788,-0.9122254104632497,-0.24472812899145296
-4.075149470882681,-8.43082640009729,11.919343002238833,-1.3670981898214412,-4.188011542298717,0.2974030671967154
-3.6207742996361354,7.049189266439564,6.152470998755291,1.4210940273659967,-7.094542603509257,-0.5213827814621828
-3.834138167637975,-0.7451890372283438,7.406219467071487,-1.4216688974609861,0.7425234804660139,-1.602528395403922
-9.60252076729116,-10.042028847212407,22.35325796693743,-3.002479968516577,-2.667328963037906,19.521909138113813
-0.6302231758537182,3.2432037453210434,2.011611875977308,-0.12536372241755678,-2.335811579274654,-0.9214285325268597
-1.8235980586590514,-2.4454580640621,0.9604144731662854,-1.8120163106538065,-2.1384684233728404,-1.5630547948068196
-0.7781278631875708,1.6834969147321197,3.0550404546270293,-0.9793579359090021,-0.07835764809049195,-1.7403735651485208
-0.9114030755519096,-14.788705436012165,13.62307012485368,-21.864750820750228,1.18992727862749,-4.927178618258776
0.08253085014737671,-1.6192460619194988,-3.7104581045917424,4.712152766857304,0.26120474522650516,-1.1396630982957778
0.8758967843437926,-3.977135774408275,-2.3412464397268216,-3.2248292622686217,1.0255823981365482,-0.8538791888419333
0.6743464251683857,-1.8046468448377908,-0.18529838753253003,-3.502786585539176,-5.785081428998728,-2.8612733616705555
-4.37253705870733,-3.403420645315271,2.1064175777927483,1.0548114044442698,-8.917458127704576,-9.910090157247836
1.3142906472761888,-6.183739143945808,-2.0237594663772738,-6.019645691535116,6.207130531709289,7.497057755191902
-0.15414178204806034,5.028938327327949,1.4508500933450037,-4.081182626015393,3.110915944948426,3.225731011961811
0.1786339830473399,2.8092332552238437,1.8177202418916623,-1.0716772595532653,-0.6230462491709687,-0.8515316647950935
3.065639915031367,-2.1239604799783613,-2.6034401423379836,-7.1216448733219675,-2.9764936308967878,-0.31463747438556555
-7.554454923633627,3.161057696326923,6.288899211490451,12.049862262496704,-1.5400061844008524,2.306986053922132
-4.377040795307257,1.6629320040303195,4.655925089303336,4.280999062359912,0.8077381215065333,0.07077653870985845
-0.2430283564476981,-0.9102913440198898,0.1667337194269588,-0.12738623127067172,-1.3897308156156907,0.5892381833602414
-4.391265964922804,-0.560147021316626,4.80605597470162,1.7271390397112323,0.4632535029060108,0.9738716523552126
4.019507596400553,-3.302733603158335,-8.130428494051163,5.006092192760834,12.20006104535193,-3.4090285096029858
0.5388425992347712,0.7665016475650681,-3.609935368288932,-1.105393159071335,-1.0292298874333403,1.8029033602721627
0.7111518581698071,0.41466472724219283,1.0138150709407088,-0.1500985890374275,3.00924485759652,4.3688060434847
-3.4822918502051605,2.133222184068664,-1.419929606466094,2.2091836520038886,3.238466298781906,-0.1963481990210889
-8.264814342333066,-5.676856929091953,11.630989079464465,-3.192687048629562,9.036370132729095,-1.005456738763115
2.6847771066689146,1.7060421008024491,-3.695796167572926,4.584756667198262,-3.025797977026931,2.302488505940568
0.37633361506364493,-0.5429234519931426,-0.4659657874417533,1.7549447404281544,-2.3396334327353094,0.8321886309263207
-0.510787748687568,2.1163171086214176,-1.6420460588428112,2.313652126425225,-3.5092617176303453,0.9459907111925353
0.27222822532889207,1.8796061737809968,0.8548853311268638,4.293854336549231,-12.571138052626186,3.154455167344968
-2.1421376781382424,-3.576245072482556,0.3991147779319002,2.46912552134437,9.05987617129368,-3.131542303450044
0.5729485967430997,-3.127230572414688,1.2148110832888268,-0.3088469623673431,0.8718933014141259,-1.8486955988287228
1.1724217480457488,-2.229269468742408,1.239490878477617,1.7753118591043828,-1.1267585028964868,2.506780278449186
3.6710273191662504,-3.9221707819468534,1.0906771486179982,1.0184691859938968,-2.2613867699750045,0.6851892022644789
-7.2719112868205835,1.3515646237749728,2.3268311991814503,-4.688886622236187,5.37711789545007,-3.9492644879400904
-1.2731553491419985,-0.1157047421972528,1.4431395533037088,-0.11340614119324055,4.51206753273566,-1.5353686003069478
-0.9803693674601364,0.9485659281351576,-0.13560625203414856,1.1483589960023755,4.05843872820962,0.048405483526139714
-1.6141131857714472,1.4647085893680543,-1.3599489370595363,2.046844935975289,4.768260748675119,0.35351053698491053
3.61376487903359,2.563100804176643,-0.7275697212969772,-0.6227887157678889,-15.184971141450124,4.709066651469892
1.4903418617848931,1.8426890428817324,-2.3252028434657177,0.7521540048873889,0.5762625442707581,-0.7124018120966373
-1.4760431644173146,-1.6280195629396028,0.43030243165957227,-0.6302279677984035,2.6263321886408186,-0.8788913532716003
-0.9080893872786562,-0.11555880120638018,-2.4664406373105514,0.002297910775441281,0.10306092930433264,0.29723094302171815
5.034692647624773,1.4323946466368054,0.9540521701442506,7.007386453920876,-5.421512779553764,3.4783119128167552
-0.5885230629811462,-0.27497823047158,1.0702301521016373,-0.7906261056915851,-0.4389498654017068,-0.834151856436672
0.0667659524639288,-2.1673264438130184,1.349341565375535,-1.007813582064022,-1.1759112273591095,-2.3036609427657515
0.3628912109534488,-0.5532577041171273,0.14923511640291043,0.6032092439668458,0.27556780477702386,-1.685844779711228
-1.3947104144017892,-4.485282668798542,1.5529091114556715,2.2662675549967046,-0.13505682773006855,-3.8791992644861164
0.14457478797976553,1.8805096594562052,-0.7488240842248075,-0.3291493673499981,-3.6399516409308594,2.7180010379366113
0.15090083705598079,0.4930163249998305,-1.3304858982756809,0.6978385918429226,-2.0590323234402605,0.45834516678443293
-0.11834479389245545,-0.04632032926634311,-0.422387492635706,-1.6410199943695598,2.197082828703313,-0.8510021473449056
-2.803910688246547,-1.410977990777222,-1.6708830452958967,-1.8495152298115718,0.8556787193296365,-1.1053389435563834
1.2694506736301798,-0.7966896584012979,2.1875001133788934,1.4824103335537202,1.0260817573723469,2.200972647892899
0.006090003441371561,-0.42696501654755814,0.6839073118263895,0.36336378854168494,-0.9728006249678325,1.6056887767029315
-1.88211732152755,0.5161781467294704,-0.7392297154328613,-0.7889789309150224,2.3288070911832013,0.8219058561021825
0.6474488321590414,-0.10078865945593463,0.4892282516065507,-0.38968641113465163,2.9414340125186795,-0.02257807774162668
1.0291695721716565,-1.273824716793059,1.5131032157158677,1.607680827132476,0.9651270777818697,-3.6439541690019883
0.34784459390784517,-0.16873717003159827,0.3098637750552486,0.7361527160653841,0.3563097938821942,0.31892098130714275
-0.829095516712506,0.4611274301657122,-0.5750832271610409,0.534115160612818,-0.6497318169825412,0.5992039750919831
0.8810092069583826,0.49881076515309547,0.25056698584667836,0.06977186900663424,-0.6193928986055929,-0.1109398352808724
-2.6504862841648418,-1.2248418596674036,-2.907019768573995,0.31045030613310964,0.6007361238450918,-1.4353319964689373
-0.6861388747658984,-0.9975367507840517,0.60682818006047,1.0028524058413029,-0.38873325565879147,1.062743737508292
0.2619486157310651,-1.1647527522953698,0.5398775292576959,0.14536396135617163,-1.9233014416615015,0.5155848779346297
-1.02211086312161,0.285122394182242,0.4222233224438546,0.49370220894371647,-0.043992014112472,0.7908443108532299
-0.23806034782087626,0.3524913280514962,-1.6748383768705304,0.6200994016270648,2.4923721996714088,-0.009558390620985957
-0.09147062686282292,-0.31731958444263186,0.8787175403493459,0.5952429129183913,-0.18742130322204964,-0.8865329937624999
1.2938354934237717,0.2409984563069503,0.06672974064137865,0.5021459327509519,0.6068290362399764,-0.07464189032295354
1.0703655699276586,-0.12068355248015683,-0.18691192995183303,0.7173055922539288,1.4100713807896845,0.22868247291934393
-1.0124124925139366,0.8345460856370024,1.1902058996461435,0.4430289016662358,2.018453213933766,0.061421166638977454
-0.014088574532134746,-0.6045519928923915,-0.7505707726839297,-0.3475670128584216,0.2379227376625165,-1.3689763427219894
1.6259224398441945,-1.3477031647547482,-0.7024680493267161,-0.6864590159270131,0.7193948696485765,-0.8461229142441316
-0.3103877126239726,-0.9461726357286762,0.9589089268294049,0.23996823207139928,-0.5181752700334428,0.4927264936923337
-0.8228663844396221,0.701653637976585,0.6568730507891305,0.7720002051237482,-0.40942284359264036,0.7302708781306093
-0.992515603073669,-0.04716805745564284,-0.7782051492074062,0.10154243507043038,-0.3128538145174981,-0.07576997280222547
-0.7814417131442726,0.45777181934939926,-0.39715562932640214,0.22303375465225445,-0.7260230627778747,0.16051776548916907
1.3132299790367163,0.2953222193599374,0.08311309710382664,1.337119975074739,-2.7980816758231777,0.36468986097300693
1.546029728411177,0.28306185532250716,-0.05935331477703076,0.4717778389690532,-1.2347985711727913,0.12888200040434467
0.07074221668785857,0.20152209016888237,1.2532558396936975,0.7992529006106295,-1.0298557748691721,1.1515822568122305
-0.7952751032937826,0.7831367983449435,0.014595070082063177,0.41684286427254263,-0.8071397046180423,0.345968296725788
0.8232107933436055,-0.048201037161538285,0.20049050343257502,0.5015001996724702,0.11979016094605541,-0.9926734600449633
1.6118030413812474,0.2905636510503242,0.08418981382710689,0.49160723859903244,-0.09179011237578005,-0.9309652744960997
0.9417108464440828,-1.0828781012811537,0.42293717430837113,-0.016572070866005706,1.3025587293316097,-1.7710372057904982
-0.21535165381665322,-0.40644027987981574,-0.0472994504784065,0.42995790697719005,0.11768393070482808,0.320182016317311
-1.919064839715425,0.3162201869155884,-0.22758981538911655,0.026641942001166097,1.5083895368622344,-0.1850933896278294
-0.28804310177441095,0.2408763028892007,0.15789233536486047,0.5209119353107907,0.6074577671193694,-0.1591492405750533
-1.3692288203685468,0.30903924938861976,0.14068321720812837,0.3776135357581875,-0.3505711622434917,-0.33408864821353346
1.485732331418077,-0.9214386449792882,0.6332034771450066,0.1982320267363249,-1.2986429932065668,0.7164757517764313
0.11990156558345999,0.3468260462160608,0.31605977496422527,-0.1926867789807558,-1.0130374131009456,1.138020618751883
-0.5663296693535098,0.11785289869463039,0.41846792493130885,-0.32244986004956494,-0.2802595802460192,0.3856063271695284
0.7895745851324871,-0.4914168207315394,0.48534437828686494,-0.0032940989369246165,-0.6985592624980081,0.6036742139759528
-1.0106207006391759,-0.4597349250394158,-0.6449516300464024,0.36330645868669387,0.44161933857848956,-1.2813168174470342
1.010108274168325,-0.4037165169614154,-0.5777565279084301,-0.15032096672993897,-0.14378481628837836,0.5650467775129062
-0.7733679531460877,-0.7399079286751545,-0.5295907943491236,-0.21926190558473624,-0.6258499598348095,0.7154372092275315
-0.9416873937169152,-0.664367844289177,-0.7623267693774224,0.012936011363550604,0.35844314241466796,-0.025191143617199818
-1.3015689497357148,0.5936388845969739,-1.0339310453918447,1.39880042301282,0.23266746038861474,-0.3153701776355716
0.3017938786876275,0.12868451496953853,0.36183762927764296,0.5040057943074687,-0.18359541277145525,-0.31462072715670164
