Gx,Gy,Gz,Ax,Ay,Az
-13.851476000000005,-24.941010999999996,-8.337023000000002,-10.72,-442.72800000000007,34.344
-6.210162061222201,-8.407913610591331,-2.5512358508772883,-1.1760476200208905,0.5806673669716484,-0.34097422174196546
0.3391727264429534,5.276304873660749,-11.452201182538753,-4.90432125480811,1.3996781267619451,-0.9762905486918145
-1.9782204498600013,2.6356694438002912,5.755603803132213,0.8722497110126524,0.7642903443507272,0.6380632403712034
-5.8934866337974645,-105.7992052188711,22.925832428647944,-6.559762226113946,0.5476322186268825,-0.31519303274728744
2.3628927887604916,-3.9714268515999294,1.8712563834934492,-0.9071099110659762,2.1460583924413354,-0.525483810002455
14.242733828948467,2.937358709999664,-9.835305971830593,-0.17273051548884766,4.3819978399678305,-0.2630148622845945
13.51693765696763,-12.013023512054886,4.996527590520306,-4.040888689411742,12.43015700634724,-6.10757075971226
68.51787870159689,9.700556123755334,3.779603313770849,2.625336760144106,78.70701635187069,-6.420177898137228
-8.186567691429053,-1.5941773104746322,9.150659485911659,-6.226491552449702,-19.47062969058853,4.135734579563665
-4.656804782180358,6.653391402809632,7.049807390436518,-1.1914315456835163,1.0684984283126555,0.3241804463839575
-5.885853851666468,-41.305030754218265,12.64216430253005,-9.048082102526577,-0.36727963968563393,3.8323791352793886
3.000066114790969,-83.4024686526,77.07904402791502,-35.481220795107646,1.9519612098691006,2.6747069316934935
-12.200377261552351,43.061690991856516,-26.719086874192087,21.95348187322716,2.279712030312037,0.6021990107753583
-7.400924760664291,29.74953216076765,-7.441429743170761,3.7791421998888968,-1.6782604060305608,1.935977906521861
3.1653034776123135,10.985807990174619,1.6154643511669695,2.7109044633709223,1.8686348992102602,3.475022063598489
-8.349646720811453,14.420537528411682,-12.171034861841974,10.389389714195154,-3.5841555760617396,-2.356630930670044
5.527235146879928,4.45657106168633,-3.5628191056165006,3.298185333815025,-7.236279263804905,0.7719584640327768
2.4897268791663185,-7.248358421632442,-7.302744086066358,0.08727347265433494,-1.8258372698355387,0.9119865973145238
-0.5542814291295288,7.498214252087085,-9.225033788297214,1.19877440276883,2.189467786396172,-0.8361128988553849
-7.510230765518497,-1.466391668027529,-4.970643199497356,-1.1936176393901397,2.9993829040640114,-0.2695973411936745
8.487242348348598,-0.955560974598499,3.700597582753278,-6.0055811945584425,-0.27526206148706034,2.3438409925999997
2.431506194346766,8.448449056443573,1.0019640777929442,-2.748274117839541,-0.41166395440064263,-1.5203792243182421
3.0001222373203085,-17.26188495329408,1.9438443398504557,-3.3648184662363168,1.9072252933718032,0.03248053969302206
14.886721023591113,-1.4944293422436008,9.015595108291542,-11.578093340403615,6.298346318680849,7.8361131788948075
-4.717457929115396,17.997368165849906,-3.992840380284016,11.153619770832105,-6.727339513985772,-6.311902423942084
0.9840345455949073,12.930036058643422,2.2663128667345864,4.199486601797991,1.129599107069581,3.797462610526737
0.19533998956144405,12.832523448440854,3.65118261807116,11.435771342028957,1.298641239239581,-3.4576326031319624
8.368291911263217,17.37712391076925,-3.6592785622839523,13.46427547272906,0.4509835428225353,-1.7303416180512885
-7.9243639339556715,-7.562389662073022,-0.9679761339132327,-14.446909050285136,0.9671768323219119,3.968991566602429
7.394835035701261,6.160532885789192,1.2578112213591943,3.8394248897174372,0.9493453069380422,2.432949023212611
4.827520754956709,7.082386636116205,-3.23340091467346,7.915754674087115,-4.184857365641141,4.685378347145043
-2.3512985864225997,4.698206657026431,-0.25533063350946117,-0.7396544742011466,-0.9111271919184053,-2.0818485471203907
-6.998421085062687,-14.245760375176861,8.76188084439266,-10.83534578555267,6.316444551427169,-2.2628940729024283
1.0112462670133815,0.7997838157537638,-0.4301770937635305,-6.555015911567176,-3.990289688279898,-2.6064713034801112
2.3936414973555618,3.451335582981746,2.0694522006590343,-5.975848344356354,-3.5234405677067855,4.721671468516341
-0.7076340322240601,-1.532616799855476,5.489509789046691,0.3726811392510383,0.858264350510396,0.3829857175376201
-2.508169852777401,-1.439756656842803,-8.357553548340043,9.613267572867189,3.7462163805111905,-4.361189118967522
-5.651736552866193,-7.009933895612025,-3.5461565012583636,-3.945644950365174,1.1007402839354103,-2.9249629812061375
-0.06563855137560592,3.2818912241801206,1.2671864988741497,0.6954112648415745,0.2816517712367608,-2.4461874845925884
2.8495076908795034,3.020206970230233,-4.100699259025433,1.8012603285551916,-5.14794429521562,-1.1442536159157126
-0.09200882944136968,5.520761548353569,-4.422510237294081,4.545331500453872,2.3770932232358937,2.6120732932227804
-2.89589147733731,-4.054582959330874,1.0996979083686025,1.237819434557193,0.4714563763760786,-2.0161627780470615
-6.155256301412903,6.589243322631501,-3.8399508475068886,3.7240810425839053,1.4841703768192116,-1.7122113143114854
4.018068025981546,3.810747477187442,0.7901871501009934,-3.633001598231156,-6.041887587663565,0.9008101338636274
1.5162825454772706,4.885320863597118,-0.2893319286315726,-3.947110588753752,0.7337459063144627,2.1289709210916246
1.1032502402046305,-2.2142403353123274,-2.1658491924075007,-0.34778809629212204,-4.833458410150414,0.5322810597011782
-0.017557434876071643,-0.5865507120186624,-1.4293540540507603,0.24654906302105406,-2.3540100799260633,4.882024044862672
-1.4178865677914176,-1.4873118755552488,0.8621443292233391,-0.3331646194955855,0.6884722127141139,-1.5158656352988902
3.8950896438555125,1.2806354685774237,0.3411708450911155,-0.27872962339271357,8.965461895156746,-2.4013915906525374
-2.87675278322567,-0.8597678393087322,1.9194986074565508,-2.9627120498854254,0.7405369789870426,1.7851804513529452
0.5262429477828168,1.6980406194103506,0.9083609233966206,-0.8059545434334157,1.6350394420925918,-0.24150862031683984
-2.9546539761094905,-6.484332783247773,-5.3243799668928435,1.536580007094563,4.218437680477086,-3.2292694323509217
-1.5586313988080387,1.3442083099855062,-7.715681131058548,5.59863339786814,1.1533197901780903,-0.6213799355662576
-2.001572014171886,-0.7040320443726227,3.3395819534808933,-2.934795365838365,2.7003390245416092,-1.3017871210368503
0.07021905830806763,3.1556981358375884,-0.8961602980425871,1.5462639989427278,0.2602113280257352,-2.795300257708454
-1.8915374126522368,0.88415245886666,-1.4876801990398385,-0.17677678668622077,-4.669288669147279,1.1951468587052538
-3.0334576852313817,-0.8154429402443226,1.18307848805148,0.951475185582915,-4.520514914656544,4.660053514577558
0.1977447088405624,-4.955948482233524,-3.8718847456304455,0.6678801947102377,1.992244489097297,-5.175224363969269
0.7254441963329108,4.569574341492814,2.7635020573597124,0.4120572896218869,-0.22473035435151978,1.5272839386944517
0.8702669468820867,3.52150671045648,4.708957607360083,-1.5331965539659929,-0.8881860254557061,3.3550040054578534
0.002049240488697812,7.512435267274116,1.0233548812319015,-1.4874683705960452,0.1477645356446269,0.3591772954312895
-0.9600570051862984,-0.09924096929546788,2.413975584713559,-0.8170006954798267,-0.6071900356685316,1.0406553243171563
0.15269416955705672,0.6296559598598679,0.25510848403209163,-0.2196721376485643,1.8457931646027743,2.4850654601000866
-1.1287150117083735,-2.9953759109648153,-0.39863431993504406,-0.18594571098470197,4.816964539512182,-2.6384821678470765
1.24869025676197,3.576262413353695,0.264741806781598,-0.26345670598685755,1.7322530643890341,-1.7520471773616317
-2.0156453531849308,1.8484384490637078,1.9172376257295953,-1.8391642734949452,0.7641521821397497,3.3256541555373187
-1.2961155964942375,-1.5247638668585484,-2.7209256978961793,1.7700246938696127,0.2691262099660583,-1.4824427602468817
-2.637730859145094,-3.2794078699564997,-1.2951863723421297,2.3442711886838703,0.34200421784152635,-2.4547747062525587
1.1645214969718658,-0.9506323598005421,0.12667890954906352,2.1765281221335524,0.16259221311557637,0.9580643612930004
1.536514923553042,2.578764023844392,-1.1465224279918127,-1.6684958944809913,0.45856378941775366,-1.6183654744650506
-0.5045672052081422,2.006394450387127,1.483112950988465,-0.3886139999556004,-2.996724425993751,-0.23234205526802384
-1.0105486896783369,-0.6304296085920162,0.6683996907347387,-1.277048841625482,-0.5662449735331805,1.2855975452655717
-0.6178509999999999,1.0732460000000001,0.18375199999999958,1.144000000000001,-0.3350000000000002,-0.9310000000000004
2.150146798102559,-0.873029464654753,-0.8205230941449598,-1.626862586871146,-0.5031717254362302,-0.917433257740487
1.1454289596665945,3.1684765288880734,1.535800173954153,-1.2004114170487366,-0.09517657098467411,1.3464169173415346
0.4436132360684186,0.5816214621307112,-0.22306299870307178,-0.27852574867861146,-0.4339955090637133,0.6773737756802696
-0.35934223824344735,2.314733229521417,-0.07150512373706408,-0.08109865679961825,-1.0451659855012037,-0.14801971339027775
-1.5286607086348631,-1.631946408122285,-0.013650218885751464,0.8443480398509444,1.1403267419790026,0.12547058442067827
0.3376596822169741,-0.21512376359118046,-0.5017163032460531,0.24229146929738354,0.15339092743464466,-0.15099825337586764
0.4200648874314299,2.710409153612102,-0.06832681548318895,0.10600326906078106,0.1714732855807558,-0.16995792510365743
-0.9570363399229058,3.2740079599751075,-0.2298775662993443,0.6617112008934702,0.5108252586573783,1.0231416592952842
-0.0675759832133056,0.8094872167603492,0.5881309386691076,0.35602807972495154,0.45417987391023373,-1.082481438913673
-1.2156108700104795,-0.22499375235119373,-0.7719144342214828,0.6047672663393657,1.9990836185297827,-0.45073094815751447
0.8271604285995019,1.4663614326163543,1.040372450509901,-0.02779891602166118,-0.5334442252631764,0.024820177558002476
1.1894208592939877,1.6137035554788501,-0.26156679854700116,0.47492458301183804,-0.19121917791002774,0.5318419846282725
-0.5125206589806428,2.69032524166233,-0.3070246863857702,-0.6682554701502365,-0.0932989765186551,0.1732207215577436
-0.35639544696329317,-0.14027024452614878,0.451182178610748,0.3170608128818762,-0.9392068624092538,0.19232978632422648
0.8934569797263506,-0.9878418262653401,-0.05327414608206804,-0.22866448662443856,-0.3568695882398952,-0.46393940893064545
0.5323850043566183,0.5199303145515708,-0.9398314651222932,0.2120339502818639,0.0843074137366294,-0.7285480734469448
-0.8920530643527359,0.024901700872996813,0.10745234225969158,-0.5747928649067819,0.15183044783794308,1.3101087422208249
-0.45140615762677366,1.8921820734330113,0.199685035397424,-0.1366557703109822,-0.1610093721332963,-0.5383411923530909
-0.06695429276891107,1.7024306390310067,-0.3443705772282214,0.6070507507907572,0.9422308689979141,-0.3168442637187714
-2.1636017058882935,0.49830800257893715,0.18206478868182369,0.5770759871023496,0.5322202951514106,0.4042559144542274
0.2699481202709515,-1.441625603668269,-0.11368606814605803,-0.5101500304675444,0.07210297356030898,0.2060653023643764
-0.4664697165404595,1.3522905548531645,0.32536166286929635,-0.27146521734094997,0.5252358214510563,0.5826005637313953
-0.7107618320065959,1.041797234452852,-0.31875064506770157,0.26141353630593867,-0.8937386244541035,0.8858748219885357
-0.2205859527212729,0.6784501379309846,-0.3885522331033604,0.22137337513707667,1.0924733202218038,-0.5347389131746101
-0.4421327172698921,0.7294601447525388,-0.29275896437647697,-0.08558440271708267,0.73956902439041,-0.7904801898077312
0.7263855054357167,-0.9635651155333523,-0.9035930091881079,0.3160248186677022,-0.7736906952249942,0.9183832678942554
0.697700804020615,-0.039436122137625595,-0.048870968890881966,0.25951556102177314,-0.3517444807714315,-0.02712330502671123
2.4195598695137885,2.3045169623831647,0.1431914092860073,0.06286634792038576,0.11481447183904991,-0.6016416546490527
-0.5585879901016564,1.194661319754868,0.46591405134978015,-0.03630513969557514,-0.2890908039061495,-0.031105006767022214
1.343254126495863,1.109298601714769,-0.4242711597885154,0.31055862878927115,0.39947496997535753,-1.1750658083995253
-0.14542938658326687,-0.2632764288004784,-0.36581913082394446,-0.12472992824711737,0.0529983392629485,-0.15130674348102297
-0.687950811843503,0.9904795385355424,-0.026979596537827777,0.11666051836201938,-0.26752197683876633,0.49185675544675983
0.22109175254515823,-0.12631715246990904,-0.1870099078447874,-0.09030278978530604,0.09539227070054201,-0.13529256131366263
-0.709837959587102,1.2970937102701048,0.5864299228954994,-0.1270543648216782,1.0404217784992804,-0.26714424534983067
-1.2205318403243748,0.6952128686979024,-0.3235362025720774,0.15393031814639874,0.5283485730538882,-0.4117260432801453
-1.3798780789634617,-0.5475418504139153,0.03916796352994989,0.060728829909268506,0.5734247773931865,0.5420596191320763
