Gx,Gy,Gz,Ax,Ay,Az
-9.721511,3.3284020000000005,-10.614913,-14.925999999999998,-488.49799999999976,53.06000000000002
1.1345815034018571,16.29233340333196,-7.050421283308218,2.3582888965409117,-0.5691452354350524,-1.18780143177024
-2.760537451207762,4.7809456206411065,-4.950289361665375,0.8956788513590034,-0.4489232758250241,0.3556011907628962
2.3865805686393102,15.227998695951015,-2.757394490367657,-0.2647278871130776,-0.2916981676532162,0.8196944723358541
1.7034889001871085,22.82323021846075,2.4813574739582505,2.251987501083362,-0.1894554239659365,1.3342522252555464
-2.5217236773204266,-12.558997006247369,-8.429401680858208,-3.7592412966701554,-0.40658519200542287,-0.6523812117169396
-7.240337139257832,-10.513990796941037,-7.730967785128886,-0.36845948374116777,-0.6059098636153589,-2.3599144633194853
2.6838106850041425,-8.319940175238878,-5.331421244229594,-1.587972191001246,1.7177895803282845,1.4585945367193722
3.301943332486473,-0.4844700918065956,-5.855901070797609,1.0249439714719342,1.2964445548595398,-1.0057021032942992
10.501692941852902,10.941317331340981,-3.9032528049801654,4.0580233189789165,60.799632011450605,-33.398146344368946
3.642181125367614,-2.803293051695377,-14.510804977644904,-3.0312061237692296,-7.0335149218324915,3.8440553566672175
-3.0167600331163547,-1.0906792304692612,-13.568493422836278,-0.9511048614264486,0.7868273727627866,1.5419880279889178
6.732601725335039,2.3649996864644627,-23.757557390440386,-2.198973624012652,-0.9442580971002956,0.38224808593009496
1.7666913685398353,-7.877405379368592,-54.53959351622406,-5.685557874056313,0.5137369884399812,0.4949372395661615
-6.207097409571386,10.512832171131532,74.53028773195699,11.396735256159554,4.237198379953352,-1.9735595488460387
2.215409767402264,5.288863959898656,18.41065231236596,1.6377656301557335,1.1816060545455969,1.2560633752957477
2.7040577760371693,7.679056032173754,11.428846443887956,3.6337010710770583,-2.572718112896892,-0.5941961394036575
-0.6269065166742076,4.330823985401341,5.577522339954061,-1.6121758930920453,3.8583640642655763,2.826638830518887
11.807155263907388,1.8648349090748322,9.675189861263961,-2.026902963216427,25.65468175319372,23.841191579371483
-0.2473981258899829,4.161149610344432,9.914007404701287,4.912362120476956,-8.470938569596374,-4.621789344790361
0.6344781114804788,-7.150200164542273,2.538372866993026,2.263337235130572,-2.2459650188418507,1.0670906838833012
6.560795518895883,-14.399022014129196,3.094141823184694,-2.392709994013795,-2.879960614870638,-1.9411152605749744
-5.327075105921336,-10.785447191484351,10.46020657243152,1.3092550638673037,-0.7212756015100101,-1.278316102538124
-0.4749702197226465,21.13010198341877,0.4549635383718402,-1.531478010042925,4.350984718423678,3.0321107025153573
2.06544088425557,-2.548402011371616,-4.066398038351693,-3.6650761117782418,-0.518729286887248,-0.6371884416670699
4.998205837703441,-4.8934559127135255,-3.036299646344211,-6.629662655035849,0.4802279434161534,1.0474271442269596
2.7077300580306245,5.5678120546110685,-0.7805268367205473,2.334997683403735,-6.424357862572553,-3.679453566440495
1.727866195035801,6.539178465944439,-14.717120387848471,0.13471461035249854,-36.20806186283508,-20.153026157129787
-2.274208325110379,-1.318418809851039,2.386592293276543,-2.9221155876550053,9.491356226682939,4.511144872095821
6.272107980155928,9.43412003793008,4.295164439797023,1.5347325009919492,2.9461824176991915,0.24629658155036516
5.898614114387269,4.7092897505439,7.1284564938916475,-1.7259394050620331,-0.4353258764170036,1.0542859716468584
5.101567314888018,0.191682212880262,-0.20048483168157327,-7.174795870899529,-0.1715741250719527,1.1366210881199075
-7.104938993578447,-15.92730506217055,-7.763331306134425,4.709087905656482,1.6479405239522538,-5.589827606361236
-3.41320033242327,2.637101372862208,4.8341395534738725,-0.11795774810874363,1.7169852452126086,-0.241051782437129
-0.5290907316913878,1.007228798681611,1.1299080473924832,3.6000653515695475,-2.409972901376939,1.6035267709626733
-4.773380524943282,-2.3073840385506346,-4.233263530860761,-1.2619179124796238,-0.13186919935306918,2.31093785078723
-13.512399952225266,3.735748738806967,2.787506055783519,1.7031180716226102,4.995993598367703,14.924282994145134
2.9271956463959103,-4.4972821707420065,2.730562187370157,3.0142179194534933,-0.5626870399186756,-5.145316690063193
2.2171640346820154,-4.86873636555961,-1.473153176965881,-0.3044251694432485,-4.588103168195519,0.4205299841224299
-0.0941296487652794,-1.0861847010866672,-1.5921455623358676,5.5235887235006,7.036665617752554,-0.4599515483787695
-4.328186872362683,1.1927550835273155,1.122115072965975,4.269615702250006,-0.3204973936650717,-3.282319901764542
-5.750912456353582,-3.7739461395961724,7.298447318611459,-11.3483953814611,-4.109430607248454,9.351733527948006
3.708064048720768,-1.8666758221880753,-2.6184707200902473,1.4632571100154559,-1.9308567782844452,3.1312205330770277
-7.775323972433548,-0.4277318359762554,0.20865331036776524,-2.041835471139793,3.6084355963587718,-7.742840728404589
4.236152551643565,-2.059191736836582,5.632080435973963,1.1947511094186691,1.58731771181787,-1.78953713958217
14.825248744918685,-2.6152934075689602,3.6946593500602987,-0.5301681026466385,-1.4560093722808922,-1.7154437253200991
-11.660627304656778,-3.2414557144413063,-0.9343786766271651,-5.206860585088119,1.599025162107548,2.3697881789828843
1.2306614244972995,-3.3638152201586697,3.441317012279448,-2.1405349591730074,4.05779603595499,-0.6209570745648674
-2.3085303411092983,-0.9806890208080569,2.094779436674102,-3.699301274181555,-6.478434379716067,1.530564859728702
-4.810382217932825,-2.553340670425429,1.7929247381017994,-2.7948259773877124,2.420667672004016,2.48153444328239
6.6929272341166435,7.301713009543005,-6.614524078775023,10.40896296762877,-0.5654131043617703,-5.419743745288266
-0.34026035869011073,-2.999023257759206,3.4459129623600453,-1.6290089690774443,0.4088624330902799,-0.3011781543469447
-8.329298159238641,2.5835208738450786,-0.5117534385665404,2.2672958736603857,0.06585758935413466,2.496669184115506
-4.890271261156177,-2.8262923014922903,-1.7994462619628877,0.7038165650836175,1.0643919568407567,-1.4535476266014162
-12.964664519672587,-1.0608833132520707,-1.9313366706202688,-1.9588345907141915,3.3288758821444433,-6.421719349750703
8.89288552510625,4.031065747126085,-0.5417416455205288,4.301569221008384,-1.3624297714955613,3.7981782693791857
-3.851782946860455,3.17252124678812,-1.5965990803760177,4.7370972426750795,-1.8917626909054746,-1.4470059882787
0.5535027084762953,0.3245706949051732,1.8570233177919597,0.9713381586874699,3.4220042121462626,-1.9575063275902207
5.49330241653877,-0.6308038527352509,0.47052750169772173,0.1418509123864744,-2.1576411358353336,-0.8212112166196697
-7.218943723866897,-3.1612482965354656,2.643377480624511,-5.591107643647415,4.683335717253421,-0.8395280492000565
2.583508894901816,0.34593981572095844,0.7924874346280353,2.485039144887654,-1.0553705822329817,0.1949443451065902
2.8884040630588497,-2.539134737545464,-1.0716388760800117,-3.3218812214826805,-1.4560968275680064,3.6422828766062567
0.6916084516840546,3.6169481772255265,-0.8896736860192994,-0.44891680658311056,0.46150287447769256,1.7770294920788015
2.5774207754795095,0.38489569881133395,2.582462863470988,0.850734709812365,-3.0252608791210847,6.467468533897231
-2.1690304471262376,-3.922168899555042,0.8584369545039687,-2.021957656499919,0.19473422516934025,-3.64141836386865
-3.10243000089153,2.2906103841836836,-0.9200384627208245,-2.576359185901244,2.1085840231387696,-0.06355971721918308
-0.9407619825320209,-1.6265640692914296,-0.26832335918874817,-0.04986746863270808,-0.426974420181291,2.3501903259783026
-3.517241845462571,-0.7221324276282942,1.3771392732868688,0.5834061824203338,0.8779251323788804,1.3981051660265051
4.448366387854825,0.7297915884056383,-2.041993091557207,1.2261831852559404,-2.9849796278023497,1.1625739612061332
0.6170576897633868,-1.0632399974470728,-0.43268750894388996,-1.2008175771465868,0.7274418037359267,-0.9530000479809664
0.16686231637153182,0.6585160970657407,1.7428082040281314,1.6878714403855986,1.3182292300980354,-2.6189144724623388
-0.3335493212471747,-1.9290691221959142,1.6921976565053238,-0.48811657102101136,-0.28550791522122076,0.1367073920016033
6.189709251556103,-0.43162124349262376,-1.3452295009842916,-0.13706134508351397,-0.27692083543673096,-1.567794725325981
-0.5529080961634116,0.9382089817659651,0.20775531644271505,1.115341943406299,0.4217227683341219,0.6768491883254263
-2.174751659040334,-1.0527636928852657,2.118966089321515,0.8448180034796029,-1.007074084105417,0.8009267605573511
1.8161339395025662,-0.4376269588877204,-0.8305536619470929,0.10243244987037947,-0.6719882578858485,-0.2306108809896319
1.379259489559345,0.10679341339294068,-0.8930108996563002,-0.31341377293810213,-0.6288452113370087,-1.433726380683288
-1.4697518046118496,-0.09367771450353701,1.3459142516479121,0.03950442086888495,0.8071963947974213,0.031286375322039095
2.6646805149564985,-1.4591950472853392,1.6738406062590687,0.6191157458626855,-1.6513861671243522,0.33385749447530955
0.6534743198074907,-1.878802778780742,-0.13109740246289103,-1.5110429547088269,0.49294166323290667,-0.6928323856582376
-0.3506263283003386,-1.4017601611755146,-1.6890578509164542,-0.4602189187134499,0.948865095795016,0.09471102248662033
-0.9209067715647212,-1.9979250135398092,0.5461746080119034,-0.888523501013072,-0.1826811431748706,-0.2076140577826676
-0.5631275715099531,-0.4892615082486875,0.5716365398181056,-0.06302482747602023,-1.431668536560511,0.9421710752114247
1.7781911224751954,-2.8010994454965212,-0.6245771765459726,-1.1572139377927986,1.140246293589333,0.5645446923295696
-1.088683869435628,-0.2880447825031333,-0.35769490788498415,-0.6420932362706188,1.525112751609954,-0.8977509764119262
0.057863784214360225,-1.183433106819661,0.27572008787684477,-0.12002000809337732,0.6083028593445619,0.4248235847782985
2.5766357782605462,-1.2503809929397758,-0.7079427710812721,0.26195634183149663,0.7683002040540093,-1.6922276076187703
-0.4294095706149236,-0.10675231082434267,0.17034073131380317,-2.1612375643607726,0.8658143399139109,0.5921083326576358
0.5466785114930353,-1.3835897661870433,-0.6968835688464912,0.14366035199000365,-1.270725862113529,1.6168224770011896
2.6259504635734756,-0.8390040344725638,1.2523836199488931,-0.00233548023136243,-2.184966336889807,-1.4535523060124231
-1.242296659286635,-0.9479140443246168,0.39992129507943974,-0.28297220036044896,-0.1719163021729635,-0.03983825387241835
0.7198385547407121,-0.03917374104635496,-1.0905477466373086,0.5201460761829424,2.40922205170056,-0.3606426632850397
0.6341100170697271,1.273052161445312,-0.5596527702914044,0.6534569092711686,-1.6967909629848341,-1.3144055296998587
-0.679791370983123,-0.8780070641074604,-0.023881768826499727,-0.23733111616035374,-0.11760654453018049,0.30652469610529254
-1.2920466519537839,-0.8979093717392869,-0.4309803596109121,-0.24843004603450614,0.37334006493955085,0.6429712690504747
-1.0870198922385417,-0.2904557658184175,0.1385002226881898,-0.5039054964808607,0.2440343557807907,-0.6276433491758003
0.43406416257285485,-0.7452906868232758,-0.16841780716218557,1.481006231772401,0.2689170643689192,0.17960925086810223
0.27563736462321875,-0.677423551908622,0.39592992003681443,-0.6131478174124761,-0.2998215794912283,0.6852561679724624
-2.5247865036020496,0.3533363884369662,-0.5729604087023529,0.3117785932878798,1.8895469016269688,1.3464553249634226
2.9695022379481477,-0.3373243883042528,0.18483685431783203,0.6531800952743984,-0.7766452988374448,1.1710475860581129
0.24660852815062734,-1.200652061872347,1.0329381998631182,-1.207541809625127,-1.1874393228929128,-1.3821831623488883
0.2144619904367815,-0.036958115603137054,0.8268566717574984,-0.28144842777020185,0.8877875363884083,0.17139736614503603
0.37922635071810085,-0.2676115577453764,0.3554108373267405,0.6657264183547484,-0.8048426718940608,1.1555130104811817
2.6919929443011825,-0.3998666467015027,0.4069548177772978,0.16080726419929736,-0.39035072821470823,-0.8804867466201197
-1.6565897344046352,-1.4822906901936883,0.15470935807682457,0.6235053664434691,0.2577621754966952,1.2488586790972445
0.6175961439476331,-1.0459886185781795,-0.1872241360429932,-0.8141851068106514,-0.705848917227101,-1.2615009239530663
-1.474761910954438,-0.27245026174659437,-0.025108746205040222,0.40081892219547954,0.5788231087697704,-1.268301703728427
1.7250370316972519,-0.9382976493711603,0.007664409970674413,0.08019615127132006,-1.3741659946061149,-0.13864495047581354
-1.7844080064146672,-0.5649250224794101,-0.10840124978742588,0.16350334084304868,0.3415994677984096,-0.6893466885262576
-0.31915399763662894,-1.530721720991767,-0.023200574468177526,-0.18653640285598788,1.3501748136482927,1.2254483082488434
0.6037274074236831,-1.8754832859193067,-0.010409947573727762,-0.485642582767953,-0.33121017335722946,-0.24542465478400527
1.4482024806786826,0.3737966235446871,-0.25884513361680894,0.2479172542326793,-0.43731424258743024,-0.819842970511918
-2.381308655413766,-0.830059495716867,-0.4714691125774005,-0.5487231329043109,0.8345043153698384,1.0461235318749942
1.0164674227405328,0.19533752366448087,0.3147822030483924,-0.1701430833905653,-0.49966003563471056,0.11957219609984454
-0.23931923373795605,-0.8807755521081481,0.3479130975576496,0.13771199554980762,1.0637562353226664,0.2213060240139635
-0.7248680787522469,-0.09574487977174839,0.1440369907827041,-0.6095126484727756,0.008381555263640372,0.24299593301293432
-1.4299155807360788,-0.2723348986034143,-0.7513531515647298,0.23191238706923267,0.13594565687084392,0.2328053795825368
1.4696226635876348,-0.6217830304369667,0.339866825743476,0.15091704172030196,-0.6678039706661282,-0.035395971339636595
-0.5760805353555964,0.9175755563893976,0.019575606496027076,0.5414423260844021,-0.918387941209057,-0.3571689066058105
-1.446579992849737,-0.9477216615889187,-0.2722671447132227,-0.07714749315002095,0.706398011636629,-0.0505080252155522
-0.5097786778740712,-2.5710137172823955,0.8155394846780059,-0.9541200929128221,1.2225715695027528,-0.5683383253812223
