Gx,Gy,Gz,Ax,Ay,Az
-17.917419999999996,-19.373547999999996,-4.8810649999999995,-26.014,-583.406,6.7459999999999996
-6.878834326258711,-9.592459213994779,-0.30419655810940327,2.3269667010104658,-1.0838066371069481,0.4138892482686949
-0.09122500073254505,-8.904010638826334,-0.014660780962351204,0.9379942516429636,-1.115479039370602,0.23116106449714008
0.06576313373600756,-2.051744077795698,3.855173721697594,0.20507593157118553,-0.7839234599007414,-1.299492096762399
2.9473878052918603,5.726790938361361,5.807431926268754,1.9001347063179734,-1.4463666754130764,2.3764256753176927
10.6772075007661,-17.19288127024371,13.26681171407392,9.87784150237335,-2.40999979185561,3.1411563055577942
-7.836381004516412,9.365972537739788,-5.480819171541198,-4.467286269587828,0.310716014259083,-2.633266599467508
0.37865117717631125,29.049169684424015,-8.76089505761466,0.12969035360190717,-0.5456229077474803,1.2825521672574887
4.917711709087693,-11.856662722611576,-10.45045629699243,-0.4595668317609267,-1.7235285383553935,-0.3514823964599607
-1.247383103677893,-0.7148696917364692,-6.3408974006179974,-1.4063713628852899,-1.8826439886665751,0.09805796644710563
-7.452459932658266,5.534620002306458,-4.5310457076833845,2.252485138911254,-4.892023672863467,8.893158700220207
47.85135481797241,15.235832008178374,-4.783797666736567,-0.5334539757649437,54.16059816842157,-34.53859058482767
2.6532428501881937,-6.12021874121506,-7.198128450793618,1.196732341874398,6.160688662145966,-1.4055544815885002
-0.7578027120624169,-2.531939084650493,-6.574114780808432,-0.852280215879193,1.2922527357787368,-1.2626768857072115
1.0734855856851704,6.974956552597858,-10.776176956694556,-1.2852727965896014,0.9269265436707826,-0.5388904886821403
5.8148638173663585,20.38295339528468,-10.66800063301387,-0.33461980903747923,1.9483663514465646,-0.7036357175715764
-2.376161089481412,15.101505230195936,-45.379543898643156,-4.738527554716028,4.6852613697348495,-0.17947769001212832
7.879403601522612,-9.715257876468224,30.225911931242663,5.877281985982393,0.2654078436853907,-1.5232525316781889
1.4390237150068446,-0.2798377002015695,11.395005808338576,0.9990318384911492,6.409916346745595,-2.0567928053792324
6.289433451301092,15.850720456173827,10.5364826065125,4.042001073244149,2.455449086543565,0.7256680356662615
2.083791797973604,-7.725172536341909,1.9833064645122027,4.580123620237215,1.7688721340571165,-1.1089897009853495
6.81592128728678,11.0625866587684,7.29115404199319,2.7060536013925525,5.323257363376395,-7.9049272091118965
-12.105025766080217,-13.444662223147523,10.053593550266783,2.1224829452650233,-19.670486033964426,20.779473665708238
-2.3874614314066847,-4.6070819807972505,1.5948668540037727,-0.8477620365538803,-2.572029355052134,3.992818200861193
3.0797964917989127,-6.297117289771173,6.697291674330462,0.4376731580218176,-0.06906703125907662,0.2876232010404737
0.26137315930786126,2.2423214510826743,4.653147533443832,2.1570808144375953,-1.3936697871658772,-0.4767610104133323
0.6507665570526949,-2.8232910502241038,4.304456049167977,0.869464859992326,2.1882144573729865,0.9487131405341384
1.194906296746196,-12.283181090885364,17.115726841788355,1.9713243400225093,-3.5970932874313704,-0.3678211164717069
-4.192749096648288,0.7822990880139463,-10.61110956930809,2.6903377300716564,2.2086429445514524,-2.551401294474645
2.612729616859281,0.20967685705653805,-6.514695164586759,-3.976871224125573,-0.240466030171795,3.1069498368333677
1.9385581244289587,-13.741351200737952,-0.15280667119922187,-1.7305210728884477,-0.800965402378736,-0.22854268605304673
-1.832855825372052,-0.8493449931080921,0.6059812246541354,-6.833177396677069,1.3739805993450447,-0.09148325110008532
4.7504255550876735,-3.8681119457482893,0.6139330260024806,2.388727674630816,0.8974479647859399,12.455170108817986
-12.335047036998304,17.324288692326185,-4.3836966086129605,-3.4540715599984004,-3.2965453640876627,-17.85042899272169
-6.3248353605119325,17.091931517155007,6.2132635051454095,7.562033184806947,0.59038883363159,-2.923294904098841
3.0950766590340955,5.122229471231278,0.06246688301646841,-1.1340041087447847,-0.7671442539086627,0.3309677350411836
-2.8543485137796867,-1.0492324551905083,-1.0920103611709053,-5.739109544038909,1.1500441281777323,-3.177895048052663
-0.9458860729441168,13.626093738640861,0.8143210068639894,0.6710047700042603,-0.08014819388755154,-0.3447975064581777
-3.9927670073223402,5.880734574402412,-15.280342384047703,-5.673783419587841,-0.798329736913115,-4.718695347138534
-2.4060809954009477,9.724490595795821,10.29837372374447,2.2649239775233228,0.31148206308144677,3.095516032720575
-3.900148480525057,8.820519235947687,7.972487438772012,6.107738692465962,-1.3005219233340828,-2.3739681726869324
0.9768765579393207,9.22577861854686,2.980467567172078,2.4872808124174077,0.7642685941301278,-0.797892435087844
-4.0657035661733545,0.6754512368667627,0.8016238065050185,5.193361996333928,0.9706309501000533,-0.9810464413700077
0.36850410342487416,11.553967349644942,2.481622195050344,-0.24543556565537017,-6.291388396883942,-10.485573551754484
9.857939410176563,-11.75229798257905,9.063148950414261,3.662450364831086,5.0889548389618335,17.21716260364133
-2.3848768124479096,-26.142405257083993,-3.0780171857961953,-6.326319617903725,-5.849013179919761,7.443990412551143
-0.8239136204442542,-11.786782986550529,-3.995085914437384,1.1288305329348982,-1.9579733319724575,1.2830722385817457
-0.7896819713098149,4.488219596017803,1.817896189751353,7.220111137424152,-4.27036706681376,1.495967687837107
-5.921843543432907,-22.706439666087775,-4.549989162197892,3.899054127423647,-0.9729751554318595,2.6911465580874676
-1.687284166301462,5.226505758240977,19.04114090680242,35.82205589891271,-2.961100631599801,4.615758927057259
0.8776607796090237,-13.565751415827538,-1.7495272310533942,-6.43251256279386,-2.068325691396535,2.1774166467420137
0.9133537853607703,-11.86948049864897,-4.478468558740998,-9.579150589287629,0.31219595925784505,1.335790794056489
0.259350859654248,-4.9678606786470585,0.24540400330342615,-6.487372207511645,-0.6555294624490327,3.381248209830252
1.0405417854858565,-4.796465770217087,1.4126159652542443,-5.137927988120867,-1.5842383564884814,4.286719104246979
-11.46206862364103,-6.497772367033515,-1.5190051135484877,-5.235753954151419,10.117599003966044,1.568957374427856
9.674288194005644,3.264177692345233,-0.8342421641158736,-2.958839427586252,-7.436190414953905,-5.974445965992098
2.6809695452852833,8.092703142093018,-0.1585377217420845,2.539039487529665,5.574522032039551,-7.118916534533135
-0.9054579500721944,5.032965214067065,2.24188489660615,-2.335538480608089,2.1306940041715343,-3.1836323161907325
0.5065805108327021,2.7954420725936266,1.3170871903796209,0.3426660622859825,1.7254257207449013,-1.4523276988324567
6.94556575392044,12.837628230841327,8.77026689210621,-2.631355382277836,-1.26585460852597,-2.2538455338758676
3.3239647211205483,1.9693805236636024,-10.415027133389838,-21.90244468951135,-0.1195725786395978,-3.1016574026625356
-1.5780560766376959,9.657669397319813,4.853580234265754,0.0969004853872526,2.061649877954533,-0.18363287440100412
3.562426096470874,1.8866513723586913,3.7309701636934776,3.6441126358622795,-1.5007905365763237,-1.60170209913786
-1.806539725865233,-2.73735473927368,-0.6186283233093509,1.5818115380247493,0.5604093796215033,-2.5472608527003686
8.572860138779456,-3.169550909800273,1.0326021307388542,-2.173517391132532,0.9145579966357693,-2.438358100888034
8.006697680927953,-5.471289130809765,0.2527011044195224,-4.566813065521369,-8.968450683264104,1.8944101914226814
-3.7721872835079626,4.8424828680882275,0.07847588061350186,2.352877866482257,4.959122846894048,-1.868913275858355
-8.019460332772308,-1.254346191300118,-2.245665810351617,1.4319321887567782,-1.1517521965645543,1.0625333200402585
-2.5998339675934297,-4.915148705665921,-1.2779629842971592,1.2360020181268734,-2.7662534377334986,0.33691033750588656
-0.9481514011193444,-2.6721095976082614,-1.222166147950406,-2.3331008541512896,-0.9040598410553541,0.5020984644241611
-8.358025822136685,-8.900720984996688,-4.148507910264035,0.16942467183130297,2.2893552036407545,0.46217656450550154
-0.7272061392946774,3.198694909126531,1.726779084267735,10.854902074245537,-2.2051490669517126,-1.166254506152272
-0.7393690115370768,-10.27885477008303,0.09648944226041406,0.8414119779881774,-2.233619545928982,-0.7983290282224285
-3.3975278117363454,-1.8714372370373158,-0.5514955209169645,-0.05426590350629468,0.7312596301326524,0.958516943955737
-0.4384732867489851,-0.06638889859866802,-0.017729502672489978,-1.545027953095256,-1.0007701133347027,-0.4172967698678096
-2.8513061320794577,1.6851752458142168,-2.585435201626173,1.9142487215684567,-1.188231989651602,-0.2570712593303329
-2.0681288586038056,0.24433676023019485,-1.4118570753022643,2.5082837517269443,3.177613831903112,-2.820122927557559
-2.794702429357576,-5.3707172135662145,-1.588769385889354,-2.2476877469392655,-0.3872878587225759,1.1817980468217553
1.9503892023449136,-1.4038240739405363,1.827318873007037,-0.5561511238505835,0.7141731645528713,-0.14129331174946158
0.5672177599416048,2.8927723438059907,-0.6604176898547441,0.691754610115572,1.0687746248746097,0.20438070127285762
-0.6532393681424523,-0.3811086073977136,1.5821685744367395,0.5541807235139464,1.727394193390567,-0.9337259468674887
-0.34550507630202976,2.12140327891622,2.7833856193899793,0.5748901671072761,-0.20503371791047642,0.29680534794832325
-2.856964473685673,-5.50731013484612,0.6234608356607665,-4.077730160431704,0.6668199976465927,2.4490480183115575
0.6240129865234381,3.900049102725684,-1.2167813292105825,-1.2072141487968897,0.8801697937158035,-0.21213559918493557
2.95003040274489,2.9057796209636946,-0.6867372480804682,1.861397038602488,1.1745000585183534,-0.7750344148707125
-3.0258545648500976,-3.0572879198822487,0.4996659862587525,-0.09330805298962291,1.1592550214657138,0.1117358429796343
-3.1530374827535717,-3.3939585927535973,2.047555523237524,-0.24643650301167136,1.8597479131185481,0.09668863052566534
-1.829692964302796,-1.2858566890466208,1.2508770053946732,-1.7212004011719424,0.012155319454698166,2.0479615834112184
0.46438336384897333,0.023812135753959712,-0.5752625176703545,0.49047011217302466,-1.1451496329798347,0.35671922281564705
-2.0203736632177636,-0.07044651108327016,0.19886014019973972,-0.22168912286127207,-0.24384141842172594,0.2617369304419747
-1.7273971604341476,-3.8856330952876856,1.153914876499439,-0.5944654394297909,0.18794989142358082,0.2023965655980609
-2.6439216987906997,-2.780697772770661,0.07169522448984267,-0.4432568036395439,-0.042615289735827844,0.839892864808778
1.8067014054104078,-1.5707826567064913,-0.24094557434150032,-0.25789006116654667,-0.8672250573968676,0.7061644115781474
5.580014758294977,3.0151185521683908,0.5442774111449787,0.41141910248427893,-2.09851732373006,-0.6667181864796982
2.6455275014150104,-1.5854600938750438,-0.70278756491542,-0.36554992615198006,-0.669583356727799,-0.7767311247271327
-0.7962564892413493,-4.443202032032725,1.1135365595390736,-1.0943909929070705,-1.2078679564522405,0.1417002472111909
0.046742618087375676,-0.40512766735041084,0.9082840486997505,0.4889670361080263,-0.43462047493123124,1.1330076254419792
2.1440729936411,0.12230495228205873,-0.4326046132902529,-1.1721003953293831,-1.673080553525395,0.8845390046612258
0.7440636780411516,0.34619523166286215,0.2919727293550141,0.8945373471266208,-1.5615087992048347,-0.7442853654521115
0.5998892888306182,-0.9992927201668395,-0.03548108117494603,-0.0852284639904192,0.8691353324099614,-1.36849363321316
-0.18289888951142694,-2.569002973844613,-0.34777091272181104,-0.339140709638841,-0.19457249372644825,-1.2820272504121664
1.6089077609979316,1.4451466204236934,0.908433835563111,0.6251480758854149,-0.687189981106207,-0.09632457928788518
1.8656427849794355,0.31028431355871333,0.09438980118937938,0.1313475552987595,-0.48841143457441827,-0.2196099647442256
-2.5960662910685155,-1.1669133404590322,-0.5030102780892285,-0.7006578079337668,-0.2791549814273981,0.049103009350683985
-1.767354518169931,-0.2827085825067495,0.6475323117871488,1.027159786667851,1.4828358900645213,-0.5670753539379604
-5.589324174423857,-0.6254350395775614,0.19085299798137084,-0.6978516158619533,1.900753063522687,0.3025344478383343
-0.3946109546073209,1.589545581820722,-1.2071381906220642,0.34226705708919286,-0.26226771372363633,-0.4987850943649138
0.04980556414454729,-0.48253586520036607,-0.4967276878681433,0.1881356159549327,-0.7122247365544243,-0.7155688125729707
-3.782163407152947,-0.2310418004645941,0.15474085712068375,1.011555822024203,2.5009675186468536,-0.29282219502545376
-0.5115239450533803,-2.25550048604116,-1.0956898020805301,0.7265448068169514,0.7186198159350512,-0.01067428714459917
-2.325807677245136,-0.09305044354554226,0.7526553988779513,-0.7972426866077523,0.47077279903577585,0.1616671446785528
-0.6017153142830429,-0.07067885331342448,0.19224671753295514,-0.9513599365689004,-0.5225699325202031,0.8020628763897979
-0.18147755852786934,-1.7889500077821474,0.6575376558438271,-0.32057188303957834,-0.5188571066484344,-0.8440240669482941
-1.1858096628473782,-0.7525426343834043,1.05766709112129,0.6108868106325872,0.19906174652673708,0.20944351059464705
1.829586726518695,-0.4701162338292131,0.6437649409509862,-0.05001595822095807,0.9153646316419967,-0.5971850867845171
-1.7693151177596602,-0.5967858325523054,-0.49276220671081167,0.671079027130116,0.8606162349968409,0.2902266431002734
2.089952751266134,-1.4259783492095954,-0.09625173822273242,-0.08913821459242852,-0.9627649406989762,-0.3238036309084238
-0.48096194354981664,-1.1293224004691205,-0.5660065294964366,-0.36779558878630225,0.43358450307371404,0.024824641224659882
0.2161938212191741,-1.0328382953789597,-0.018152697014986036,0.03581813669489148,0.4134694843012773,0.5010778611125137
1.599518261632941,-1.4854768097377133,0.19287167320464216,-0.8108376540348171,-1.4341720726171934,0.4001071631663645
-0.26814467382388296,-1.4481171611965344,0.5831144949431051,-0.9394108924155671,-0.4824476361525041,-0.1983911536447172
-0.5655266064157777,-1.0450621281650019,0.49698825481321834,0.46616826651177545,-0.21279858142897112,0.5374117980334672
0.9603554325235737,-0.8742686945710698,-0.1091359603669716,-0.30366907196260307,0.13491998403921027,-0.09956814264467422
-2.348760417347319,-0.5198278775715233,-1.8665493841111782,-0.5648166641688848,0.943791033083044,0.4330375763213701
0.1644909221942512,-1.6858159982985306,-0.17774707822085095,-0.02127953006493813,-0.026632027401496214,-0.4726541087526822
-1.7511929985968095,-0.21883765174831765,0.14500634729032275,-0.6595187078786934,-0.6182724532661672,0.514089119847417
-0.38906644055326073,-1.8579764910487842,0.4921715737350301,-0.37644214253325814,-0.04369607096873871,-0.1783240662325365
-1.6420337188962426,-0.45242433482709954,0.9575303291985023,-0.04371350832306255,0.1489426348955737,1.1358329320854976
-1.745528385540549,-0.997086617508034,-0.7348672107900913,-0.3136752606657969,0.1338642637742081,0.6428759752274855
-0.7930645202354436,-0.8151545893920122,-0.39524446441735844,-0.7873784563411025,-0.41818084968708996,-0.646674468103279
-0.49572017327831797,-1.1160468111717572,0.6742126856409176,0.8460423925024032,0.8464268330830383,-0.08071404133915017
-1.8478090723760794,-0.6193795450770911,0.07303112225379559,0.11877447954043548,1.0700686469840757,-0.03204145228293556
0.041337143411405375,-0.9357189942691225,0.6946000486428561,-0.19317461311699255,-0.21150666509691407,0.1069048430388423
-2.264108604878172,-0.5876277189709502,-0.0705272570530392,0.5055785768929743,0.5010697592766558,0.4302924031766515
-0.4714946061193838,-0.023085370348654606,0.22027936631931777,-0.6354227011398184,-0.9822156306410462,-0.1514632125368669
-0.5104306231579412,-0.5051010893019565,0.25431172443742006,-0.5183788285999852,-0.03516493176164641,0.4487124271690739
-0.5040778377237476,0.3090164522689386,0.4170785967437739,0.6397250164395973,0.24180884124862329,-0.23277784888248074
-0.3845626555216616,-0.4610634032210582,0.19333743610783602,-0.3681331305778441,0.6521014771783931,0.1804878325966264
0.06419702912710222,-0.47718180724437154,0.7673815130796036,0.6027204652099276,0.18352955671191534,-0.09369878350981811
0.8852927532570471,-0.13383029008408576,-0.7965181025085327,0.12362800960897039,-0.34577146853927365,-0.21582311474901794
0.22932611796291202,-0.6835242423221739,-0.7319479649812473,-0.20549091912711467,-0.23405105236056856,0.15194380845808977
-1.6321722050528757,-0.6336470457501875,0.17146186791476692,-0.5173685792143188,-0.36040772751655215,-0.06108766731864277
0.34696449262786055,-0.45361953663809607,0.3079935752723259,0.21756623933660083,-0.6216313618394163,0.012219336580518995
-0.3937076382908003,-0.19222354063705804,-0.09569606907915382,0.0826337905177667,-0.18490817668766563,-0.17177970877237642
