Gx,Gy,Gz,Ax,Ay,Az
-6.073300999999998,-18.579753999999987,-14.579200000000004,37.714,-737.3879999999998,152.664
-1.659860491119652,1.4196559436422524,1.5369899677765593,-3.130382346328594,1.8469313558442777,2.446490135039102
7.367317856284101,19.49596986487869,1.5920549877496342,-3.9109215702461695,1.6698035322548301,0.23474601113410326
2.725694745910697,4.768461757814546,0.12759765336231793,3.7192733377820684,-0.4527386224367614,-6.299054820498828
-2.3269803666445616,-16.579926454387184,5.278499311613451,0.6982992403631791,1.0909549871248034,-1.6551029176254004
-1.1774901951939352,-56.06464644428416,4.397060517001717,1.943463294048006,2.2633693022905033,4.525418484555658
1.8610611287698209,-23.998438163185668,10.15892058780314,-3.466098073829327,2.114907909469189,0.42146295201000905
18.604529527014655,-201.04240758227795,82.87176429628771,-7.160124649603694,-6.73067742367546,-12.701966541888025
13.394912442115725,47.989134366720265,9.371450566365205,4.104791825605221,4.942776956602757,-2.731292842395594
-7.511219540085062,19.089159796872202,-4.1708697034370505,-0.4798252598275914,6.06941299250994,-1.1214016973281788
-7.694914641616972,-5.775324212002802,-15.183812543344747,0.2996627910798316,2.4640667865666863,-1.1058822872458682
8.783174878393016,13.653622461024682,-10.896497810432,5.655409919482713,3.6648656063225644,1.001573337443154
3.311544573829572,-5.82493623991582,3.249591561675466,5.458746149429624,6.3343363816293925,-1.7333891460724833
18.08860473729051,27.519201917198405,2.488421459997581,-3.761487490445214,16.110998691683804,-7.918662264673223
45.81660448898987,-7.821666702120685,11.841451069579213,-0.6043892642952757,44.593109903343645,-26.560232728314986
-18.066908150007087,8.242067976842904,-0.1804907056761449,-0.4647587339782932,-23.247895987190308,6.324112555568222
-16.493638642049,15.166784462190115,-2.0013794852936018,1.64463605427211,-9.358218054405901,2.6347850737495593
-9.276595707211529,15.36634180384855,-4.483630857685201,0.13573017533098453,-6.7518717266216415,3.8342134731014728
-17.172790955005443,26.673782897618665,-7.808252923422107,-0.7056506066972984,-6.590593731442752,5.1541077366776
-27.26346936941564,11.89430762324238,-3.0796965207854132,1.9200961619119195,-3.7460222842420703,-0.011396742289076042
-11.401822752727032,6.375932538482676,-3.255830409126946,7.016140586882448,-6.843678605034605,-1.789529786999689
17.858833460858484,0.19503219912087388,18.98711523487688,-6.387340475560097,5.153829290550746,-5.258511395242163
-12.982161357733258,11.28774658205077,-38.54220238098646,0.7795753950551778,-5.022014325856298,3.636859133320395
-12.667440895134947,3.506361670626572,-13.511293453516862,5.145342620816523,-3.6231019589114055,3.5530132890766293
-7.012255361950872,24.027428180816536,-13.663822643671136,3.9183982356014515,-3.9122583104526276,2.5403861172147124
-3.548008926343421,7.999239857147917,-3.197711299802837,8.811223671386816,-5.188226108956026,1.8777038989029986
-3.3754735140800203,-1.6125618903199905,-9.504053748092797,6.246614671329704,-7.605492871919147,4.594463001021088
4.067578658912485,2.6475468536826945,-13.853251128592204,7.463446766904192,-4.478940058759068,6.114408686688861
-8.800318285701524,0.6192412214777381,-12.660646055635047,-5.218664581170065,-13.647276425942223,5.455095398792821
15.141677616243618,-12.00590323677802,10.49284990194607,-4.293048079435935,20.721221817661135,-11.785431609162103
-3.3593177048413096,47.29820505062157,-0.768075100011929,-3.0422265342518884,6.814162091807035,-9.593485541727963
-7.6154056255746605,-5.183446901106093,5.377471595830452,-5.94640017791974,0.3084768538275474,-6.16068390615857
-2.069775572424017,-33.234151601120125,13.093007036369757,-6.650602584779394,5.655412927058954,-3.7768320570064695
0.9056026677554988,-29.07466536707138,18.34961796248397,-0.5654873902532309,2.7458357159594122,2.828237079005909
11.444239954374558,10.052701513952403,-15.009904653754564,4.625994720966616,-2.5472824595073327,3.780404915703059
11.544278740030784,-14.887549086079835,-16.901315901017476,9.46900769935658,-7.147207805283699,3.128210492927887
-8.995018238462016,42.38709153281596,39.71216094225807,-6.586867048790282,8.286415124730908,-7.0733845888043
-9.39496874054414,14.232092849480322,10.596669895882613,-13.632982992256778,4.509173710706937,-2.0243952952831417
2.3431381835786396,3.3973475752766373,14.988239109586516,-5.566559209922339,1.8788702347867656,-3.388291011226077
-4.861205243118388,-0.6555687031256617,9.264256644524126,-0.7524383844263011,5.504241715818446,1.2117805680547549
-7.002885530585752,-1.940691214841189,7.477841965628112,0.7083423751711513,8.141388692559685,1.9921553378451051
2.9678093454985763,-23.60144247437818,-3.312065881079805,-5.566128062304482,-1.4184437824945741,0.4644694685678288
1.9936549757315651,-5.098257707272889,-1.5907570363676522,5.141781754712703,-1.2380533144576815,-0.13209256286957927
26.200953556287985,-37.265455430118045,2.39839529693378,-12.755181382409344,-22.43129037481187,9.392252776123193
9.536500994141896,-16.301936108184854,3.2530247284618237,-5.868467506270993,0.1094182184032304,7.561640195722496
0.5846836144412163,-10.466381183625902,3.166478390816116,-7.473766160416159,0.617188541167681,-0.20732332786317986
-16.19038854871402,20.390867501974412,-3.375772383323172,1.9923546558212828,2.16439595886032,-2.169007364241203
-5.44883739371467,5.989318840275913,-2.2510098863503516,-1.6921097367109181,1.9638848837243266,-4.507347359087349
1.9861676958680066,-13.587464245416525,7.212509555013224,-6.839413613817093,3.2654784535178463,-3.7118087888238995
4.915864220565846,1.4742959604663366,5.77339123511588,6.640821728264476,4.697240246682,-1.9606529590311244
-2.0205689417466037,-51.9691730727808,-40.627950787464584,-24.933982907306987,-3.9436545581621254,3.2544408795597284
12.050040436647175,-9.963864979785036,3.360594655660278,7.062887320930739,0.6280090915478399,-1.317725340154598
8.253478769605064,-4.988441446500806,-1.1032397840857109,3.698758046062535,3.7799299191993088,4.321149403153222
4.832156487849589,-2.707664325790695,3.4754827792367182,1.8574944080640479,9.31356861229363,-2.544233194476499
-14.63070421834962,2.312989932436318,7.943021791369864,-1.9005995999658318,-1.776853277420064,-4.200918555523383
-8.232622036955027,2.550228435320668,14.602803925126695,2.1454416257093842,-4.444338259947493,-2.762966769274607
12.596177768776222,-4.392261688712095,3.8570765228619743,-4.940557970081961,-4.796102862676533,-1.8350170410835176
-25.09726106460367,-1.7869155327555286,1.90807802453108,-0.5035045927829724,28.3721353720342,-5.439215620570986
0.9439073053361826,-0.1779665496070662,-0.8759607402408176,8.889463150183904,-10.212024148490972,-2.883221429860832
5.578260606325436,-2.646109837325782,2.4578279711373163,4.656809256712787,-2.633797400276879,2.9184271451255244
5.713290532130762,-8.458532164822447,-1.4310104022322563,-0.509108105277426,-3.46305272016465,2.6395911813060526
6.21710116360737,-5.069837340381731,-3.8985080156307874,2.211766267333731,-6.017499212221686,2.1691896224125107
5.898913602127848,4.897886189395081,-4.987979430338745,-1.1724398002830663,-9.179764997465476,2.0026537747074187
-8.576106435516966,2.8487197652739527,7.034956940771387,-1.310733151550328,3.973458801607756,-0.5850998186361341
2.421085226298288,-2.306737008887132,27.16579130576655,22.741369142277005,7.200313206437764,-2.9804472740211394
2.1844395051491583,1.5543958158195785,-14.537086895348438,-10.586883711592645,-5.7930397531731215,-1.3337100024434045
8.105135621789467,3.9480533074536743,-11.49900408556577,-2.57922209149448,-3.9074622104113645,-2.532906131874663
6.571467619769316,1.3783481363075567,-8.44823391075382,-5.7359494469695305,-0.6920699758455162,0.6846231833181715
-1.0617218351159505,5.9348586873545495,-6.343513553725354,-1.4869854889955734,7.466342342892781,0.13237724072047374
-6.60081327446914,1.3956371344544918,-0.5133544756407892,-5.859150538602112,3.1138199446796375,1.9157668037445679
-4.04125516213429,0.5781420417257531,-0.5822993277153934,3.1529305809159465,-0.6076558903627101,0.9414167721162967
26.51254344801691,-7.3201273951895045,7.650284224463695,5.280086312794014,-16.970862662889896,2.4186866208686495
-19.37832166028891,9.221991825337302,-7.493886777444999,-2.507709538009379,15.331289339901065,-5.214996159311772
-4.955032506728875,3.0597484246888307,-4.16965640171863,-2.64143725589996,2.1436902002159677,-2.5773356922702018
-5.267334338875673,8.343503551799254,-3.6773348864997235,1.3606671542501145,1.817990377136552,-0.8352012449997084
-5.152702092053628,3.1602717027835125,2.5670558034272526,-0.8572799344367571,4.813330285658496,0.10115037275638161
-3.643998896473267,-4.224325182465789,5.281550793340061,-3.343655482981758,-0.20653708591964692,-0.9168142450567046
4.3290801478126895,-1.2274006196573068,-3.541624301501149,-0.9965762704342653,-3.0282722292604385,1.7275789221024258
2.202101348442089,0.5056688180126208,-8.67448880528319,-7.461262568524911,-1.5590719860214866,2.470954996488347
-9.305376651088057,-2.2638061419547815,8.199423816581923,5.376087756746522,2.5077444591453455,-0.781211493041197
-4.63235771364883,-2.726824454541125,5.131235005188495,2.691359286993694,-3.266934012475229,-0.48941812774991905
5.460891197243076,-6.337956260852666,7.194328261689744,-2.0840284214789637,-6.175289659936448,0.6709314044316694
4.436823914861597,-2.84101141714194,6.678468158636691,1.0765362895276054,-1.7608031965179611,0.34852726532328926
-2.1812140824782045,-1.65253925198674,2.111637365145553,-0.7117958345445059,5.288678171882393,-2.4149496710520317
-3.069083747650059,3.209948143005543,-3.6609272214511432,-2.7276726105054223,2.0164491839015386,-2.0355955062431423
-12.766771102268253,5.238537522635031,-7.611115640431585,0.2088863480894847,3.22977926953827,-1.6767684759326313
15.317698348445806,-3.8637983979562542,8.573305458296637,0.6471142595532431,-2.2583103898167978,5.629378502537132
-1.1347743627249511,-3.41379366638298,4.589234409652419,-0.19657115896374988,1.3851294348578984,-1.2326789946548755
7.260153814225335,-3.4417572492487936,3.0348934626292396,-2.975250857492358,-0.17635638123722597,-0.4626198523315971
-1.5352342373809715,-0.3516653678346954,-2.3182337491740324,2.1961181293499794,1.883682125820883,-0.5847610569009206
-0.5556407632835667,1.3796004722093516,-2.255914663798792,3.5017565362203107,3.239698875346169,-2.0233807687992775
-5.0893827893820465,1.5150940422260908,1.3398172787619314,0.723104281277447,-1.9468959980539295,-1.019796281801553
1.6432160505176212,0.6576836054457613,4.471174678064441,-1.0385197749261144,-1.2068548331106304,-0.8687298784964133
4.51592711246219,-5.046892801211219,1.2981895095059703,-4.968333572907281,-3.3742821697650864,2.4620371174605533
-0.31466494959431357,3.0801626972843006,-2.5135226312565853,1.140618792047209,2.4488692800230965,-2.154572287102904
-5.911660124125767,-0.24838395433996302,-2.449276623764027,0.30710117852929875,2.8415187544061187,-2.1216370718579967
-4.00561760859846,0.6070376316958189,1.0864754115797608,-1.6879175631880834,-0.18590286047680366,1.776228698592604
-0.18312123396842384,-2.310958878309234,-0.22502399354249192,0.11268794298206364,-3.2887940412023453,1.5811101420577025
3.621827452162269,0.20015340694599132,3.635288575454227,-0.5033054273500042,-0.486209381232362,-0.055883364900083575
7.444354420921068,-0.27442333751516,2.3960799739831558,-1.203643462591641,1.4957017857885333,-0.9394520242188501
-5.236277776091611,1.6684602516710638,-2.4729670802596218,-1.6751565013166743,-0.4402144305938404,-2.9533773504643746
0.2144586188462081,3.286319782588754,-4.229090058384243,1.793262101482581,-0.017105943206165986,0.14211471903252623
-6.668269632917661,0.008731552984206775,0.30584304752866937,0.980511652283467,1.9556140722140762,-0.7515478773974344
2.7711494715952893,-1.3243453437740451,3.3014744684965907,-2.1999276327613186,-0.5301929242797301,1.4846667356058934
5.479404799934672,-1.6592578826382336,3.870849919342673,-2.502357067002101,-3.7280976850963254,1.9354618042201035
2.8226838505067837,-2.288339703869984,0.6651124445103063,1.3143870304193246,1.9774936856100078,-1.4452852335258182
-4.848848633193166,-1.6089687906148114,0.495976993087335,1.6672697065593192,1.6036256116471517,-2.294139478770875
-1.4330177011670042,3.2776192430738105,1.7990897198861655,0.019768433823573236,1.0416902967909427,-1.9824053544367892
2.6183238890843197,-1.6473092853410787,4.79416830415782,-0.6912110430836607,-3.937378782401563,3.302932206810222
3.043095001420369,0.3355549705755491,2.341708773506413,0.06706223749646381,-0.035955410739206606,0.35299214238649734
-0.6382884893207408,-2.1637350853562562,-0.8702966517894061,-0.23998865927019647,0.37906160760068774,-1.713222811138716
0.9961091762810472,-1.5363551718855653,0.7153627252827508,-0.4327221585787294,-1.207408362056059,0.09960897914091082
-4.07250107575164,-0.19794401428427222,-0.736831619208129,0.9515096325488475,1.035592376236853,0.3923269378361782
-6.173235337505087,-1.841573544428114,0.8972942091050733,0.6098594088270781,-0.8688291214991932,1.4762959091522299
1.087575653751173,-2.628292588460382,5.654624594546493,1.6806723880294785,0.029104976954642536,0.4204216662394645
1.000331190784259,0.11632650697265141,3.1622488829956477,-2.4802023383870817,-0.8996964873099661,0.6501896271530718
0.6427686586763686,2.08321760358325,-3.2573505403846004,0.25816937317256206,0.9447635648722699,-0.8137058358774095
-3.326745622608217,-0.11728342115734605,-2.2235333835033204,1.5561243425982376,2.3419305659734477,-2.302864270191586
-3.491753995742825,0.47487795671458005,-1.347837949614474,0.2671355027981093,2.535700222145899,-2.0653414521113307
-0.49592477699598037,0.21633636006767779,0.02908681499612134,-2.380103537121646,-2.200200605755554,1.185609230907915
1.3808955676825165,-0.6967116848841414,0.18210555669771022,-0.2909648025748726,0.48748810317224756,0.8121579179616136
0.22190175728913442,-2.5658811496293312,1.3648033579117782,1.0662015012683383,-0.7595468169766766,-0.6937121918825361
0.6019971418809003,2.11806059662532,-2.423882160761238,-0.7376179554335835,1.6942071033363844,-2.975015851532556
-3.25464929388622,0.9133870291646334,-0.09498212721194502,1.0846983735884483,-0.9479101885682065,0.1017007060669463
-1.0818519358240088,1.085040927648761,-0.6102408530692434,0.21340255986532364,1.3950860556363862,0.027242191100351032
0.07826825593266085,-0.03594650031436193,2.2215047763371487,-0.5728909656680925,-0.3270451286114703,-0.44021229286060704
4.091376699023159,-0.8612126870378012,0.7119549962120808,-2.0479732955930934,-1.5593664210337959,-0.23417159413899385
4.4067823726423,1.1558039088371828,-2.625193592105038,-0.12402041374480788,-0.3576897835974483,-1.0814560209827728
-3.4442609995552185,-0.36249145513028086,-1.5536561083011873,-0.6544155237087426,-0.2233841327410273,1.0324786369175496
-3.333449156329189,-1.4573275588347396,-0.03466046446403355,1.144888099719719,1.5767805869021876,-1.1853251462007959
-0.07003110561960169,-1.7013297654549246,3.3049970417984333,-1.4555693556484957,-1.4241707487263575,2.1069923829096138
2.181023551933767,0.841557082656967,0.6597254873253294,-0.37540926796669727,-0.5723491181236813,-0.0007683035690245199
1.3112450846682473,0.7863133578281238,1.122060907401162,0.2972030657198575,0.1513312973770217,-0.7852991067216373
-1.6347145426663816,-1.1513208072924268,1.7901862349952442,1.3427686516087907,1.5021877545844204,-1.7434951256033702
-1.563727267621867,0.1438397617931792,0.7878962840012668,0.24064131762313373,0.19254761025642014,-0.5915862216967338
0.758206364698228,1.3922121223892288,-1.3198819059926965,-1.2363402774906227,-0.2580099110693813,-0.10854576200459631
-2.5704760558694293,-3.038579258480819,3.4826878021125456,0.7022445564601862,0.08455661452270172,0.4181116196486485
3.8723328428132744,0.0872433024943236,0.146063467275034,-0.9750110618172999,-0.6258435335118917,-0.4505058383100622
-0.7890733274661186,-0.828223085690098,-0.00027378071886426103,0.4404236840931959,-0.5647770685344757,-1.1471320776384104
-1.5236637564724815,-0.6104582799583359,-2.0785871236718716,1.0158259326034682,0.6872343866700569,-0.9168318692299411
-3.030918566651467,-2.3784182169632024,0.6849508898914435,0.5011836923916941,0.23079439113234046,-0.7770781750099196
0.15558059730239487,-0.7035191818751927,2.3787151618425955,-1.0403787114027685,0.4913144471378949,-0.06513999885369531
3.2524768470342154,0.3485721473925527,0.0689089568163046,0.20652966624911773,0.7136320705887048,-1.2365507025811402
0.7554525451824075,1.028686725548222,-1.1808760243879117,-0.21470282856592918,-1.7384529963414623,0.45233614835178776
1.3996952980992265,0.34263011497971235,-0.9532528371493059,0.8559798826374957,1.3664026013508228,-1.6042688766284734
-1.8618483909074461,-1.0990110532037132,0.22295179843780819,-0.6889786415205347,-0.6153500515652155,0.969670218686351
-2.509854193414877,-0.44157185130177934,-0.0669026958520848,-0.2915203014131188,0.33589105757793597,1.1240295180896893
1.0169882984125471,-0.05116720917260775,0.5997648282991623,-0.6827559569004715,-0.8687398530269714,-0.15543879502897354
0.3303227227616864,-1.5235495430921921,1.093942621654324,-0.24601723094298417,0.3631841727738128,-0.7651439336598944
-0.27932289131696514,-0.6746541631156184,-0.14688209591636886,0.48016011399098246,0.9662330058597133,-1.0145540660426227
-1.2976336459500895,1.5102476219534904,-0.9675951114978207,-1.1361834335267773,0.4373696322352759,0.14398035546266935
-1.8011488697616924,-0.38205944237781075,2.016770131364196,0.6649575435052641,-0.15427207044358088,-0.8614148920495203
1.2668555793196243,0.20991179093308943,0.8946660044343162,-0.3857515966629999,-0.9304611054378763,0.8349323783487449
-0.20257393851236294,0.08607625128495935,1.6260904698101697,-0.7807534612133684,0.019687758964797658,0.35188435211666885
-0.6402088852526062,-0.07124833374934947,0.6628745984775855,0.41891003831997087,0.3918890927129879,-0.5869892868639242
-1.5117975205425531,-0.8129258536194287,0.023090423427501332,1.078074659124606,-1.3250362960234572,-0.944691352815334
-1.9972658663047522,-1.286078278551591,0.6766124125422446,-0.11568660948196387,-0.7446620817010807,-0.7389959252595028
-0.7788021965691765,-0.6019233337770636,1.0458159278208194,-0.34488908696899095,1.7055145992877132,-0.7007117659331636
0.780736506067619,-0.4227544620248995,0.9472588309495931,-0.13385973875750662,-0.5613209362624185,0.020089472314183038
3.0590147708500526,-0.7255720706683002,0.1636621533570857,0.7400226492579048,0.3829317458122534,-0.947314319312846
2.406646679789987,0.053076553341153604,-0.08516844929211113,0.3526948699669843,-1.1329327944993965,-0.8164167038716108
-0.945312476898052,-0.017607732747752985,-0.8463782779315216,0.09067529303471472,0.946018233534662,0.2681483610026124
0.609672990687291,0.30730064250078837,-0.17519463929577142,-0.2213187027523595,-0.9714888945593051,0.10517151534080607
-0.4613282040519673,-1.2253399719530882,1.013462135557915,-0.8314308719564751,-0.35006488923444123,-0.2256295352353695
0.403889117896464,-1.3714724400958442,0.8506296862065141,0.9637279095808521,-0.02211797085404521,-1.2783844665094373
0.6028160287732979,-0.7137941161809929,-0.16081557520239553,-0.591851900712951,1.2377918074281034,-0.27129413018079895
-0.7760927872498626,-0.45681242093572316,0.40450529994580975,0.1539650119319793,0.17321099828932887,-0.9261155841502651
-1.279716905050705,0.41038524153069766,-0.39680253024699697,0.18036191351246267,0.7269696063782396,-0.7078524179187109
0.8793250980501656,0.464284067662479,0.22363880535542796,-0.6931216878128719,-0.37331188919610037,-0.18562390330944487
-0.6550937340976837,0.1291576132270454,-0.02234144009037045,-0.7305270593613867,1.0348377715931019,-0.35351066191960867
0.5930655526201873,-0.5919404830579816,0.12155403816210852,0.3723511917766514,-0.25975818749403085,-0.06742558510917943
-0.2768197132158467,-0.22113364134042895,-0.03810282935708517,0.44672430508015526,-1.880585437079705,-0.31835674814107473
-3.257455953059933,-0.17839750471236393,-0.30188694354485596,0.5785273151742685,0.8849511647081182,-0.5425112070595587
-1.318283562030087,0.47228755506679637,0.5517914658132654,-0.5280267440849858,-0.3871791981573001,-0.3107027274830934
-1.5730281523101008,-0.5026763384299449,0.7684655810939286,-0.17527935664894687,0.6817857627263484,-0.7251944921166676
2.2073684999431493,0.05163286834373382,0.8634601932481916,-0.22646728321171736,-0.0866187477445218,-1.1330193756337643
-0.23698273214232474,-0.7705272479271502,0.10524387249377282,-0.4211683075753594,0.022989751748076326,0.46561387770378176
-0.3045262015932823,-0.16099475093922594,-0.05582212583467305,0.3128233072519101,-0.010722544562381392,0.18579545628034516
-1.3625562579595103,-0.141909508803405,0.22550780401424886,-0.0860668042604005,0.035336033880166554,-0.022947412602546326
-1.5322741969829758,-1.1459973269047028,1.2477589564681029,-0.38752417408466183,-0.4413904650549869,-0.3750944959799342
1.2197336094441642,-0.4452006872563283,1.1055202889388123,-0.09714598294992155,0.6348985843911209,-0.4818049051938574
0.18335516324059203,-0.36012961522835774,1.280010894739751,0.05710850839718776,-0.37657235216378276,-0.3303782960877385
0.28367220896683515,-0.6081417244339004,0.490736473923138,0.08426424409729652,-0.3827010646735477,-0.7616252258836714
1.1872581366309516,-0.043856442029877166,0.4367358885891119,0.2102399067453127,-0.7390727140514858,-0.28297630923371625
0.30178357157560515,0.3779679540539784,0.32613433804185543,-0.1477542539305553,0.6285825589098127,-0.4915662936517705
