Gx,Gy,Gz,Ax,Ay,Az
4.902047999999998,0.995735000000002,-0.63463,21.851999999999997,-402.12600000000003,56.786
1.3107530116184187,6.212290920059894,-0.4517215010833726,1.787601487515441,-3.2652400838483464,-6.910281975934413
-13.027537612114946,16.733676508919892,0.8937979209803013,1.0991525556683677,-0.5538957007833143,-1.5088192161344245
4.403680548406752,-20.364559677277523,-1.2341356065164735,-3.5184352237305316,-0.7602651979597714,-0.3063397523393525
-19.119658374094996,112.34935154883229,-56.21932440805342,-6.670399099734169,0.38538121635661393,0.2939552175767291
17.878535403600367,8.25696577178181,-8.758359839144823,-4.416371783404872,-3.66863314520293,2.23442208163821
9.59260665178816,-3.668255557744165,9.74271640474456,-1.4157415964855575,0.09210024914858295,1.365753229137927
11.983979115329658,22.417781953055414,-5.931253901653755,-3.670578089368335,-5.113295937801906,4.036341234087422
-11.153170017896137,37.794547042268626,-15.417802837897792,-5.970709617235824,39.87914149106773,-48.482105343146706
-6.023777967428923,-22.17742069671852,2.1369716855623344,-2.1429958295700007,1.4042597044350473,-3.0579946490272745
0.2755306040038392,18.590395250335163,-5.349626416694328,-1.6003967189426365,-4.541170680594176,-0.4763337469643525
-7.195670613913727,-23.18298264795203,6.347011298460756,-1.3537185635620523,6.959868124053584,-3.4512425068236663
16.3950935319111,115.08180223141373,7.235925256198628,8.281047767634725,0.30184886862136895,0.4679030200925941
4.3318066615569375,2.4888488693992006,5.615848799941995,0.610626632877767,0.5726398169135622,-3.5087588721860024
-3.282973367852771,-0.800181881464096,1.388112938336727,-0.4741703424410837,7.041849206566634,-3.929644102475801
4.386558739771108,0.9357274616028459,-2.374431295310076,-0.03861341134078078,-5.065529167774488,-9.123586759149887
2.0544852357805654,43.787958203230545,-5.640650662869216,9.375743148942625,-3.5744064702519203,23.973615043191728
3.9013601710790216,14.40695414435977,-17.17549313040894,2.57086624984273,0.7284055003200649,-0.9231320201805868
7.715274593484178,23.29936764365186,-3.4513502971760874,1.3430487821436117,-1.633030064282745,-1.1079157308308378
0.5157485642258999,13.699374137266807,-10.72372105153341,2.867300952541153,9.370653210383987,3.1887667716385293
-12.029832557187738,-45.07164215713939,20.105130663818258,-18.693928418688017,6.6768093093797685,0.3455487556871406
4.1827126012571485,0.7297506082489058,1.0406792861338192,3.014925371122297,3.541480020279688,1.3392225394769346
-9.022583678883448,-33.494228406542305,-5.110869162249584,-11.120400698516166,16.68396692871002,-0.7051750102307887
1.8063811007267927,-13.2115424025998,3.1935047119970905,-2.0832979067099995,14.921931807762853,4.848348782425984
4.965015321869818,14.01403287237378,-6.08419274528754,4.175117496936249,-26.7618638308843,-4.441943764761048
-7.880910416281544,-7.847161433506832,4.889380181574127,-1.1407567850185942,-0.17933097195441972,3.2653518327092304
5.75796895863311,-17.48634979893545,-20.12645683610053,-16.36960576641586,-11.432421853033144,-2.873316519060289
-5.413970069488624,23.790205444027272,-5.49448419891967,-5.206009405712029,1.396169237596467,1.664083798475483
-7.396493545869179,2.799587606596311,19.1356609221033,29.28958522918188,-4.1015148661391905,-1.415331978197909
-2.470681122518272,14.697396162104924,5.630640544555166,3.696202543847507,-2.0944259059402697,1.0783598333185411
3.4954866973278085,-4.954338955123433,12.863744661586708,8.027501709746758,-8.749557810730725,9.834958382658236
2.5027702589771814,-6.284957159669677,7.478970079929564,-2.8394219400580765,-3.679089664260084,4.131752022673638
-19.063581942421315,-3.169396646863043,0.44148613429104844,-8.25931413084709,6.715069817834124,-10.492507604682874
2.1820213664035526,7.411858829730304,0.5157394577924955,2.056550439063523,-4.269395223070792,-0.3339267638493135
-4.87725504111485,8.131552722191747,-2.7585834586204734,13.538729506378338,2.43481130082651,-4.087665896992332
-0.24241720860845706,-6.565871883802805,-4.2268107077533665,3.6879167778335122,-6.560195422970089,-0.33493455771081476
4.318478555817638,-4.817802078959189,3.851565431046633,-9.086970265031551,5.68650943267779,1.898518854447202
2.187311584136219,-2.27171869804925,-2.434900422571256,-0.5221634053132584,2.0455972927440667,0.5921554828495033
6.670342892567436,1.8645117159796394,-3.7342985717028965,-0.7131112767842143,9.297607605256635,-3.9886475986261023
9.249057449581088,6.9191719373291605,-1.9125842349734574,5.00779802223717,0.4219106176964378,-2.1870623244368774
-8.171736050437545,1.9542505491115276,3.8294215581425224,-2.27862518924168,-11.983917219216304,10.48991060800957
-1.544453485355096,-7.9328302291249155,4.257080556454553,0.912106164453792,2.289263027797846,-0.2451641783818158
-7.943410616401776,0.534288914157667,5.291001146943353,-4.014376559245008,-1.1426459033561427,4.639053016286321
4.294875342252205,-0.4850706615929061,3.4078568827103735,-2.1181567842545377,-0.5255075067849364,-0.6065231257197716
-2.37690723201029,4.682111574857574,-5.460371378275496,7.622216354261838,2.128960696701567,-3.860941880276516
-2.441157021948785,2.752887463924125,-1.907967645709542,-2.9288574394388007,-0.8838890059138116,-0.9234242469907963
-7.4632949687706045,1.7886425577862397,1.667247732349284,0.0486227547661775,-1.7624905280940766,0.7756137703103225
-5.71230175769833,-0.2231301063254768,-1.223162833275661,-0.21684181269881941,-0.5954076365084384,0.5612421157880209
8.177714335627062,-3.4905594648107545,-0.7372427494718057,-2.021425666049664,1.4645196641376144,-0.9272645439093936
-0.16166057523684707,-0.02325802247997455,1.261156984620225,-1.0118166975065557,-0.8708284871575911,-1.1507175022236944
2.817245133402558,2.622305026477287,-5.555090665836822,-0.7236347123566039,-1.790472954375975,2.8982041335426207
3.562988428909247,-0.309299688978642,2.3040329540740707,-2.300753601959954,0.17754132219720375,0.38369108109320793
-2.810930764911247,1.6910440930211947,-1.5599542569900362,1.6773970817327388,-0.8906212192834955,1.3519776642491879
-1.4075161656800774,-1.4301000244599629,-0.3996949292091384,0.24990687339112583,-2.371940373150834,2.1669662465387347
4.985969787933928,-5.316464434504629,1.2868935224478548,-0.10874187762080811,-1.4670251929960803,2.9655157116700295
-0.7141277385292435,-1.6315521068453476,0.9438872279084278,-0.8625859765492158,-2.0335904921683863,2.7773776943441946
-2.664078208135575,-2.146526521768604,-0.4141287115222718,2.4160594826439916,3.1919650810501707,-3.9930537972722724
0.0077721069288390066,0.5620264298601374,2.718068559288004,0.10084940062462167,0.9210067082781286,-0.7334852765377224
-5.969109949809923,-2.2908164520929004,1.1302737420120086,1.4218062385883,1.4987558083359729,-2.569588277557866
-2.4482285643967723,0.26211512858579894,-1.5484397760487707,2.3691931994826767,1.1418916990786108,-2.4979019546408394
4.621613545834773,2.2088168248946674,0.31498845028944134,-1.220370500926068,-0.21717050390648707,-0.09872172576006166
-0.9271766276218711,1.381562665045596,-0.2521058385728372,1.3433149445008636,1.0028300994713297,-0.8213558243508197
0.03738426223006108,1.0500869472981393,-2.408976000307827,-0.6797198462263514,-0.688576236677017,-1.7486201048751395
4.13427532682469,3.0338064041420365,0.18354160586736712,-0.4708949236156208,0.3269531924552113,-2.9697299675153737
0.5521839882400346,-0.6881914157990967,-0.35443053271492264,2.0498928346357923,-1.428758648493253,2.233485543750472
3.8035887241146433,-1.200684789221929,0.9790567768990361,-1.334219097655689,-0.5009485982435642,-0.23434048180300393
0.9446757490568816,3.5733346205585326,1.188458174710918,-0.9990408461353342,-0.6241833484646535,0.15179856953327442
1.634904899822061,-4.251551196822351,-1.1124716413165094,-0.6559183061660727,-0.7894117742015099,0.6840019990361861
-5.09688394612647,0.3995390895085533,0.9559670000295888,0.9525260055489704,1.1608580613559099,-1.214267451420712
-3.298164031434685,0.49053695468894976,-0.29929852383868466,-1.0464571895600934,0.7076681698102568,-0.9533095840671153
0.5338297161351229,-0.1552502405767866,-0.41191033960238943,0.17238824032201816,0.21694676833055582,1.2597281285135562
-1.0903941872116847,-1.8005774489057782,-1.011938854451313,0.10951445076865662,1.2698589012933748,0.9996556428087296
0.9991247160145874,0.9385138999602702,-0.7410951232460364,0.8410675177108569,0.3137819132501771,-0.12644319192992048
-1.7612780052016008,-1.8802218083522781,-2.3588612872878056,0.0827415512185753,0.6966767405727163,0.22914580105023608
-1.2253837914127248,-0.3746872331325781,1.1521913373927544,0.5544948335395593,0.13908078097581084,-0.6851807822456965
2.6996895304176145,-1.953132001784743,-0.7714482814979976,-0.35681786123861214,-0.7148791959011082,0.21795864955498123
-0.5435782685990933,-2.1844029207613516,0.26185959903461437,-1.002562879507901,1.5015696811256771,0.14355886406119353
1.0834443133414737,-2.3485339714202347,1.4057626519832183,-0.9421429961993963,-0.7016323455595321,0.4052824412304128
-1.6541360383491956,0.49724685677500924,-0.5896427111137599,0.5724950755076248,0.3093023826674113,-1.2605807701529392
-1.158883792030135,-2.0643381311227245,-0.29012031328194476,-0.15017787689157364,-0.823627924315492,0.39812287191425005
-0.6066895046981533,-0.10012895336394112,1.6775659950047188,-1.4067106734455936,0.1242517469986284,0.19589733591800962
-2.4320034244730246,-0.8476603912860279,1.2758814163843784,-0.7157281989993034,-1.1111743527237221,1.1158854408320673
2.845464937894815,-1.3947094894485021,-1.0219380862805774,-0.322058232289789,0.333768086337612,-0.3143364997821403
-1.5678535408636576,0.7861875402727458,1.4498704722391933,-0.3853436688010813,-0.33041599855685444,0.1244626271908964
2.1836567021764064,-1.8630748127746195,-1.4455027805027363,0.5628356704541542,-2.019225567443785,0.15460942362893892
1.6739940216021245,-0.5248538769074138,-0.6746193357512587,0.1546867693560876,-0.3549089543805408,-0.035842396580648916
-2.7885074659673847,-0.1754927970330561,0.8812281842447165,-1.4939395019244726,0.005128007900768061,-0.22404178798011154
0.5784776269478673,-0.04937963564887837,-0.7015138648587778,-0.22843409260683023,0.3117989695999443,-1.0038497437203897
-2.4308020900680294,-0.42826603960071774,-0.8555913265622506,0.32290044495392567,0.24381620705273893,-0.4460665083414105
2.470940709902843,1.4022261761684613,1.2236323927425514,0.6622868541290643,0.33322151382385656,-0.4892889591804285
-3.55851110965083,-0.3302262439000141,0.3363078722233389,-0.6064729859815396,0.3850823374252922,-0.13289404374950683
-0.6438131785916132,-1.3010372747693706,0.03679218681476426,-1.0733315585289058,0.8454288264659748,-0.4118357625414597
-1.799919018339144,1.088468886724634,0.6161664242035927,0.5150946559784274,1.28043764845521,0.1015184484777033
-2.476983730768027,-1.4374361348056461,0.5860937105925359,-0.4333263245957176,-0.4587762528174759,-0.29502640983537587
3.0725675293987718,0.16411027366547404,-1.1280650005270982,0.2366252557123476,-0.6334638125336298,0.19604972439736829
1.0069241943613432,0.8819156205131069,0.006112017625127142,-0.3128301051097643,-0.22197774025624245,0.8380349413624169
0.9269982639502204,-1.9208101648787954,0.17541793141581863,-0.4345433111602548,0.32044142713104795,-0.419814966000005
-0.551434867289132,-1.7211552691915402,0.4433660189134132,-0.8971526737315518,-0.22679997217157793,0.20935512817590884
