Gx,Gy,Gz,Ax,Ay,Az
-11.436700000000004,-13.478211999999997,-7.105263000000002,-13.314,-580.704,6.304
-3.3656474591006975,7.229610581217189,-1.5245903190021657,-0.6562777468144598,1.4389728696738144,2.7902633945665287
4.880464547742726,0.8218686008965694,-2.3697798020084724,-0.4067044808247097,1.4263142165248774,2.6062408644697976
7.545868828110523,0.3320505067429882,-5.3146539197172595,-0.47523535741610634,1.0790848137116271,2.028266938090864
6.364447739405968,-5.12650413824781,-8.636095666682937,0.05809259135120448,1.3694472598726177,4.555074055094586
17.680517003478244,-25.18690108010461,-58.92057929317889,-5.9534154537825295,-0.8088292045162546,1.002113843344275
1.5776272283121764,15.611703917294415,44.65671846372303,9.28577946205154,2.9054341106582453,5.673140604937833
1.6632859402053577,5.792681625105862,16.56738977503968,5.236539616098785,3.5308586606830343,8.29775011105667
0.09822505618964322,2.160690734951547,9.224228555643952,3.48808683891581,4.593683103389572,9.988883366199106
1.1231436847659264,9.140389078461018,7.723527843739829,4.101991213794907,0.16413426107057588,12.787542466766375
-10.23979048350076,1.6503867356588564,7.204975436364256,4.848575186116988,-8.283006862132632,24.868829127615165
17.74598382278814,2.0437439271899938,-5.2999999033487395,-1.473304002913411,15.723259210204787,-54.647940144695255
-5.751283369623401,2.438551248376584,1.5327899138006664,1.8396909304011442,-0.4957864232995363,-7.680359736048118
-4.9353931985566515,-5.367184346289047,-0.2670623170879849,3.924062320269667,-1.1060274841047584,-1.630729216416716
4.987123595899762,11.130740029983219,-1.49364407365421,4.5096897419086375,0.3203889981937125,-0.5028107249869554
-0.735197382824823,-8.233060743033853,-3.122589851434202,-0.37372958105628307,0.3715770526462987,-1.6048573596913864
6.793464636023062,-42.352815214843005,39.589551018382366,-9.5226732369336,10.455647731247755,0.7100754811848615
0.24304669761401787,-2.057880452881324,-23.333726326612457,0.5735229571837654,1.7142723931084447,-0.32503201132091186
-2.1890146143315867,-5.999316610201014,-8.276247904122926,-2.162269360083263,1.786409992727072,-3.3889605629891744
-2.0389571636962405,1.0183465174199353,-6.882548599363572,-2.5061558292460315,-3.1193156873657566,-3.697061391793298
6.467353650005118,-0.8304131647461632,-2.1178837765464262,-2.628216426486092,-3.8777693453543267,-2.9440819959567808
-1.1361833738611185,11.555581045607415,-4.692554479721718,0.39741195430886256,-11.09532543728901,-14.964809765174106
-9.097951154659125,-7.536012252963927,-2.2095309234849223,1.88906648317681,1.9890312111120163,15.196489438216977
-1.041911869563018,-1.5264038048704167,-1.9349907346297028,2.494663596538209,-0.918579817709598,4.396465986101925
-2.1065704892990755,-5.414711489593728,-6.6875402629506375,0.9304828090884676,-2.244334418066899,0.6395077321687358
-4.7158605655418,-25.503154377630693,-1.5386620284977097,-6.224769529587785,5.612216232280128,0.976966328682445
-0.006392060889048257,-28.304053506340587,0.07507845442989025,-8.058719359086078,2.0238645328564138,1.1762328904004025
5.199747488772682,42.53227687932249,-19.91040474960397,19.665840914749694,2.044687954747796,1.326549753995324
-3.8132454097829678,-2.6500046753353637,-0.1344928161361838,-2.368058528682233,5.795682937077851,0.8339987482111487
2.9053904031919515,1.5673517486892767,1.927737171616684,-2.4184468727163297,-0.3634557860389309,-0.4028220611263481
5.771485171556245,-4.1268715819807955,5.34640278108337,-0.5064419007710498,-3.4443962972637157,-2.088450609685628
-6.343037883861829,-1.6514346874888493,0.46947751934166404,2.2168281941405414,-5.674669464180536,-5.798108849743269
-46.925849047138314,-6.691211366279031,8.58513213427318,8.515879571912688,12.481018178364923,0.267739606990276
17.729050247906212,3.422334378928424,1.0596167332141504,1.9378471007069218,-12.050196174835474,-7.333119618940292
3.6183504710038044,-3.378338121879444,1.3164328701736565,3.271053123128426,-6.7957691373344264,-4.371963251646438
-1.5384436965908568,-8.65870484301135,5.190609595157724,-4.114295202888185,-5.247902448813512,-2.8295883523029772
-10.585440468984448,0.67491667429011,-0.3035204013070806,9.935690966941793,-2.9418615052789234,-2.705784860619455
-12.984185140636317,-12.42225141605567,-5.106766212728516,4.178364912848034,-5.077794558279983,-1.8560961078703013
3.9926038423968366,16.21095271205608,15.315593974322535,1.2304189170084427,-0.4384186684725688,-1.3028571245241114
-3.585390928216185,7.4282718468618825,4.188744873052588,3.1344023695780363,0.1884179110192679,-0.56921945021373
2.588363789802872,0.26768186706469177,0.609645959567118,-1.9242621305642809,-0.8809314409132356,-3.3695432506815175
-1.6930821671496696,-3.7135668757286298,1.333295372120637,-3.6076338307563116,-0.32702825301835226,-2.939064298470148
-2.585465058662096,5.33228068124971,0.38338117629353297,1.7763689885721137,4.87771822484609,-4.5844901731825365
10.646387599252506,2.7850736234419395,-10.084209590959341,-13.400991109446235,-20.46467121623617,18.23496951604823
-1.6595100773932603,2.752485533786137,3.5391698540145624,2.9491777060524846,3.714217666833492,-2.548433808382759
-7.325891688100835,2.480529366558733,1.2845112239119527,1.9361977525618967,6.572999769782971,-3.381979042824364
-7.055860351544289,5.941385948764226,-3.592689189036436,2.219801264664195,3.812750520877292,0.3520849420702259
-5.524667219145848,-7.403929373318116,-4.089418941994849,-9.514920116286476,0.7640868162765778,0.571974470739737
-15.157035540423237,-6.100327548209895,-10.767418967237504,-30.09421509280818,3.010271352654197,2.210321519197518
4.862177258529124,-9.046001267881039,6.360284876495493,6.035119273802585,-2.4212705121766485,-2.5298898166346424
-1.7563736945161632,-2.8933107444417017,1.3889929019768292,-0.2780627605379499,-0.9654612692877553,-3.360788860641059
-7.684191489771299,-2.0557169307182614,-0.5433032689769686,-5.5762127998950985,6.001535732153301,-1.2300678335365083
-15.261596907638971,3.806936066528084,-7.8827929238750105,-2.741244528331255,6.614008021128495,-4.531751308114197
-15.436620890566665,4.423563401964497,-5.990796579540653,0.8254806696165795,7.967731454806739,-3.317465680717315
27.54213433757157,-3.599355428425059,4.402616481613874,7.55640315111342,-4.26213950513209,-3.6878321398758547
1.2017502994338793,-0.03719470349004106,-1.8848820033324052,2.0214490082256766,1.3739639489646178,-1.748789163851081
0.0024424875864097473,-0.8061778421871099,-0.022143476181061494,0.6993319090387984,-0.9600790906298184,-0.31785452095832945
4.271021124942141,-5.231652794124628,3.569603131824146,-1.1109320211491387,-3.93919377693659,1.9035172194181667
3.5912439519584867,-2.021058767263414,2.806547482241136,-1.6081619215623113,-1.4150897115760106,1.5911353592949253
8.315440064857448,7.559260090031696,4.30482773979641,17.406421464780806,-1.4548978277161377,2.4100832896580977
3.555744031297531,-1.0816207221524186,-0.39931202704912216,-4.2391923691218985,-2.074384790505616,2.3388788943259904
-3.517065151692683,-0.8671634960390617,-0.09390203203668085,-5.289945887024714,2.0659502033547517,1.1097869836143195
-6.416425821665515,2.984261184783257,-6.0170458075580955,-2.433244611738984,1.2331650144804138,1.19924219810986
-2.1517196503249827,0.837037086539571,0.1198448870108717,1.1998845886272345,0.35630292292379995,1.733973289368833
11.896383138486971,-0.10963471384807824,-1.986438720198514,-1.793550245990089,-11.941729550537609,6.550262053180886
-19.295427799563623,2.0737623545672075,-5.1161755232213775,-1.7876639140064214,12.457719049489135,-5.259138579870842
-5.978553766280151,-0.3612740344441144,1.3630391044205563,0.3204525876604801,3.297493633933204,-1.0006248361976464
-3.4555221148398894,-0.054598845563683884,-1.5264973833811586,-2.740535477586843,-3.0257512663209747,0.9424260536816794
0.4402582072420296,-1.0674216075476735,0.9599475219540647,-2.673325562560869,-2.20458045490741,0.28382082032406564
-1.2119157224388553,-0.3491247076918917,-1.5298739405747166,-2.2947105020015677,-2.773906206016287,1.369807324152341
3.7616025734415857,-1.8676579943019465,3.451959908492633,1.1097119734083474,0.6478376901971952,-2.2975140344130134
-0.7624752489396457,-0.7681561984976355,-0.15965870704616575,-0.7842384412963123,2.1667755700624056,-0.05980959753136983
-1.3924191763284997,-1.343449789090644,0.5682661297879803,-0.9659453095790609,0.5561736649163085,-0.6587909806465095
0.8782151531078678,-0.6132375400513504,0.2821359928979087,0.5461182103421425,-0.6669872741380221,-0.2457149704835629
1.9320729509175187,0.8038543591273011,-3.6739967676575818,-0.41798220327675817,-0.012960895490846114,-1.8981171186844943
2.0754921106885735,-0.1224709700044703,1.735154680369217,0.21406344630658236,-0.41809660348326044,1.3926397179399868
5.051606234141413,-1.6387252495634914,0.5079547136963174,0.32588718921308757,-1.379353858964367,-1.296567621880268
1.44504140548618,-0.07692926112225269,-2.19070331904306,-0.30240766240850014,-2.079856342108039,-0.0874701348883937
2.5566844470182377,-0.8695849640027142,-1.8311549889302372,-1.183869254846928,-0.6554820067213759,0.6110086166496991
2.1238976546203565,0.755221439375656,0.6056746339984236,0.7256151832385532,-0.3811637633046018,-0.17385147157940664
1.0370667603182142,2.636980298859112,-4.460045157114731,1.2092433180202753,0.010971667860466883,-0.9602923514373107
-3.046685158568907,-0.08049676605456124,2.4754732846948024,-2.610005993800362,0.03877155117983151,2.0865534954499028
0.7806125608128731,-0.07892082768668757,0.31932990130737376,-0.5450581465567077,0.18813568204799141,-0.9945359542892503
0.7955395889888519,-0.2580426126113609,-1.3835739014209383,0.6829671703578493,-1.9423309642013304,-0.20302148935400421
0.09772164232697822,0.3904914874084866,-1.8603946258354285,0.4405132260385406,0.20148269838235922,0.047780815161111656
-4.126489268255379,0.5319042441824677,-2.306233383159668,-0.3220005662854921,0.19618259599998306,0.6863258202779359
-10.239296288619828,0.7669952856998592,0.9364809054122105,0.42132446536352103,3.4362792507682185,0.06258387973017603
-2.667828163893597,-0.4105599495881205,0.3244149786941711,0.2917015351791566,-1.1520540218487385,0.7174488293596332
-0.2898690405371872,0.546986306343827,-1.6845360176250035,-1.0058747643249861,-0.07195222102684182,0.31463456986375044
0.0677992864507414,2.6233631034177334,-1.6889279251291898,1.0289200470546824,0.5714014130500857,0.1067215383424976
-3.657303994314976,0.2710029412493564,-0.11190645806788768,-0.6011564234235974,0.34265040620738907,0.3255755471922711
-4.546872816350534,-3.819901233947706,1.9694462885882311,-0.977661275705809,1.5587133464422722,-0.01214361685729104
4.292315535854993,1.967984411421841,-1.5697619435178347,-0.3324563003832368,-0.9854686457307775,-0.23396415461698802
-0.5241540934358722,0.2923510556562227,0.3335401126212183,-0.1600920815522464,-0.30613621049578243,0.22762260135008427
-1.3327110569642335,-0.2701288371807614,-0.32763363398552114,0.3834189903833063,0.8942127988169583,0.3224995374098722
-1.4423373149806324,-0.6886472367633916,-0.16208609181245942,-0.07291838045805116,-0.04750982562168282,-0.613063330284418
2.6391944999999977,-1.8162670000000003,1.5499685000000007,-0.004000000000000364,-0.09000000000000197,-0.5169999999999987
4.876201325284544,0.09984699032533381,-0.7666312680506017,-0.2509171290318406,-3.4325300356185062,-1.381639392619082
0.45738910361372087,0.8184729860496824,-0.8684441719800294,-0.8084276174218026,0.5657665015966414,0.01743371538757496
-0.285988705709351,-0.3334475962002381,-0.06514491163446826,0.4332458176443889,0.7219986196582544,-0.2816260833723542
1.346304970602532,-1.4741959965351545,1.2073574504556217,-0.23648307547122377,-1.047827784587625,-0.22324155556356157
0.2437819225904283,0.5846543436611835,-0.5618772489483499,-0.12282307368609668,-0.9035940792765055,0.09484127902200229
0.3404883282594584,0.06387183100738913,-1.3415921845698646,-1.0659512473805453,-0.008278135744677374,0.31259645011795306
-2.4687987009549937,0.35208667453555176,-0.8108598676904899,0.8399482777292302,0.08721403327017557,0.0419118436753256
-0.8169869527961722,1.1725725833002771,-1.2489966006135842,0.8552733298371283,-0.5961961359893498,-0.4522352604259009
-0.5207124669688433,0.28206521812444435,-0.9191215071868951,-0.4500876894848546,-0.059737114624391296,0.3964854737829165
-2.491552967881453,0.7141606611948487,-1.2294915225619616,0.1393765326856517,2.261441857985899,-0.18148111595441402
-3.096994481114858,0.5978590098990302,-1.5177319377164156,0.18439509561603898,0.04701604957484795,0.7388960083400075
-4.521353815771204,-0.07833795458698137,-0.24881195413652413,-0.299376474615963,1.4035481371260758,0.8113539027783336
-1.1649652297296056,-1.1688558680754353,0.6630268286612901,0.10993389919274871,0.2826535638896247,0.39267209298773603
-1.1523028429307627,-1.0158670489982837,0.051681312604949625,0.5244803708545993,0.03757569829626045,0.5348016876418697
-0.8149743184829503,1.4321330381216941,-1.1502266329550757,-0.14005391915004295,0.33074152960529163,0.41903189439002664
-0.23828575793523354,0.07343263809729406,-0.7658287209788316,-0.2180115251172271,-0.6110425581684733,0.3740735769514878
1.4850856383871736,0.8409111243842484,-0.017252269776903,-0.11314609145769844,0.18265054915653647,0.10527634354466422
1.4047016295074402,-0.666144234657554,-0.49100067963091265,-0.44593118977700485,-1.233902004698054,0.4079194294251114
-1.0627120495998073,-0.1468621130841465,-0.2938598135217352,0.1683843948782005,0.29537010330162616,0.4542582165067055
-0.01713137912418028,-0.09821784351903468,-0.06422976235963711,0.11570881154859833,0.3448106955843234,-0.4792271159550173
1.3624845516851223,-0.2556137760477132,0.31499281289124736,-0.08009695890286878,-0.7240993269203202,-0.6890677566855617
2.326671641071977,0.23314204890556645,-1.2426011143216105,0.4076654559785641,-1.596320418668512,0.19701594556604785
1.5950560781763743,-0.23486315081134296,-0.3006984514779609,-0.03672246068907259,-0.8829433668107847,-0.25547951708943606
0.11821397621575763,0.054108169847232324,-0.004744178594304066,0.31669320361509185,-0.4397430993720692,-0.1155235553497046
1.0128868939268798,0.45591722068676155,-0.44537726801707533,0.006235011718144667,-1.0976776578945464,0.2754338316588223
0.3842149606046317,-0.22655699688096942,-0.3910660482059416,0.06110885649789943,0.09265810925580142,-0.10691269648548363
0.25177755304858007,-1.4018419831922513,-0.15737318914467857,0.606543478933363,-0.4087217875436133,-0.189275773947651
-1.2416990643155479,0.6923353985488151,0.6658024185030721,0.34041538732459364,-0.6080279967169218,0.35308561743344946
-0.6415309499621766,0.6164818603406745,-0.3253061624104956,0.09611606728090683,0.10596232077911127,-0.19077227421634524
0.8580509783974195,0.2298018862348168,-0.3086855586939954,0.4414960537090242,-0.8300416231739604,0.15614565927765056
-0.6663348032925267,-0.6121463088534822,0.1484005075293231,0.439232104477118,0.30917134955739023,-0.3728318220790878
-1.8997614003060281,0.37923101725709374,-0.3829459939212596,-0.05558468838465358,-0.24295545722648226,1.2111799579277187
-2.339901881173614,-0.2428749157696834,0.46220766384912015,-0.065288595489842,1.2924508285219076,-0.43287600542745264
-0.5310788111492482,-0.36928508783467184,0.3863672970093077,0.3138691576391307,-0.0627289910746403,0.21316543728682247
-0.32332722099135847,-1.1572550038893492,-0.2931847831491545,0.0780711592147969,-0.11434668781116919,0.1651303651376499
-0.5345637506806271,0.4520376845240536,-0.2714886324073886,0.19474197101892465,0.07408881505288578,1.0653698592779364
-0.8153077951963512,-0.392006951340119,-0.4381469916553651,0.3890955239746985,0.2568072312267659,-0.01277856071996919
-1.3853015210960407,-0.08871142067688587,-0.8975369856207478,0.2531954991893823,-0.24261640301710108,0.5684646301748837
0.9120284581404685,-0.772857161635699,-0.6440007699438003,-0.03428373695405462,-0.3048624783782765,-0.015249662669790554
-0.4376424868795088,0.40592667002025395,-0.20798065058174284,-0.04576785340671191,0.02432435767194102,0.5756551205485555
-1.132425912856235,-0.3086130615675856,-0.44252884218562455,0.3256148940623931,0.6901784649888221,-0.2070776774186246
0.456151198431586,0.07580752685042347,0.31669620654669406,-0.15895757301064384,-0.4724653974337949,0.5539465491148123
1.684476328495931,-0.2312580379154323,-0.465758015295624,0.23086713061188746,-0.9427384068880729,0.08445231363882955
1.8419135173669208,-0.2793485694445481,-0.17984727525955568,-0.2570511580660001,-0.7524271755173442,-0.5642099109251628
-0.21142447031715905,0.29925663529554014,0.38321084191289506,-0.13916452533507395,0.04026694163105149,-0.3426684230998027
-0.07493636803433679,0.006945292174225237,-0.7753023943538335,0.24892350104949196,0.4238939305818969,-0.1767191837942793
-0.35310058997550553,0.06843470613814917,-0.6631512880664334,0.027421032293377667,-0.19716251343728142,-0.24260592585193552
