Gx,Gy,Gz,Ax,Ay,Az
-1.0880230000000006,-4.592118000000001,2.5464570000000006,12.363999999999999,-382.5719999999999,31.168
0.7459732845513445,-1.5253146286814172,1.9830117810297962,-0.14185083169403834,1.6199813446085498,-1.5735326482771805
-4.077944560854996,-10.390999877271918,4.17622181136087,0.1978738853690188,1.040226828215967,-1.7740267897372552
1.0369257782615275,0.45983497074359203,2.7955564123153716,0.9206247453698566,0.7160761334806547,-1.717570102297543
-5.053961200586799,14.151428113596307,0.8729298842028135,-1.7233354477324563,3.049010912226813,3.1115464425561874
-5.308984607143929,12.29727850268544,1.0640674269134236,1.7575585508429,3.701300899300162,-1.330465380427652
-3.492015538761565,-8.909160996933927,3.1410236762423773,-0.819044070580364,9.023043292243651,-3.6226974341720934
12.234709669535787,-5.608810600259064,7.958023905707579,-5.510949476518352,48.284869168445894,-23.66572729173015
-2.219747732485876,-4.135336585351337,8.21836793587274,2.6454594611252475,-14.901144077837275,9.417670300376697
-3.1652974911803637,-14.774733579633,9.211463397810443,1.1813409366034384,-3.5260483938445746,2.098642863406667
5.00176156544407,0.9000645995953596,11.60929472928315,-0.48693833428939326,-1.8607005424367782,3.0517304866841957
-4.2588086679663375,2.6373840165951874,-53.856987465272326,8.45439371860989,-0.23564849683625289,0.07790979022671835
-4.547878403496244,3.1260947414711437,-0.618653446262543,-0.12512230760322715,-2.6801312345274546,5.208296967762082
-3.52624690811138,5.415640764627331,-2.031621237104364,3.375265905126176,-6.117898342960004,6.094811183322353
-1.078132154602788,7.514286752077831,1.2230892714986972,-0.09595489392451936,-10.12466572440221,14.491703943022696
-7.441400278063131,-15.795644414359852,-5.804397395746458,-0.3062879383265278,2.4069232083044794,-10.415598982923953
-3.3017064004276246,-6.796031987583955,-1.5005649068275217,-2.5891895394004356,1.2649496579491055,-1.2103155698427903
2.766863622348585,11.15841762867771,0.406403596844942,0.31454335013624846,0.06830998747271977,0.3115516345981497
19.114898828277887,6.475191832426468,9.276497355268948,9.541723862190587,5.008322016919017,1.3686430644199823
-1.7327496672828855,-11.883393171529454,-5.096677339118802,-1.5570078234919973,1.1730362436084971,-3.477156393428648
10.210544416689924,2.584162141786999,-3.1568452872035255,1.8221195665894447,1.07311158280194,-2.8078823355555507
7.491766506592919,1.0407295138965382,-1.1169749392169783,2.452339118713695,0.22598375704268267,-7.07903316518434
-11.43335238793509,-0.9054813817458296,2.3334165884760516,2.522676381142615,6.4171676270543365,10.5050956186426
-1.4863145669536912,-3.66103376143351,-0.192069984658092,-4.4987958654977245,1.8828298897019053,1.5236859744667055
-5.605601046337859,-6.241082212232797,-4.7242721789698425,-2.367835496854494,-2.323226220434641,0.37032219368858155
-4.993338801474198,17.239596890115237,-15.362505390362559,-5.244782808797835,-2.2146272829592197,2.4751145665608445
-3.6061453245382893,-2.9145351961855943,6.701868682988268,1.8561238538507894,-1.1036160855464257,2.717027636682127
-5.135600854196481,-0.43966876801426114,-0.036448337393512276,-0.8224344346680852,-0.326538195100812,2.9775598357720066
3.9769487458009527,-2.082946061425531,-0.009854953636458275,-2.9945723439983007,-4.284375467950806,0.6859723026800473
3.745648086161161,-0.3415346669710111,-6.8709440554488355,-2.3915780972550515,9.153953127515253,-7.782835859838164
-3.3805656277193465,-3.915865294483919,2.774030776562773,-0.1847890748249288,2.672059405559004,0.2593739360533729
-3.6272623593503166,-3.720325086459622,1.7066589263204541,-0.6456063139364818,3.6266585027234637,-2.4662150202128976
1.0372439665568653,-3.3460235857647387,5.862897928677734,0.809854467503824,1.367613274016511,0.7799806996426542
1.9913913793708522,1.1561049626838429,-6.819070788882712,-2.8930054107778114,4.484739669759375,-0.8243610886581472
1.286664597866286,1.5338674350307948,0.6269328031989789,-1.6988375640364977,2.579113566991282,-0.1438592861264123
-1.4525340898538013,-3.2853193876554982,3.184605136924692,2.103510902438736,-2.7024509897835163,0.583262981206826
-0.41630505082781727,2.891358791688548,7.017658845562716,5.226286813399447,-22.91090604847482,5.898038890387587
9.630100371883447,3.44429487881558,-5.4926261969769055,-3.48808329165951,2.891758461853556,-1.2841671152361531
3.3838619467177247,3.692431758436773,-2.3212515430904554,1.5947445484955727,-1.5743008055035175,1.0553027270001685
5.64636274560551,1.7533185792841244,-0.9138729109992689,-0.2075305665850653,-2.2491319881157787,-0.7790625473100998
-10.246632909887,2.677166062215912,1.7560949498973626,3.012280385401038,1.5286377436853273,-0.48517145475047985
1.50391471791929,-5.1792940582416085,-0.37624774635639,-0.5330870135026017,1.8440866418994686,0.3644231992100735
0.021522855994363876,3.7550208450662046,-4.333311786910793,-2.502782479123602,3.258170275263697,-2.0353090297453114
7.75448402624408,-1.340059862552208,-2.4388642345008065,-4.559337478485805,6.894589696699354,-2.3248506380644276
-10.251731277141666,-0.5082772991384298,3.6282606441206653,0.898125492321207,-4.171310881740471,-1.3246626737678873
-0.9887378891686187,-0.00335847430949493,0.2877846960460412,-1.5398159009556998,-0.30561748014243634,0.9844338426621813
-0.10177118644380667,1.2937497359874046,-0.7386275635134378,0.27441620497596386,1.2429217211271881,0.12179778654087725
7.070451849869676,1.5187572493671642,-1.4105060303931447,-0.26922949911657446,-1.5227049222186466,0.5273462671993859
-1.2625737868973086,0.859818871791671,-1.1081637642856574,-0.048287963089338505,-1.4309097243640245,0.6509881732005651
-3.214566878950596,0.643691823578155,4.8019867882416705,2.5811219806298524,-1.046487762677104,-0.454465830746109
0.3882590898685447,-2.271904573852833,0.6785691340040858,2.1951022649605747,-1.037061211668818,-3.105634422224747
5.549000461582226,1.9145489593603369,-3.63201003256287,-0.5525930353433134,1.2729710079716323,4.404652670200377
-0.45212955130162413,1.5949286981440458,0.9955661076411366,1.7947883042046726,-0.79683088811185,-1.14765955199746
-0.23248646118178407,-0.14170779468515837,-1.3915237890817822,0.7605720733198074,0.47790238781567096,0.0592469476134001
0.8998438984432333,-1.6586547337106892,-2.0806887807629457,0.004566755692652524,-1.6905293449429637,1.2817661497029165
1.4560740943729018,-0.13035199270027276,-0.13142992521594268,-0.0848156729247661,-0.09322828304928454,0.15295848152887426
-0.9472910838318045,-1.04701004245537,-4.0783817273754535,-1.124482737581676,-0.5918992392731641,3.9251208790796266
-5.342476279556564,1.6845434086825575,-1.2879682560435042,-0.45879973668901797,-0.01642304412798845,2.237674093395293
3.07236560853971,0.11074330253785458,1.83401070770239,0.05175746395020486,-0.19979356607305132,-3.4095269429952815
-2.8328394845628924,-1.1552576093737736,-1.582034943209621,-1.9406459404509406,0.5107708286337547,0.1640516113254521
-1.277298660662899,1.4501227664899043,1.4698112378055648,-0.7864722165170643,0.03481810754899328,-0.744250988953416
2.1060765447072036,1.3230045655205513,0.4233647210683493,0.9079013208119524,2.1819019929035623,-2.6249292632536925
-0.5352970000000012,0.23701199999999992,0.43143200000000015,-0.4770000000000001,0.3890000000000015,0.09800000000000009
1.9303215817762422,-0.7672387717481741,1.8933010327632798,0.08940567477269498,1.1865651043817587,-1.6754444003739755
0.15103408743652813,-0.031746270499424134,-0.49891805188433236,0.4079066060161964,-0.06586089632279535,0.3633251547818941
-3.5502469704466857,-0.5094385308280645,-1.409191189177096,0.25081844867628755,-0.7619818310703174,1.953462424518683
3.1194489420822213,-1.0475285065047257,-0.07887413927291598,0.11291445482066587,-0.6586630346365562,0.03597215976807733
-1.9763554817915585,-0.6971257359166878,-0.7250356735772927,-0.3093335618563522,-1.2590696991895016,-0.16150020859643302
-3.72512137246111,0.1574443819859569,-1.7652488078196602,-1.1285967678600082,-1.1277438113628735,0.8846975433772932
-1.2630077340685237,-0.4837582850470574,-0.07582563575137913,-0.41946592487255807,-0.11756613673406213,0.6392108078991192
0.08549380980201263,1.7193156930537046,-1.146218540956498,-1.1282245100719046,-0.2054022316120926,0.40016678617123036
2.308427065098906,-0.4193862779599974,-1.085152983058736,-0.05738334796964906,0.735017342198099,-0.4064068319394214
4.5610931214258965,-0.4068265021083328,-0.38739215412693306,0.5053265239990171,0.2479215516238682,-0.253087328647872
-3.8588232219349075,0.5221163219637535,0.09379577273249029,-0.4388048404408193,1.192776016250279,1.6477929244332246
3.178409906222959,0.40694234984667144,-0.26043929861071335,1.2379495618379215,0.4156810676901923,0.24484802177398252
-0.08164664242056174,0.9066309596990273,0.09674170221614599,1.0376374481407011,0.8463448265038547,0.316636928750175
3.1703434817913965,0.6358950819370338,-1.0384970438783192,-0.18335332313157238,0.36965661549182527,-1.3240978443557903
-1.038005829236887,0.774243124449381,0.9290044136334131,-0.07933366736727686,-0.13721487736593174,-0.08879946524907212
-2.0373362388790226,1.0449584210190264,-0.043115480091024436,-0.589178210743788,0.28363581356999606,-0.4032763838398006
-2.038132142303256,0.8048081173646506,-0.5096475387423369,-0.5365581178709956,0.9946747357697262,-0.5252175358275748
3.6625099479900496,0.8004798317196697,-0.8281257542025198,-0.016715022122732598,-0.756617377052844,-0.9317247168882624
-2.9875354288978984,0.15491829508526844,-0.06038573821355453,-1.2417956693368652,-0.010958123737612402,-0.19441742999520872
-0.8017064531457496,0.013885891906928516,0.3565543993053547,-0.3572610651061161,0.12822871932082325,-0.2626965725578586
-0.7033875882767097,1.2523401970710484,0.47366295745605513,0.5834242931372959,-0.20174821703147217,1.490196025923057
1.3638207874005186,-0.07446184578645365,-0.9162581760998412,0.03592985320513768,0.8407757950807699,-0.06363498339610685
0.7004307122757185,-0.09423917092035794,0.01408458269079682,0.0905176598629234,-1.0577470527956851,1.2714857183495847
0.06214918527773505,1.1589978035451178,0.30916523116226036,0.42192576830516615,-0.2981780873544738,0.34146757322854626
-0.2006912159843568,0.46467417417135953,-0.11053878409358565,0.024709582527284835,1.0129731690664743,0.528029484776684
2.154661690362646,0.9838133418171637,0.3887670227925158,0.614594788446499,-0.333905210561406,0.636579455374571
0.8672184636928347,-0.668905699854481,-0.6799413723942522,-0.24089977804146684,-0.5234962898930509,0.22226804369994735
-0.3696853759568304,0.40839611412478855,-0.47982321305272957,-0.2790340489887068,0.2052324215054635,-0.9320310793926758
-0.9049397108258473,0.6168738463190071,-0.025108585503219982,-0.24653019876797957,-0.0398196221759661,0.22165273429182425
0.1678449908488111,0.3517466249328264,-0.05259530786943406,0.04212816880578567,0.8037778578209098,-0.7727548580096623
