Gx,Gy,Gz,Ax,Ay,Az
-11.965194999999996,-8.650542999999997,0.38166499999999726,-9.123999999999999,-545.0919999999999,50.126
-0.24990516785401434,6.105175941556829,4.684507131034837,1.4092135323610484,0.10922807111745345,-1.207951976584731
-0.9733760967541711,1.2112166670977265,3.250670020534804,0.8248288680983049,0.4672187951127006,2.880100914745783
2.82544693864573,-0.13171975065629127,4.409505150851322,-1.3417766223844891,0.3381827473189981,0.7683070247696213
0.2421935252162255,-6.7586246547224205,8.523711037368217,1.7364659737244668,-0.1626648787182018,0.31051147466783263
-1.7287615886197556,-1.5115822020473137,18.791985299573426,4.131484873152966,-1.0198505806300362,2.8616853946093426
-3.386834744972784,65.17917721873434,-81.34001720055934,-3.65942985592444,5.252795935511665,4.475831643475494
-6.722569536098807,-6.574839553346968,-4.58702591377265,1.5202572729499968,1.7682254805295505,3.8559892749183113
-4.864425951379033,4.135104951606294,-2.0366182404089246,0.20068387619486266,1.5864364028019777,5.17772465731285
-1.1380195449995874,5.142716509877081,-1.7936541846948701,0.021234232353540994,0.032695037380367165,2.71067437086059
-4.535751906577407,4.183473777519806,-3.6909694685520327,3.274123551209538,-2.87302863151644,9.54415930740714
-6.139728243813727,-11.111786293327796,-6.937513560502786,2.3972588319198667,8.216165229373717,9.305097216281503
9.142904117968081,-5.097268474939195,-6.325393134954792,-4.832193993213682,-6.544181260630165,-27.17531564659528
5.170162132216235,6.62449072955334,-7.824753287774337,2.937048645140729,9.856318835263059,-9.121634118811322
-7.304706916720326,-2.4640794985967323,-8.573247884872984,1.8150037223336177,0.008329174048505639,-0.09195146786657915
0.05473374726393043,14.902884376674656,-13.254664212532054,2.0268577459418182,0.9862771914903709,0.19131791086750727
3.358537025199539,-2.3166809705716194,-22.295426430981735,3.587378723772055,-0.725571774730826,0.04222231600640433
-0.2792508506194352,12.630261885796147,-38.120128846533376,15.545038843056952,0.1649427032986368,0.927601468932449
1.5704658960157991,-18.020803247071342,44.6700800572721,-20.901504067923277,-1.4494806555039381,-0.29028051979145303
7.74403248039105,5.215085744757426,16.122526593267096,-4.7252523692011135,-0.7989191776738984,0.07451349493122894
-3.569099973977848,-2.9658196857594685,3.684556247417123,-1.096226312559917,3.9870896189044798,2.7532940670864496
0.6626864863820686,5.38740574145388,0.058035579534654214,1.7995835072231228,-1.0899551596207473,1.4693107293809027
1.5039379781444286,7.151981671011766,-1.2546648249485197,1.3711819269697285,-2.0358150834918183,4.861788938353008
-9.84645279912915,-8.76178783909522,6.587967794830007,-2.2274178472691175,-2.5336412524311327,22.872555911725083
-9.08435571561614,5.69957092715249,4.315175569738331,1.483243773647176,-1.18852603870207,-16.82212069967089
-0.889278375892252,14.763710529620727,-0.5015960789426444,6.625473129506549,0.4174761425454937,-4.817067714286248
4.560870965815615,-3.8045604414145506,-0.8901063497372748,1.4163649270844283,-1.155529382778429,-1.9604956960170554
-5.517746779155645,3.950787193288126,1.7415703808116394,3.355769462648325,-0.8042088723252494,-0.5896142815713512
2.2557087146424966,7.296808533230908,-2.29658387087275,-1.8031701066533832,-0.1374210222108707,-0.8081264498917631
-6.555662234974921,-21.304902719322456,-19.28729106783413,-17.694356556971506,3.0539190377089813,-1.3144165300089705
-18.278424461250044,-1.1454856024059032,8.912402247539763,0.18971282038479265,-0.6946027089632922,-1.756593160363959
-8.451916236658148,-1.5942321298577933,3.5551989566007944,4.471429214286795,-0.9079774022024663,-3.205014043230447
0.15015776979030515,1.1280179324820518,-2.266633683667597,-0.31475457236695803,1.6762112070520114,-0.42789185803366847
-12.263172690892983,-1.864669210280455,0.3554709801289553,-3.371424543196138,1.2451479394442897,-0.012489692946588516
12.692781755606813,-3.101502178437263,-2.864134667041661,1.2681169519028357,-13.91346501856638,-9.625381672010684
62.9664161955355,-1.943450754882599,7.659922930972299,1.2426244630454188,-7.204977750901298,4.7962703158957956
-7.343008365813159,-6.60081158899883,-2.610105922534262,-5.467618931507456,-5.7287015491509,-3.9003368595048666
-24.689525353587754,-3.6251292468735277,-1.047394448951521,-0.1132543466540668,12.901215793532861,7.147897666346466
7.6027910199987,-6.1886796893414555,2.343036853110188,-3.4861761640152142,1.4221047577143657,0.9487570305684646
5.51042672796809,-5.422349472248761,0.13479935140258492,-1.8991838705171569,1.8316556176284364,1.014020161617637
3.4474059374093575,-1.2208056900625692,4.532378963697838,4.059902869038848,2.6790513556504667,-1.0003825620239764
-7.524528086764886,3.8988556517445776,11.042377528120875,5.806765163878012,-2.8410278795235655,-1.2810560542757428
-12.5004659469313,2.447305503874287,2.6339878283453166,4.6702578118699805,3.7871410872472664,2.6999602504370728
-10.155961709502613,-2.1381862689933766,0.9886278510035511,-0.26611141751120526,5.942200024093582,0.43493921767258176
3.3001619002555698,2.9763293034553047,-1.8747382651831936,2.6140452341976506,-3.8173886591315527,-0.6721057785664624
-0.4098349949724831,-0.18720217311786666,5.687268605918797,2.2101773434409724,6.881457549327015,3.899227976809666
-24.65243245197946,0.6264660049099033,4.48107840250193,0.4510974866769526,14.407017417901914,-3.093489551201753
18.163222361083896,-0.9352369585471202,0.008136707266430676,4.896531868929486,-18.81592500382576,-2.418750718578479
-11.165995158961287,-2.8263650798171245,-1.3094234943499015,-3.0370567291461903,0.04159010374482541,-4.690433022343839
0.7109549005229159,-5.938922664428146,3.7708520047065477,-2.634455348583486,0.9344687228565276,3.168659354367683
9.724796035769833,-2.2503995356080373,0.6934946024975148,-1.1309346150999726,-1.1828668402483538,0.07866249447374818
6.092024781961189,-4.663754758222505,-4.1463055884726865,-3.56374765819883,-5.502054232324161,1.1582648726843328
1.5916644982465422,-5.421288117626053,2.0458836532338984,-5.278687082021073,-2.7445830544714696,-0.588199694041298
-3.2749264253023638,3.7670268869925936,-1.4146302754062934,2.2844889263752663,4.290464737707941,-1.6570350808638692
0.2902439706508557,4.759466881845418,2.632399681028229,3.1139409482620004,-0.39389177536443554,0.2313423850290969
2.901386403142182,-4.618144725296249,0.9915655887435593,-2.6726236647831074,1.2200256919409784,1.259305090033621
-0.08417155148881596,0.4814917958178089,0.4397735539611968,1.0189644374871094,-1.8260539950104464,-0.026857454794026576
10.547219486325346,0.8511712639609791,-1.8274936418941894,-0.7249266295607715,-12.958034649024876,3.695006560813422
-1.473568951848466,1.456086060539206,-1.72409159157501,1.2453884442691936,0.5563179974981534,0.8048766489578267
5.354218970970374,-1.9131769061158903,2.242951104101243,-1.3899086523476993,-2.4843945090994586,0.13444665874632467
-12.636180886711024,0.5197042158275226,1.0282250724062414,0.30311106521460807,15.062541149646139,-2.8163250923701737
1.9897584388031668,-3.341142463868793,-1.2676849662678524,-3.25159911062583,-0.3842895506710485,0.5608664015377661
12.125052322135701,-1.7334299601920977,2.702247991437705,1.8016675007029916,-2.8508949679176014,0.01631677504698527
10.053925850620418,0.38714129810691733,-3.0154303751111717,0.6635814758990386,-3.5850155967166364,-0.8400004086686461
-3.5555622577713493,-2.759242636864974,-8.389724884544869,-4.40605310150054,3.694224629285199,-0.31865686309308866
-5.718850210176237,2.5140214952370523,1.9150442688802354,2.840245560671814,5.462619155787728,-2.7626619378508988
-3.4445239107857337,2.1213286955783057,2.2250693718948034,0.25906690432848434,4.755531058202329,-1.0795959778076931
-2.2815133323818673,-2.103381055669934,-1.8782526328425662,-1.1873876873321603,-0.2924761254437831,0.0030455732639990685
-2.409971205060782,-0.6733229255229627,0.27096924260155997,-0.23714238806082225,6.3150033277923,-1.3171230692692613
1.2530048276367598,-1.0557187042157956,1.2847950962607433,0.885735771243157,0.07387615776369394,0.7833862293470015
-0.7014418825607625,-0.09462847817989241,-0.7499077965930312,-0.28037577512766315,-8.954440517017453,3.61307112267328
2.052636838380521,-2.2219506484534675,0.22912704739818346,-1.732082212643136,-3.510977082180487,1.8519436981534296
-4.803065464926811,0.6837942989053151,0.08493621745225866,-0.6777084792062569,3.4825315229125637,-1.448772386201843
-0.28995392305872336,-1.700748414060477,-3.477368955073008,-3.1067536416835115,-0.8579720824135778,-0.34461477789404293
0.9096837862963252,-2.2471241403069784,-0.19842670260911355,-1.5391710688082008,-3.2424828320873527,1.7439854748138994
2.2314379003501963,0.24329648223574435,4.325414933883266,2.125315714549809,-1.841550660937142,-0.32757632433985706
3.928918232999436,-0.9714569072531165,-2.329283310758646,0.24185817135367382,3.166847908057745,-1.808215549542911
-4.335410799706022,1.7761478005345082,1.0307152266510442,3.1077466858987135,0.7536034476691345,-1.2256932877017848
-4.629147206892574,0.5325985509786368,0.17167122223009845,-0.5711744391856868,1.6469470657258494,-0.372479619542893
-0.17882285701639083,-0.9831814174046686,-0.4799813657091193,-0.8363561453533301,-4.872636141040903,2.0065472087072513
-2.9398327909053137,0.17890748021816028,-0.07688267272411353,0.7018971702505564,-0.5789410062162204,-0.5088211706128459
-6.031439563763464,1.100749512849641,1.93024274489967,1.7084717757329175,5.940878003226198,-2.465397426728945
0.4592280962851163,-2.008891277622554,1.6701922742461401,0.4354767839652163,-0.94897754377395,1.3290273907523062
1.7874408650446991,-0.4564004303123882,0.6487096873964575,0.029295260848198553,3.6001872102941794,-1.5716832883737983
0.06982081797982334,-0.8064432608724048,-2.1278817979505718,-1.1466632310296774,-0.7541497449765083,0.27569905376109904
2.5626239865505003,0.15341323904758047,-2.478988866367229,-0.05421533909295495,-0.974830277668603,-1.2244971220105374
-0.21798186897435978,-1.614646443815726,-2.1928852071964924,-1.103576445665128,0.40950679739033347,-0.16795380563118167
0.32503718086338973,-1.0181120911560437,0.3608280802181879,-1.823298770723882,0.8499561029542575,1.243885821242707
-1.0399543464584442,0.9469972479484514,-0.6394944001539538,-0.5735801674335884,4.024144750276561,-1.546969601469411
0.08634494834664608,0.9824502694378001,2.1130726378837896,1.3286203337756688,-1.1490735818513893,0.20931511624631582
2.383948776468334,-0.20212979386104005,-0.8195506241274674,-0.8868315014351082,-0.6157580184998821,-0.21490504964380397
-1.5956759104487506,-0.6173795882030033,-0.386908801381056,-0.05112359554392605,-0.5646376667393864,0.9689667678362648
3.2120595126103186,-0.9631335250233677,1.80217895643721,0.5218931473568118,-4.078810815673163,1.5112299454655953
-1.7871563804675665,0.5473338383527158,-0.8311510998331323,-1.0526281220368976,-1.9789449291058874,0.8957726433655949
1.2343397984956306,-0.899819362229966,1.372975882557313,-0.199653998420794,-2.5038046517072,1.3689815470886542
-2.209813824556247,1.029918536893207,-0.6126743251833342,-0.4787655145523005,4.720524051767654,-1.6657471510163302
-1.1786969291346205,-1.4104984742485245,-1.3441272135207643,-2.4334835365858454,0.0937233913080531,0.17418152075582713
0.7729645262809486,-2.2048211917997933,1.647894852721656,1.147311736685194,-1.4248797864592548,0.23934810495260586
-2.953770816581052,0.03190832750698691,-1.6992619477261734,0.8781786912850772,1.0327369986915176,-0.9331036480018049
0.1046167726825456,-0.14057054234200372,-1.6136931557155552,-0.5164618079576762,2.52945091107744,-0.8327619164820292
-1.4444884065572938,0.5146469807718452,-0.5100050512695764,0.16347445479502895,1.3843043592585367,-0.9466054032486738
0.009446716668914307,-0.8505946769292008,1.2222683646984618,0.6890095327115315,-1.6245458154099017,0.08611780321569887
-0.4581018522711898,-0.5266640809556241,-0.11089167354017944,-1.0443445436678076,-1.319191160900781,0.7452132051876424
-0.8916007438270653,-0.19421946709783175,-0.8271186429773038,-0.46813743543089426,1.4347401894254403,-0.22086110132905484
-0.4183813270760207,-0.02412744581724046,0.41250165949377293,1.3163543128177004,2.4832600791959085,-1.0062684412245038
0.8715994256956958,-0.6597124222720551,0.19878248181573085,0.2823496510664794,-0.7007166551991142,0.5340868786190476
0.02689449761278717,-0.9467040871729034,-0.20070166159032454,-0.8266986793321999,-0.38260286443463376,0.03167517628395122
-0.06694589962802538,0.010370130153315865,-1.4454656738760905,-0.7014572919510995,0.49634766206793,-0.38052976828374097
-0.1723961185217595,0.14280948088307518,-1.793259464689072,-1.8867165000608086,-0.0013440513809843437,-0.003808911260458521
0.2847098404968832,-1.928836562277482,0.23364695075101932,-0.2827057710703075,0.07317813181217098,0.10132444675556568
0.46678684934050346,0.6460231114289197,1.2113020907340528,-0.06158707924307988,0.7128970692414276,-0.13529037495822505
-1.4891774723322577,0.07263457580870825,-0.18281125306232593,0.588105414642437,1.7418892394550545,-0.8961639091779148
0.87236115847361,0.48176596141676425,-0.16437818516421848,1.1891279121693432,-1.0494064098663674,0.3600177175297923
0.08781941341806254,-1.0821023220000692,0.29853758492369054,-0.6186030468606414,-0.3139888122298993,-0.31581927921121955
-3.8641881260971154,-0.9497185036335382,-0.7047267291696306,-0.1950489391736594,-0.4436099549630141,0.2069122559854362
1.75227290985752,-0.06823424329325344,0.5385323846302248,0.3918071360066187,-0.9426901649675241,0.31146627927497417
-0.9886069655876473,-0.2281874902823691,0.46002730380126783,-0.053719470596475805,-0.011009403097938908,0.27456681891702495
0.7898928655947337,-0.10900003625052179,-0.5257403753536911,-0.3737338649043085,-1.2537409279593805,0.10977316124457034
-1.3521434243464805,-0.754063993970167,-1.0979457270645787,-0.7299404733797685,1.2274028943709494,-0.2840251460122203
0.04140161424000585,-0.6158189654740893,0.01630269771652934,-0.32310931851982067,-0.22210486857920544,-0.4052674947155848
-0.29120946899775657,0.017838189023229742,-1.022184531509403,0.38988904099267546,-0.11802418860451068,-0.1736966376500396
-0.5729146958304785,-1.172144170260114,-0.8527227822583349,0.7471160099530774,0.7570335078854274,-0.46410314364662947
1.0614138009535723,-0.5817486887997385,0.21110809620057264,-0.6870855399410168,0.6819637876881164,0.21094937398366323
-1.5731153709848738,-0.260780604018459,-0.39009410434596015,-0.17984595508774914,0.12225370813409782,-0.3116752222106799
-0.47333917137217085,-0.6919056319137487,0.14778563270368983,0.4817620901617688,-0.48271390488142035,0.5384267402681355
-0.19449032038578906,-0.1311487655244727,-0.2634991024124272,-0.4334789695805411,0.2218494764749061,-0.23236091592013977
-2.9464788431241744,0.04151421887829937,-0.16028712281877272,-0.054471479047922294,0.9683800455317698,-0.41298929928017536
0.17248638764025603,-0.5864744841074954,0.5451775477297317,0.4679390223412192,-0.23252126679083723,-1.0114719631671387
-0.23408649087460542,-0.40917636201096924,-0.15209119743454508,-0.4813539917567275,-0.1743091013548731,0.03195133825953607
0.14963953780410424,-1.1561990089827143,0.22467934234749323,-0.7151860810573981,-0.2665824560865267,0.09573534320820784
-0.33201890732392747,0.033584713420817425,0.014355593247081244,-0.14931264094415092,0.2627987526359993,0.4576180202514072
-0.6958826997140612,-0.2722980840470182,-0.3256738146292578,-0.6739770257170864,-0.01525991695648593,-0.19036898902297922
-0.9022543507222535,-0.4179006179532852,0.5523324388872687,0.10134424223281863,-0.29138479460781075,0.22585030222580946
-0.396531034158844,0.5208020967777033,-0.6453591508115054,0.12396941212236695,0.010540002645461316,-0.13727415963925343
0.7342055772136655,0.04072972288992077,-0.09320590306470057,0.044921625596648196,0.22911197848275777,-0.008093301817356235
