Gx,Gy,Gz,Ax,Ay,Az
-8.436734000000001,17.316814,0.17704099999999778,4.82,-506.696,83.374
-1.8900616382828348,17.2242792044761,-0.7331179963905101,1.0845289451601956,-1.1953187234264102,-0.3598257486228533
3.5145430080125077,2.7054249367363132,0.10686800661406215,0.5235200576932117,-2.2631356171525026,1.6611571104281424
13.813033246790983,2.2899239713024846,3.8480875721912895,3.0941077318419214,-1.070879052997551,4.040596716851265
17.842519986679203,-17.361775192359474,2.236784373248413,6.463667841300531,-0.860071075504817,3.547695797958918
-28.86696314848503,8.353655724672082,0.14236751094439404,-7.130910454328857,-3.5931621201015793,-0.0303536450934474
-12.325503918339201,-16.54728711051944,1.0706508617049864,0.6611863009493697,-2.1493128951843374,1.350415220749016
-10.589104335924457,-2.7290284021987814,4.16530159736833,1.405319188253611,-5.7713855882655185,-0.9569927255153325
-1.1301923421525526,-3.954971175917451,2.306688804345453,2.048674026080241,2.5268051087691266,-6.673666974354684
46.08971917270348,8.42793943929298,9.35729527315388,11.242401486724216,73.71724943142328,-39.09087041418835
-18.300117982620634,-4.6787834818509255,2.0604194367666864,-1.7210992493365826,-15.417137755221031,7.631049017333163
-8.452475364895102,-1.0984414789173593,5.867206533322279,0.6192533640473448,4.484274150682502,-1.3666319962519524
-16.25634322642601,-8.1700918087202,13.742621064195328,-3.77331328358876,1.3061687887129234,-0.8970213928680548
-21.31691057595668,-17.970432234148497,19.59812349179074,-2.403329854224281,0.019925983315258744,-1.1157929464376581
32.77632587452677,-17.249984484240137,-32.36932710951526,8.596275454682809,1.0941127229673695,-3.050354258264253
2.102618893974701,11.492587982729198,-2.738883172192809,2.169969774887724,2.746921530687187,1.7343300151051815
9.864215427249018,6.310273220786627,-5.231576207621185,2.7252983640339745,-1.0208357518967461,3.6095146272641103
7.390724351901318,-14.825696781339493,4.085755542307988,-0.9470989514634911,1.7878454127188377,8.905774721345749
0.4894353908746387,-4.388791954643732,0.5781047942994717,-0.41289789379570396,3.758568397960293,23.90336523682681
4.848850659523503,7.285646391210533,-14.023847093377213,11.296657319463886,-8.996030443952538,-11.068088173683387
-2.2960950786642815,-13.700498265616186,-0.6867320029488475,6.140878031716072,3.266292561585619,1.423070426730198
1.944680430951589,-19.776070152189387,9.694979671706534,-4.061522207629366,-3.5295943939054846,0.09291407361887138
4.551972731869612,-10.84948018781664,6.348883137164377,-3.7955030322639995,1.8828004681680466,1.689990007761476
2.1300363804793445,65.3613717586912,-13.364239840569748,18.018833252180087,5.381592976166752,10.286496711548482
4.2358474111117745,-14.111040694521161,2.3795191305539722,-19.080515316740115,0.7272490214981389,-1.9534986783837196
-4.417989199409423,0.7134493255244725,-1.0038542933275583,-4.200879437317742,-1.7080543852844698,-3.128962227864573
1.5739791947550834,9.797374843815861,-4.86209733262443,2.18787556069557,-19.44082423509405,-9.945654858790945
11.943470490249682,23.660411924886603,-8.324507482303025,7.6756456116777825,-31.600348947089007,-15.742715856100716
-13.385294846380928,-13.190690526738328,11.709414942370739,-0.282526358406202,25.527961409810338,10.914381786989797
-0.04690098496206474,4.902663500975686,-1.484561076781708,3.985650932112152,-5.17680220087335,1.6889375731778258
-2.0238186349618825,-29.196987853309896,7.7402330007805435,-8.764173672537925,-5.037632649799101,-4.371033675273186
6.2742149672909555,-0.9423027265967427,3.3528702510199437,-8.292791869171698,-10.131192372241362,-6.46021174311031
20.54308357083657,30.979810780261502,-9.141803529227403,16.21565906094356,7.89717671906613,3.6381140970904076
-4.1839010723571315,-11.363185699835311,11.213901295186433,-6.688278832873773,-4.239035352529532,-2.7136937337645364
-2.526756285749405,3.4126803468364795,-5.546596176387583,7.971410306494193,11.487858693270809,1.076805023409392
-6.928828351986452,-5.099942443619655,7.8853990240503125,-2.5377375766719945,9.075832284279638,6.914934089187644
-5.759443825318514,-5.3261432955454175,0.05374868202065208,-5.250604763795259,12.116197344801865,6.810919798812588
12.384090265539623,4.137685875247308,-15.222078879007821,1.1865839462418766,-1.001448053189149,-7.6039831537513916
-11.080369952782416,-11.03292086030181,6.384463121727331,-5.982575417444169,3.442443510496128,-0.7752842133139835
3.6675821302715272,14.396261737699586,-10.282649491200946,3.3831397380472064,-3.1405721394700565,2.7088420509110334
-10.55952087777228,-9.15099212568869,4.47593525514772,1.7683298300647272,0.7668070192640801,-1.1078003679210058
-4.060774291457145,-18.2790636800416,8.963838468726333,-6.536337314658281,-12.528003207035297,-3.4863480117401435
5.570585973588245,12.10306862636752,-12.22870435867987,3.5393014596378616,-2.1430581193502043,4.588047692806121
3.5977347752946445,-2.0906098592067055,-2.5832405237865537,-3.508216450334426,-8.015172764384223,1.6057629978331622
10.342964020142826,-5.215478437435168,-5.202908442151362,3.9292804599796654,5.63714024755692,-3.0279781072324914
2.694394406473913,1.400677512917074,4.069855177672327,3.3583851075953,-4.50655385259765,-0.13821906146451202
-9.46036587869849,4.883265484280167,7.918620437144212,-2.857608082083546,-11.246390654136135,6.126376178615852
12.380220206022102,4.501258240124208,-11.179097274007411,8.548612047688817,-2.029225698661534,2.590029551136654
6.42653199218486,-4.848203629368289,-6.012887611409948,1.920473256566031,-1.0790745435269231,0.5359577230890633
2.131399864274403,3.0026315039917724,3.4898587740596128,-3.5408494207772336,3.940828944158117,2.4454190555923203
-3.1784155125546607,5.329234675569207,6.201544577249944,-2.6144830160467487,7.6669538965180575,-1.232382546714451
8.349599136000219,-6.216074851046048,-2.858879614016842,-0.2935452754065784,-2.1387574121193182,-1.862164319936701
-4.384003186581044,1.6713772612548645,-1.6600141677892988,3.185207912461298,3.7825294184578624,-2.714883837140265
-14.58140762367223,5.790355918556023,-3.706427118247488,0.12787899207267905,-5.114633812015049,0.7784812919836588
0.8578622529364033,-3.4152942240354367,-1.2846064746908739,-1.2494003826500257,3.6862443019510005,-2.149814496012601
16.658099139512345,-12.804894459882714,0.5243663836347654,2.001119922549827,7.328630948016976,-3.234486359577211
-8.687599897147585,1.3001954567452696,-0.32672278139447375,-3.8278525088617363,-2.089412418955895,0.7399581050433879
-5.188302874608077,3.137138848760552,-1.9536121405194118,-1.4731355700061304,0.01930226321157802,0.16827382457796675
0.9621672907204344,-1.201545687574896,-2.7209515928642296,3.98931048720437,-1.6081324794328178,0.8931443958078118
1.2689802823832386,-1.7472651352493926,2.5550808563962604,1.9202926591704204,0.28257486945356547,0.5426582823469768
-5.204273812231072,4.6748079427210945,1.1336037531742873,-0.7641756921662344,0.7768202660114678,-0.11956698429171597
-4.748262735278721,-0.13039635649569803,1.0215666117609716,-2.123318700082506,3.143909126631642,1.44492090714451
1.887088889506587,1.3988196355027238,1.9689253075907909,-0.9582198937819695,-1.915676514450909,0.8011117704308001
-6.068101951368456,5.821463935638452,0.5986619121767038,0.6421648015920596,0.3733460774544437,2.397940939514531
-4.881258021001529,2.800170026329819,0.3915417482587844,-2.3410645735549847,-0.47084203918035095,1.7649620096959706
8.49923530427035,-3.0939672826070184,1.2085739982415582,0.9290893628323146,-1.2529757176726743,-0.36867298729668363
1.6941820749499579,-1.2752253272027212,0.8912762707895295,0.6557078029988301,0.5266946359928975,0.09893266102614273
3.5562010635845622,-2.0768904412675218,-0.4809297469570897,-0.8413687774813671,-0.6260870215930039,-0.10304338817416259
-0.07343494681358242,1.2040427988254088,-2.850956254228758,2.8187165824449787,-0.8256029682195134,-0.42901463475876866
-0.2477904848977075,-0.011348872276926603,1.4201699290372523,0.01378492701800521,-1.4905534653551058,-1.5117580020050563
-0.7364878826327965,2.1370288287452985,-0.28959074692721776,1.8986000392112974,-1.5168042151153793,2.4763738899068053
2.1341500767343597,-0.9261773315640318,-0.13477865276782475,-0.8033168244793094,3.3373429540148196,0.2558566264483343
-1.0540534296141248,0.32027541030554385,-2.482087444622066,-0.3817950189530678,-2.6236790706730195,-1.2680521065238086
-4.661833639884016,2.006558559150313,0.8419040126665815,0.030462828223024707,0.31009828172207665,-3.2964380474378263
0.8373743772184522,-0.8731059814815605,3.821354373752965,-2.2097816576900957,2.4083688911657584,0.21764162419058342
-5.247309839846268,4.719735081926041,-0.4592736884494235,1.286030596079204,1.2558882294844032,0.3505484720414327
-3.5973806466377387,0.3515244628994636,-1.7094509783999725,-0.29118459298764576,0.4200582906783654,0.0840319168946071
-0.3422371476485122,-3.7539197848553165,-1.101024141299151,-0.98729114595658,0.3274984693437121,1.8374879079909248
0.5605897595259421,-5.12158758456531,1.2186267102118893,0.518971448626401,0.3470284220364912,1.2486087455086252
4.1686123111649085,-3.497349391406508,-0.8616493178846676,-0.8466261064601104,-0.460732239896704,-1.1141745932169265
-0.8264803156190976,2.1987523629509633,-0.05372707024163781,2.2740738294471337,0.5864877752187609,-0.6393617033782583
3.3331054399672073,-1.8205622551066076,2.8222624006897563,-1.0865761663980924,0.6481644373891289,4.083378293523348
0.7332567815531704,-0.03998483279407683,1.884141769687037,-0.2977370009640709,-2.1216427263241733,3.853808948437222
-3.5587478637704173,-0.44692227131148154,-4.124912295016999,2.769668493004755,-0.4363538429549316,-1.0464875017855122
6.380524681964952,-7.235040647347656,2.362567999158966,-2.238313871091857,-1.7360704036007193,0.5891851251631777
5.085730338387769,1.7793414954685347,2.613872965960769,-0.32817327103202887,-0.7296659228389508,-0.4046332292824255
3.8631899626525854,0.9893456125639024,-1.2079154250380526,-0.13265988128682893,-2.1061665447516016,0.17292702561526063
0.45227956944021397,0.5465385896227457,-4.151840746806058,1.7984448938309174,0.06445655647520998,0.97441284665131
-3.2143774978648443,1.7020359317186489,1.8155777617929874,1.560440538782223,0.9251240450722267,1.5012616793205702
1.020977297976141,-2.9893049979964954,-2.309781785254513,-0.35735722777255885,0.16389392111712636,0.9506760334699413
1.5821586291716914,2.763406167174754,-0.7475566041595959,0.4570290131673539,1.8893465301007137,-4.658524536597352
2.404438696413771,-2.7396058831812002,-2.9600581050480397,1.0442411566100656,0.1828432617916399,-0.4356140004669481
-0.9074790723126123,2.0240227211316633,2.0358504846885386,-0.6461592432335339,-0.708165287794585,2.520820393636824
-2.6327523976097313,6.144870464096719,-1.2215416771282683,2.5494261411365318,2.271044939623993,-0.14199722815936977
-4.995262083581396,-1.4712228002095094,0.6182425504365676,-0.31053008688979905,1.4999741242048013,0.8811681968771675
2.7581517967305826,-0.4496698605550322,0.981360761200851,-1.146788989705932,-0.27049178751786296,-1.8157617989617134
2.3697495213898683,-0.013826539023358286,1.0727832549177492,-1.7318671578383589,-2.302548778270026,-0.3452845058709763
0.2068925823262373,-1.7422034412937923,-0.9745865904443101,-0.6808063975570153,0.038126024895731386,0.09626683487194798
-3.308379444847218,1.2307919489341625,1.7537098594073308,1.3454054977345271,-0.8340314289420396,-0.27866003073722434
-5.968333854664849,-3.787577873974736,0.4198423490630959,0.21213328871789894,-0.5722764201645769,2.540883295977167
-0.38272865457759164,1.949046548556979,1.0295758561942887,-0.528407990075111,0.7011316303195378,-1.683988955855316
0.5145266530630721,-0.7093892764548572,-1.152003172912609,0.35601944540256986,0.6825812765061987,-1.3692931173003258
-2.234275324951521,-1.6459161468467356,-0.2588753989694741,-0.10213868429786488,-1.382807894815711,0.018452432260081864
2.662459328208705,1.9845250314824177,-0.4582098505103388,1.3812579071120457,-1.122500801525781,0.6799163923534136
-4.503990919654444,1.277515956246242,1.5366249037182136,0.9671109860239336,1.5140214212936194,1.3306409046224716
0.8628250714151169,1.2007470177615702,0.8100657343745701,0.44755921210125904,0.6109863608264541,0.3280378964264563
1.1676652010542607,-0.9339879385610259,-0.24210526586705994,0.11269348232384535,-1.0686701970801413,-0.4427276658472093
3.1271518528579536,-1.8206937171605366,-0.30419839948449745,-0.8656341029529064,0.01285202713202227,0.16244710737220502
5.035322398553324,1.232942761078857,-0.30408229237749573,0.8688869989301536,-1.9245445081951928,0.721226178338378
-0.177310374210071,-1.712603328958175,1.058184020039424,-0.7256512804477812,-1.1740221180334074,1.7850330647046198
0.2590603584748239,-1.4908728922166992,0.0338371684846977,0.12677397301040944,-0.33674880900898607,0.45347483009235123
3.1789733884049864,-0.10061180028333805,-0.4472793862689366,0.658543505122713,0.3922486273896342,0.5985165796103573
-1.1205141099985454,-1.5075116890373417,-0.13941563081366382,-0.42047285719953953,0.4709384199982609,0.26586663728070903
0.6429187799786826,0.8254475538362231,-1.159780002673965,0.7723396710470285,-0.7627314339377828,0.5928004523476096
-3.0783172235018434,-0.08338552914190966,0.983002915910461,-0.217785047192959,0.7057664501204842,0.22726659861820409
1.7735174062595167,0.6432884073592442,-0.13885205829184,0.5410165921133383,1.0965730108478278,1.3946568428856758
-0.09519418174683092,2.2161020555517723,0.42510916672940224,0.2161407586459272,0.42106213725055985,0.002094838680860356
-1.1241113448109479,-0.30813609187582713,-0.18613985001654698,-0.05880918497501475,1.4448377543010258,-0.30716686785537983
2.9154712239443485,0.13991306745811727,-0.8273473118216015,1.1780494383867057,0.34556323414442747,0.8467776087870067
-0.326828740439567,-0.4421498842728464,0.3410214673231166,-0.38922541123233056,-0.2233046092938551,1.004671506922839
-1.4132083074712216,0.5765242871934475,0.3921383738925016,-0.6200710725511798,0.4017809673072177,-0.2134201937094652
1.9419380386294343,-0.35187861263244496,-0.08041052307957569,0.06442884851954747,-0.3893402427709931,0.7423499744253819
2.1784574590605263,-2.226093305726684,-0.11394669691088077,-0.7042619423659189,0.15812544442408394,0.4835018926850094
