Gx,Gy,Gz,Ax,Ay,Az
-10.660302,14.565214000000001,-10.803738,-24.279999999999998,-653.0020000000001,-9.98
6.217742572715834,32.408214812098485,0.7382288083908949,-5.390997488222753,1.8022266285367738,4.137803158803256
1.6013345527892127,30.93047732230335,-1.0350567349750661,-0.6009628763717264,1.5597572742100947,-0.880644178244659
-0.22642185175142668,10.792742952776914,-3.590610578151195,2.1888839347627025,1.5364179687286024,3.57576657086424
-8.711683988597077,-8.547074035362144,-1.9577619024155002,0.5067573106330758,1.0314597021463268,-3.3566839969382456
3.257920142887773,-58.59135352093228,-2.409904032724617,2.4177967260249744,1.1314801506117926,-1.552245590192394
2.8953329520996425,132.05939945089247,18.95214307010519,-10.45080124084544,7.114606925730461,6.312626495920037
6.1430447331852305,16.885797419864605,-4.93219918942761,0.07554502797621576,0.8684405710008868,3.4939683432810695
-0.36280127871540113,18.792222728442756,0.11270363293642394,2.3691182320670547,6.160978539932823,5.011496049689031
8.07975492693641,31.92784119218595,6.215185800795951,-1.8379308625182258,6.859133285959109,4.046306252091719
3.627539410833182,6.514712829444848,-1.2849104471676398,-1.1668156617913539,6.6349381871692765,10.002837375325484
9.176803487170861,4.788237413195511,10.784153647486391,2.6406761380265844,20.01830372802124,29.128155559967357
-16.96964229012928,39.77007117731004,1.9486660090493206,-0.13426593252334262,-1.822924181959187,-35.791266540819855
8.996691687908662,15.554737998531891,-5.967118923308301,0.49300024269043563,-0.8076439490812581,-6.269370903172369
-4.146685657836996,4.0708861605878175,-3.8666018998955023,1.490864149862785,-7.32546114678523,-5.576115147234496
-1.0442270970154732,25.7290693367136,-10.586836446184954,-0.5923094458687734,-0.11848781564395983,-1.754762544002395
-3.4895669997816086,-2.673130608342422,-24.273168896040506,5.98928630079846,-0.06389273089006497,-0.9222108925001309
3.061836466286625,32.64340838214981,-74.5713014487724,21.6517330067183,1.9559405780740295,-8.255085142856922
-3.7533552073609813,-1.122258258993938,50.55406483184236,-12.406421807130041,-2.6956187474041355,1.6879127035179498
-4.437756100754067,-3.932926384620984,6.7242001235514435,-4.864334060416119,-3.4801931743800125,-0.9832707039742632
-1.5572917761355052,-19.339003330418084,6.783883606415541,-6.5124811076921025,0.7256639688961504,2.402615013336937
1.7278957094753022,-4.751161061626224,5.881570896245755,-4.5053901427901595,1.4596794815629295,1.62677142109224
-0.11853766444429403,-18.729028676049165,0.7101609861776659,-6.7234484581126015,4.392143921014859,1.181802742795134
-2.687745384271122,-4.371998300427832,2.6416080410437535,-0.44982928362519914,-7.685793367432002,7.967119845761292
2.351126277795589,-0.38434227118572895,4.346861420174747,-2.338923032192831,2.875608984312564,2.0299639423381284
2.461356709751586,-8.070588612700645,3.1503556221480977,-8.193487570208369,1.7507717634557702,6.136504240580481
1.5368948828759792,-11.346614617556199,-1.8017498380267156,-0.6834928402573492,1.1687520482187184,0.35826620456231684
14.126110431440189,8.135932960256746,0.33153278838892586,1.444382781088544,-0.24103852914307303,2.071433342273003
-0.5957676253164086,9.808119215561238,0.9312832182397959,4.850436773520584,-0.6201527294332885,0.18522987549864878
-11.012681327617571,-39.02270879456674,-1.4208628007132602,-14.068878081814187,2.175872665274997,-3.4630867784540724
16.34767649391004,8.52393742612747,-6.329736866741044,3.117376603045374,-1.066788364056486,1.7422833031184375
4.95155399784383,6.556643952716118,-1.5240172165173025,0.5045590391210326,3.2466341412119704,-0.6159847931013243
6.144854819438491,-7.4120887737548085,-3.2443625791485253,-2.620652793209139,2.2760048759953984,1.7134949155385586
-0.41736383094509355,-0.4814349856053983,-4.942875294075297,-4.824125130740116,7.5658395335630555,2.441427434616558
5.000025858614141,-4.1162386444799814,-3.3246082714522,-0.474448901879303,8.733711868836041,5.493889410434362
-21.671050002376447,1.0590496496920805,-6.9052307417199295,7.1575748331455955,-18.548871983772813,-17.81915510199482
5.00146050493367,6.097147785056038,-3.633799481820464,4.398148759022524,-1.2192744300064073,-0.8047079874546634
3.377093777023804,3.9271053062892918,-4.4892371523612145,1.0421079632280565,-1.5732239423393772,0.944827713076427
-1.5376031597200615,3.0428280605776417,-0.6896970803208563,-3.2661406168550924,-2.7391769943454936,-0.2537689670286405
4.613254208518365,1.8180680706300922,-2.4909781357188323,3.262694066152293,-2.7594884244413547,0.17793016861637612
4.233541628463318,-12.992309158363899,-4.4212754314591685,-1.6735989548515715,-3.137521728327642,-4.8207520882706625
3.6342542107826743,0.8500313644708424,8.085339665948686,-1.2168651018385757,-1.0386737643476018,6.689668494856403
3.3154658873091685,11.569918419864106,-0.18955474965937213,0.10470855794630674,-5.008751701865947,-1.0505622262188927
1.6421844426034649,1.0885012028730738,1.4292513423180098,0.7950664539350246,4.3542460453836105,3.8146269321556696
2.6254319628318785,-2.278937870127545,2.458476193716436,3.882719469175861,4.960619315583583,5.38333204704867
-3.444213588217367,9.243359436323408,0.5856311588675192,15.83039378368702,2.9901966855440616,-1.4378206022701465
-2.853238736809839,2.506511009290865,-0.03738431685135701,-1.0853671234740623,3.1789075758472394,6.412150422217968
10.147696522216242,4.6708026055602145,-2.6871849322061006,-1.7566944512044136,-1.456217695090135,2.652849371013998
1.2758039430208756,5.812187813302975,3.3457963124914873,4.365142666554918,0.715599607109064,0.018011021311881814
-0.25571046249300444,1.2064753187843615,1.203697741326525,-6.2554143634025605,2.3842011225361883,0.34555539894954634
-2.0749499085153653,-1.2068173586677295,2.4897627355824494,-0.12264485711596082,0.22328136460400305,0.3043260353538568
0.5468321203736157,-1.9848902443379095,-0.3047492067384159,3.5208107222318246,-2.0620524223291,-2.1871420446329104
-7.433957825572627,-11.419363755342665,-12.990915368052345,-6.220360878058125,4.075085922912017,0.8494552666297789
-0.3678100594618652,-5.655101212627564,4.703644289141385,-1.5179937582323484,0.681775564763806,-3.066669415884181
-1.5827947758918217,-5.017849298441822,-0.223029440954293,1.2505137882435595,-3.352369470141482,-5.089818212883987
-8.227814852121943,-3.270776454883393,4.6913096573149495,-2.1362162782464527,4.77961946966401,-3.7836418067385265
-0.025032735686288554,0.6734952765567268,0.6537053505921863,1.658196480425429,0.6539113410339106,-2.735942737244952
0.36653516233223193,0.2859861411814615,-2.9728604880839518,0.4977562679475301,3.691210889522546,-3.197493174508887
15.960494603630815,4.933784197641829,0.07030846519758605,1.1906814336583498,-13.998449372341497,2.010170200189268
-1.8501064574144186,3.71730642944121,-1.2115096647293502,-2.0912125653545828,4.3315569970765715,1.0565864377272751
3.4716706017670784,2.610188980465699,-0.3746076300697947,3.242522546432458,0.9204488043705491,-0.18517651343178532
-5.1149763162769055,1.9083345055133845,-2.15960372922289,3.00196925015761,-0.4577982232874125,1.3981526807590638
0.5853491735986792,0.6509599833999733,2.6212150947065385,1.1661901286037297,-1.8070994299133338,0.07948000558418533
2.4272503766688724,-2.477782717403181,2.8891360989390478,2.3175060179881553,-1.9924798281639013,-0.9634452296426195
-8.143046433962054,13.582200949126502,-3.3615202038362475,4.234905744758577,-0.4663874568660904,1.7406147609829947
5.8943350820333205,-4.839153963939294,4.211996135818864,-2.270137593854754,-2.7079055343120606,0.5209436260726288
-1.2188439872643722,-2.6816665687784047,1.946183599894819,-1.2465994786978212,-0.5246880834878411,0.07385521528505065
-5.505745757159976,-0.6898201609645702,1.6516860926228774,-1.4143710468202588,0.6370599842642859,-1.1221973753451695
-9.117611844976915,0.9154171284678467,-0.47727401332762737,0.6571352893407427,1.881388071980055,-1.3803788886678292
-1.747135052988112,4.026893070317,1.286609965651532,-0.581831439312597,8.335939411655982,1.64282260640398
0.1396215260484445,-9.96728549159673,-1.6445582797975935,1.035538457314231,1.052116189284299,-2.449304868195256
-4.993162138744379,-3.9036945996093655,-0.13689820833497368,0.3527742428758033,-2.013740728411208,-0.4184442506173154
0.11509908820160841,-0.897285694462072,-1.168258252375053,-0.6569113640118371,-3.789129014811282,-0.8595288485968218
-3.4053686777882413,3.1290158607281633,0.7215281225111283,1.0581170103671425,-2.007643028772117,0.40466014004221695
3.4331288923949046,-1.633765943477921,0.893540366995687,1.4813435750130184,-0.12022154914555627,-1.2279517277268388
-3.162082977750182,-6.388556846626983,2.895576727053612,-5.230912810764119,1.2327309061037024,-1.9457939560713982
8.189769421371107,2.175109734187406,4.785743466705506,1.5474329650779772,-6.12219677063084,0.22037924247933394
-0.40027089753524736,0.0219676117564237,1.023731813485112,0.3387454693855223,-3.2433577528786746,-0.6312627452882889
-1.1509729186580866,-0.4525735477451942,-1.8715912395507326,0.7504943921276903,-2.175980578763217,-1.260584031165508
3.566991194331265,-1.524228982555626,-0.6330350913205429,0.7884844098360257,-3.696470251982795,-1.2932556742580716
-2.7776700666831498,0.18864039220396744,-0.7775374900044596,1.4525707307932718,-1.7348519457536156,-1.1745482015028403
2.296641970739803,0.9333097818385161,-1.3159786812610563,0.43690874143556435,-2.123079328828528,1.6082003970445835
-4.16465769920209,-0.5272612591273751,-2.768259269950537,1.2296811741779867,4.433262464507385,-1.581985573963404
-4.029178487847037,1.6160425216277927,-2.3370169803245857,2.683941440384516,3.064837919139241,-0.31453509147002334
-5.070277633907013,0.959746383920129,-2.830080443126877,2.0540525092478132,0.16247644568539243,0.30348199943870247
2.5673665702696935,2.8588731867299324,1.706902657090108,1.7278186138603724,0.44120365883761137,-0.10934248937112588
-0.7066442621301798,2.5222948620019907,2.014948031283712,0.5625584724168929,-0.09209592024895485,0.04688045382811323
-6.620690122957931,-2.0828336636964555,-7.2421217236949715,1.3971762982640688,2.462325979891604,1.096051158902764
3.385324219048504,-2.704652863747076,1.4052850038702398,-0.3979147989858005,-0.33588277349767093,0.3093890940973704
-2.455200204845913,-2.3325298527306475,-0.179255605712588,-0.5628135643497039,0.41562299984089135,0.10614935068328446
1.822503226964402,0.28655084120411844,1.2871346096588931,0.21182948319346112,-2.0364593071555546,-0.5143914603284581
0.3041808554510343,-2.0987327695968263,0.20194253379631605,0.09213934901966268,-2.522387362168892,-1.7640327729899588
1.7305892275153596,-2.874284388048411,-1.423419793672549,-0.2972765037860453,0.32291936163590673,-1.6512675063217068
1.6370674291789942,-3.5861658139001813,3.00683980288605,-1.7277642611094166,-3.9465075770628806,-1.500624774539464
-0.5028080138636208,-0.7189676925497802,0.031022878961270983,-0.5071034105391676,-0.7291089635961372,-0.32234320417752554
2.7741189566755073,-0.5049078157987332,0.9768436912529272,-0.6093291352179961,-1.4006401049479356,-0.19812574575842423
2.131985717600136,0.3794552089289197,0.1536115198164424,1.407385655727552,-1.1727829003859076,-0.23573589647943904
1.4438385742584037,-1.246874490381564,0.7186058076271334,1.0274532292448344,0.1257322299754371,-1.3695447053600642
3.8340364890586724,-2.4695114116208807,1.8205054459027554,-0.4758450725690972,-1.552105540465508,-0.6784526785013304
-1.8645235010394063,-0.4308930568832672,0.6411469098437526,1.0234588331796697,0.6138844716863456,-0.15304761504375497
-1.3036923682460668,0.1020793237628273,1.3627186125647777,0.6475856810260808,-0.45737025404927834,0.4774139636107656
-2.0566702369283014,1.2068016122338598,-1.187091010865425,0.7510722222082566,0.6398940049024023,-0.2442965245295302
3.400184149491909,-1.986212347063796,0.40899869315449255,0.22376185841507745,-1.3407325514911979,0.34563797371228056
1.0657420335461425,-1.2327733726802619,-0.706198619019365,0.7252613096343796,-0.6879778462966077,0.3335446840012713
1.8542218609283,-0.41073618567040615,0.3369430825242059,0.11053028711212187,1.1069887767943476,0.7717418054182601
-7.708999204752171,-1.7365849651536565,-2.577354112506435,0.5441327540300458,0.5789704822698525,-3.0025154418144306
-0.9951135214121889,-0.6978492620211343,-0.3675291461098695,0.5772773869850591,0.7131551421139225,-0.4391840293631407
0.13427949591110133,-1.357500040039333,-1.274535751435343,-0.0889144815659228,-0.022676198470883868,-0.0982452533109969
-3.3174009629990944,-1.5538352125614383,-0.12086533832782542,0.015625786317424673,0.5162956219463793,-1.4796872394713385
0.029356613556923206,-1.7580511815475968,-0.8665045098054367,0.0774870900163761,-0.7271534929037881,0.5039543548677847
0.02261625364280384,-1.2205005483851998,-0.5178671086905751,-0.45018193682955576,1.5069707917698403,-0.6405579229262486
2.8799587009588272,-1.208921938499629,-0.11168233675647904,0.569263429632836,-1.0041716335650772,0.18725039950859645
0.6479455074946261,-1.604556366486526,-0.2814823584407691,-0.2291849354014859,-0.2269399825150653,-1.074455207381093
-0.21463956528684447,-0.4574792707636647,0.4271784701800044,0.06800916499242188,-0.6807316756372729,-0.39826254017718954
0.21761834720563333,-2.730697643073453,-0.1358478792369645,-0.020443574582433732,0.0564306230491074,-0.5344336086236454
2.724670879728068,-0.6960194921543701,0.6385919244208393,-0.1049690300126303,-1.1334178733106939,-0.7641059840559585
2.125588474046158,0.6796948830427325,0.7074488907015297,0.4400110110053215,0.41213434336452687,0.12223725538309596
2.4645224756172674,0.5801645075852109,-0.042277910016714104,0.5811654036189292,-1.7014155620504328,0.5360673134130336
2.0148002708317434,-1.0181954810943719,0.012740040462424829,0.3206124867890068,-1.556900418651181,0.10016846986697414
-0.4563668455743929,-0.6882162447262608,-0.33841519342652127,0.585274111240467,-0.7004265989144328,-0.6684289543845604
-2.5008095602058664,-0.7357594749384357,-0.15821717065077445,-0.21691610617704904,-0.2592912683568447,-0.886260418920317
0.3296068915841599,-0.08414745110656874,-0.37463724089021355,0.3610596821423563,0.08385053364971151,-1.287799569944044
-2.110368859409733,-0.7352450889673537,-0.5541121495994006,-0.19180588767627565,0.03951816413204251,0.5561682358155913
0.6127153097707319,0.32384936182802426,-0.688674538017942,0.508937072499792,-0.7092719634280162,0.3840909835670043
-0.7995803210178358,-0.012416653066298133,0.1975933116171834,0.40308264740977173,0.41022728569294187,-0.6653571595400796
0.901440844444497,-1.089019887836614,-0.35402294420771807,0.6341971510590763,-0.4251929818171101,-0.5018930956312903
0.8037362359206446,-1.038227436889239,-0.48640287295020945,0.6016912754267142,-0.5232326710436368,0.15567850038524106
-0.6596239132391816,-1.2735464368562153,-0.00286244836457919,0.3779002450538798,-0.5088068919234114,-0.09394135388958719
-2.5603688258195714,-0.48654433542011555,0.32520175650107636,-0.08628019642482948,0.6667039259216927,-1.8761181101624171
1.663951421930511,-1.6160142157484367,-1.230963285524873,0.2139459965157369,0.09638511842393749,0.10347155910751127
2.446634246585974,-2.68033932590439,-0.8519570414108684,-0.21106902857457566,0.24387653510033308,-0.03333567433622814
0.07406302720950625,-1.679948542252144,-0.004338875670984427,-0.06741679131344885,-0.39193416540566683,0.11545101031060301
-0.4337140666448416,-0.2532979203144372,-0.5420526529409571,-0.05782749958156251,-0.7831626448198323,0.1487974420607422
-0.13088027027896235,0.0023261757355670376,0.0135952526582242,0.14004057459758112,0.17327996471846585,-1.0544476534653584
0.6238332638821253,-1.0327087217179147,-0.4756504031084128,0.8689130680326578,-0.22724391035832348,-0.11614768735626836
1.23809234590754,-0.09561989257747494,0.3450010563390027,0.12859608277606496,-0.2144136731651256,0.08734967510626013
0.32768347174718626,0.11151108331815551,-0.7005418050469243,0.03320970116118324,-1.2504348465799224,0.9723397579929104
-0.6516400678984502,-0.705824302187364,-0.2735869163723543,0.23568352648327548,-0.030727025489832083,-0.4267352450714528
0.4261777036916044,0.06577481605169266,0.012188618147335684,0.10951803162930028,-0.2965358735831922,-0.20948978828699064
1.4785243210453387,0.888240659751993,-0.049026422040718276,0.6938642365244262,-1.115105307079794,1.1358303387136721
-1.21994523795414,-0.47031035529273346,-0.12252245594450933,0.14664306524180404,-0.15129128282497967,-1.1790896758695306
-0.20459769450937793,-0.6889331832572557,-0.33929391695579053,0.10286685334793269,-0.1789353315032527,0.0411595661615555
-1.0099013004664064,-0.02288229195153435,-0.14269252218517775,0.3939891380732828,0.5528319975760159,-0.9384884185885394
0.20797942585790358,0.652731915126207,0.03081886309427767,0.29889135097494646,-0.05716978743315754,-0.8241202888771526
0.2092401804518751,-1.6054565402798209,-0.14208487805854278,0.2263572583988973,-0.2727599186027658,-0.626510605238046
0.42712183795052666,-2.4632819402452695,-0.9547003141023757,-0.270869858680612,-0.42845794730305775,0.418683696546237
-0.6764956495009575,-0.13048066404814346,0.20854401028250863,0.03568946904888548,0.3613088587240534,-0.6785610397082457
-0.20762921119608835,-1.7975873051149462,-0.6414226549187281,-0.10531341051596577,0.38876536364283965,-0.7705649735828858
0.5844352152436499,-1.1667411234006497,-0.11903320700827967,0.6586151446899244,0.4408267705260046,-0.3023846263514323
-0.8704292263472964,-1.0148182820181233,-0.4927117750763567,0.12530876409563968,-0.40691178191386507,0.0008197705409134226
0.03236917361793688,-0.19822225713236974,-0.16412370523006456,0.3774124890959891,0.4286828239114289,-0.5330493495332183
1.7723589736515293,-0.3096910124645684,0.05933222456588794,0.10694830568154326,-0.9783159829040449,0.008785993435843187
0.3337898324222364,-0.8955314881228427,0.057470105990540574,0.10230057087232033,-0.39072526123455065,-0.04337843835900307
1.3111341040609539,-0.27068359811274106,-0.10400687680158609,0.4296739605787843,-0.44695486222261327,0.25082329053912317
0.32092457691250886,-0.6582482377315729,-0.4383005537907849,0.07256146806916908,-0.6560187178265896,-0.13335905042449137
0.4493537891145154,-0.9940664640092824,0.45485416371639226,-0.11212615149996974,0.47843891127395094,-0.43015879810878
0.8388238446019993,-0.6320548230157669,0.11212726626641395,0.32866643320513234,-0.10875450159259428,-0.9726992717714803
0.9079881503281872,-0.6485847972653528,-0.4903352848627136,0.4200366943592937,-0.44182195895128307,0.16397422531198835
-0.23353027083397082,-0.5564313991301217,-0.28164920827976336,0.15188120629750937,-1.188760266246286,0.44806032530158596
-1.0025314357087904,-0.29190204600850644,-0.4082555483676952,0.33134587686263967,-0.50005572303427,0.1973092017292341
0.10870738743281805,-0.22577233528513552,-0.7039458928364898,0.31177790375866943,0.2799131058444349,-0.45968968975576474
0.10443238792267559,-0.04132641878612675,-0.3507619680792096,0.20529770666249153,-0.10794029009694767,-0.21014682363424791
