Gx,Gy,Gz,Ax,Ay,Az
-8.492786999999998,10.917160999999998,-0.8620900000000007,-0.6819999999999995,-488.066,-34.152
-2.13340806253066,16.418499766452385,-1.0612175617080408,1.2406212319331509,-2.9072775427252173,2.5468788752027574
2.006202046776842,6.929066705860883,3.861559154915487,0.7860477528402848,-2.0530851033376734,0.9547800875297998
7.492552419514446,18.277834391319537,3.264766596595967,-0.5254335118225592,-2.8083502314965365,4.127094879603402
9.60958302447982,57.03313595709098,12.625713714459955,0.006011879007224025,-2.158901116443325,1.1929357712744828
11.083672055920806,0.6910366168294197,-7.5024463715337415,-1.3109944009687813,-2.479332756750232,1.4727473800792303
10.198658471323473,18.25755673625141,5.145483115548335,1.276867681044027,-3.2050673584619753,2.704990799518764
6.325666192386649,18.70421054992296,5.731469257721557,0.9563626638992775,-2.7971615259760476,7.9353955708953485
11.78471593490347,17.395339452223087,8.333141710298726,-2.640800817064677,-2.421763336858809,12.15024313628005
-32.14690028904769,-4.32410750669905,-0.04832295375312934,2.8833836014924294,-1.8339876069371621,-44.76250834153681
0.690082053333664,-10.67946833679613,-4.86239878570104,-0.41421204689242874,-0.2170585714591965,-3.6148787703421323
-6.209005194265501,33.57722803375444,-2.4587552535195742,0.9110411484210298,-0.6810172795959974,-5.592963403970911
-5.4805923853136544,10.14176253821823,-0.06736960041987161,0.15226035847603314,-1.649881649173424,-2.1064708889868884
7.284134670485755,105.0477796747028,50.96550704805614,13.897824154512612,-0.06435199209760828,6.1142436122444614
-2.3349626934573093,-41.87660117267333,-12.605010487171224,-9.155603719952664,-7.7081003184440124,-4.322605175580328
2.1083679939990203,0.21332794862977345,-4.554365974153789,0.036646460171206874,-8.833615064253115,-2.8935152196802028
-2.8997446479750644,-10.227202723266844,-5.969494150534775,-5.736261612060531,-7.619196738543586,-1.4185665760959585
24.99854619977043,-18.06024189144481,-8.430498898211425,0.889049754615043,-7.979312303249321,4.70111329798421
-29.29004054000758,24.303059952081334,9.526770146281006,2.235949883858742,-5.28046118450987,-7.860584548377805
-0.37581971797952374,4.215975831446573,0.8975019823063901,-1.5961934551790233,-4.015818917777323,-1.3691485114249522
-10.421177793031095,-6.5041268403857675,0.9241140598398799,-2.834381759678075,-2.372285243164443,-1.4732814441113777
-1.6770980854431383,-4.175460341328726,-4.267081232528575,-2.650674972383708,-1.5212910311955832,-1.7090290779988346
16.245605667531883,-61.406903783557276,-26.704673055462983,-4.410120324914056,-3.70221857393249,-9.085132354441223
-7.571645723423365,21.062875615605694,-1.9055562358475624,14.424173260683919,2.5633426862397704,-1.2979094086527956
2.910459750035924,17.248386602633044,-4.43152979790056,10.016088911377821,-0.9636064586529107,-0.3772373908664779
-1.9985563218861653,3.0643973020402324,-4.845495350006237,1.5603170337818517,-7.257052118533379,-4.704280722437279
10.532485360228172,-4.482705094432529,-8.903390287613394,-2.8204821426914526,-40.12432836623092,-12.879561308921762
-4.566545326801705,-3.2929437363066714,-5.165679142822256,1.0584904851904897,22.006017802273107,12.667194920148699
13.068221271771442,-7.631178973730492,-4.683928084813206,1.4736423885853664,1.4930397900463426,3.4327328481685515
0.10071132155861284,0.043697787128397,3.6453494660294083,4.050938324663481,5.871900652238827,3.985363415568142
-2.9784236648685387,20.481856347860656,18.248692411400796,11.980970144145424,1.2109965489900327,6.807555527129834
-5.353387105218215,-18.94823987237366,-12.311809836867106,-28.200535491397055,8.994872011855854,-4.836776958900435
-0.9952244661637701,3.4651330693438562,0.5118533618607306,2.6599215986251314,3.2732818495663603,1.885334113150288
0.6352651538830152,-14.694020719462372,-5.917198950151041,-6.459948675468592,0.030572847824532845,-1.1743145009336855
1.5098646824594084,-6.044858889802661,-1.5796447237542441,-2.3408000027600737,8.47264788962208,-0.4482947900263834
8.2882341989233,16.49359885060493,1.8084870405927929,0.30215704915469244,16.32016135310086,6.995536598426062
3.706900280458306,-2.294747251911739,1.2552840179337417,-1.5105341592805157,-1.261627485714702,0.9755396220604056
1.242067572313052,-12.803669324233931,-2.476680278948844,-6.323485252969793,1.9022866761843156,1.0510869480428129
-1.9654855772929014,-5.567419867564054,-16.13096914377133,1.8630473663697602,1.4145857742328298,-3.3899190789423574
11.223530336087826,-15.225672073735279,-23.548230871811406,-0.5940338293895691,4.645799859134629,-2.5040845956843225
-9.860070199893409,12.696162923323183,15.530461872096481,5.679075208731018,-6.2479709865940505,0.06981239148068008
-3.74811640341208,-1.7797430275905703,0.4133828955942924,-1.9625701513467968,4.917794978392604,1.1096031144358602
-1.9906445167976208,-3.510867420546166,8.812628373470579,-4.741234243848737,1.3019212824261401,-3.6544252857565205
0.431919856292099,0.49519835631370035,3.9689190810516704,0.08388027236838624,-1.8878982319782378,-3.139650122993842
-0.039802675155731215,-7.566711175258263,-4.357386916251674,-2.26990490657142,-8.619377802852625,2.655995444919676
-0.665724533448901,3.010887019857825,-1.0988309802134704,1.1207847864277583,0.38034406000996057,0.009867196443065662
-6.1123071515954654,10.731543336983092,3.5962873632057795,0.7124613398198365,2.9258555967600612,1.9120089845370585
-1.2067926886841867,2.949315431600581,3.7384448621218094,2.9260082692689613,-1.4684872468903958,1.8757829491753717
9.590527537659609,20.48778519830784,2.122702023282395,13.24456293836787,-5.327304125791418,0.8957273414091964
-0.8046680218535693,-9.599493540612528,-0.6826947379843779,-1.964284398586181,6.501495168499705,0.283646264602468
5.542259390811628,-5.794498700436206,-1.4615605806817777,0.3735749053022025,-3.352022102599962,-0.23436036123116533
-5.0456028051304465,2.0022671765703506,1.509460910755669,2.2407736881395204,5.477931431112898,-1.0687462072622265
-7.640556056719987,-2.446097680768379,-4.346571393344966,1.4611221467213524,2.296678739001284,-3.20485278368251
3.6857124231904193,8.312029580634519,-0.5588806459515889,-0.08120301651794565,-2.448573688863946,6.2248016174223935
-4.386360330105965,-3.1614260329634156,1.6346089683925578,3.2281426319895425,1.0023439632632534,-0.3380422897272684
3.3533201037851885,-6.708175441314831,-3.334813794575798,-0.04343116984041989,0.5698844112381971,-0.45866881525329206
-1.5762808937025334,-2.9070133001216725,2.9664310320358838,-0.6374046017654325,2.0183497105461408,1.4148697108914838
7.438589816900534,-5.384309005652256,-4.087541224330446,2.038016730710823,0.3852660662584072,0.8805288517340433
-6.603135337192235,-1.5341868755810375,3.943432226880338,-2.109571582670655,3.285635664508628,-1.3675481709124124
1.4901297704786551,-1.018887659158322,-1.098655293454873,-0.4831964347361562,-1.0425110142325373,-1.1603332051917237
-0.02492856229733409,-1.7659911787983056,1.5375501078700193,-0.7259852458633385,-0.1927034250734112,-0.26360895653386085
-16.90707191445823,3.7674087728274515,6.573886204811254,-3.1375165687354283,3.7413271464421256,-0.3839453499276182
10.440941997931152,-2.6036325368621207,-6.3208238242719075,-0.6853500728618868,-4.004875252977829,1.9340457021599313
-0.31277501083715054,0.42981664989778867,-0.24721443218245898,-1.8635306910934013,3.586154404131508,1.3804089724894366
0.7754848277546191,0.9327880218223132,0.8911078162313153,-0.45548833450205056,1.0719559945985115,2.667942295384845
5.697227966526417,0.10594743401218398,0.5365098840677531,2.91045509317484,-0.6234104403579905,0.5495162503839922
2.059118894466867,-9.502415416337811,3.811733787946634,-0.7995355122043897,-7.201240977877611,-2.1161098147994712
3.7800581505546518,2.389496253125582,-2.4515706431525723,1.1203731694843946,-2.1707324459303408,-0.2596066877268106
-2.9674069264163068,5.220705479138484,0.846920491253992,0.8149514646587488,-0.7513291382323308,-1.0770639823809731
-2.4621964556520384,3.5646689409237284,-1.0144808218415395,2.765719682150423,-1.869420522123077,-0.9371979089451004
-14.607851910671261,7.590103301809766,-3.5638215162637534,3.3172986195233536,-0.42767322825247334,2.1879050106816678
8.732667053414719,-7.868110065031189,0.7197009306270475,0.8121986673868604,0.9258606637206789,0.9565345320475672
-0.8691202881245286,-1.2276459681235483,2.166387551051044,-0.2632587209917421,0.24539728024466756,-0.9170798596349901
-0.9458351272438108,0.6469944520006865,0.9240937058424209,0.19507274136184033,-2.5896285786822695,1.1865906059854867
5.068109170547501,0.5413738778371853,-1.767840030068835,0.24876189812143423,-1.5589692572074947,-1.6282640289414014
5.753300584863358,0.45225320985259726,-3.2956388924432605,0.8914311913760755,2.8144263366318523,-1.4053490260608923
0.45264598269417256,0.25136090550589096,-0.44763175327922256,0.10948770513556097,1.819721086901893,-1.2919785162343786
0.8993349874127773,-5.94336608841704,2.4154708394421154,-0.6022315284450447,2.090893935542103,-2.8337620291343066
-5.2469498749806345,-1.8139972684362875,-0.5002957342273047,-1.8199071160219487,3.2982672457054267,-0.5273623862918206
-0.09207077653684514,-0.1081946580602633,-2.1819587091293444,-1.1348898759980885,3.0547979929733273,-0.13876993657671388
-1.1369595634134155,3.5425319862692444,2.0802549339556418,-0.6792777963631478,2.4186224580656344,1.4021697584169075
0.16264398003232827,1.1778382204952615,-1.6679953288813654,0.9680847417950352,2.5681924030117145,-0.6749753252057369
5.525624613489899,-5.148608426672743,0.4458298525638653,0.47586752704309654,-1.171276482372895,1.88812179926502
0.6830531487161049,-5.066089888265891,3.237584744071932,0.5857688635291953,0.4721852454086223,1.68956758375802
0.6454344134723289,3.0338050882411607,-2.081842653992762,0.07481932314437767,-1.9424241905849193,-2.044649633956252
0.8248992640246369,-2.4264350346670582,1.382230812084631,-1.3080017157295263,-0.5958915482909934,-0.6358065518469427
-6.234055987076944,5.466894655298043,-0.5764623047966637,1.9143942624247834,1.9842899117458768,-3.254552031060828
-5.155643710925278,2.463781848336049,0.649303937946084,-0.8779221378426753,0.13916042919527571,0.6121417414429109
0.49470110526089606,2.0668194681424503,2.2185935440365,-0.06007620268315683,-2.493695360533713,1.689849584119417
-2.1394598779003697,1.3970505032751674,0.33215185485205057,-0.6475982383335143,0.9602614435048467,0.7997818791391391
-5.66840140758836,1.7422969321360138,1.5956107172526675,-0.5515347025552471,1.2228447028414704,2.3357678582829893
5.083145792789987,-0.5072595982513626,0.34047712630972804,0.3647284398737164,-1.0642415301497001,-0.6346573842604706
7.648270428166297,-5.962218973985095,-2.7695071440637675,0.1529314092388141,-5.017187613898178,-1.363702321519343
-5.766795253174692,2.957188913958117,0.5076935803939138,-2.1318700181854555,4.076561579294772,0.21252194290468174
-3.6401191317450436,0.0134293395123386,1.1700408647622824,-0.0518874019767086,0.3040953879601418,0.5274917208637062
-9.513240505108646,2.782090282982336,0.8819873146288382,-0.9370007707955927,2.956579235014226,-0.4153265709946267
-1.323421877563907,-2.171645188796556,-0.8337724907079171,0.9184566886532166,0.08824283364712304,-0.4020637667940017
1.1408038657680781,-1.0777522227370318,0.8624145141164345,-2.338008011829953,1.490648131832639,2.527291609604781
0.04790916375705523,0.7173436670028603,-1.8987400967876358,1.4868223126286626,0.043934221912521165,-1.1918529157249602
3.262728795589299,-3.5092780591909696,-0.4874690454439975,1.0054459126986073,-2.8451707206041243,0.3610326059080018
-1.1236659933582285,0.475177719684039,-1.2308126964123929,0.2420995524863967,1.9426291245942515,-0.7338806684147157
4.062048499136845,0.5758435320930282,-1.1527717636431962,-0.9647799470351535,0.19178807970616996,0.9231818376630972
0.43108936651337126,-1.365409919970816,-0.3502930211016988,1.1565690426506492,0.2056173239775294,-0.5308366216373972
-3.4668392182738166,0.6964467267411525,-0.6199924847197598,1.2962417688682177,2.684386853426331,-0.22715649777188324
0.26396974708504195,-1.950354626272085,-1.3875496790224195,-1.2102586986154091,-1.8107977433595672,1.832429811586057
-2.261099529374417,1.939470158376106,1.8593884753232492,-0.2599730092072264,-0.4811385693102448,0.7151691938812634
3.3587757625493198,-1.690127987747763,-0.3225179742747111,0.4459079553448779,0.5300910763211277,-0.4350382678264551
-1.7153144285530755,-0.5757297433255104,2.616425237186489,-0.11034605008725507,-0.5355745686764055,-0.6329904840616917
6.050837877356759,-0.0030888422742416655,-0.256116196174199,0.35474134494932086,-3.1677520976805904,0.41884507150600725
-4.346340765136267,0.9516907085032749,-1.0524721586251866,0.5468872541913345,0.12469048244687819,-0.46276929282887025
-5.726449400676694,2.101971349312162,0.25285788314467794,-0.16908515928925283,3.2834444472435393,0.795907792423372
0.1549921422616498,-0.7815917674262656,1.0146445683316963,0.8429531463076896,-1.7550955931987713,0.5110411953200504
-0.5941377427703731,-0.635647100540333,-1.2037095746917466,-0.21046523795715355,-0.2358149254163694,-1.3774576394176563
5.113753727828886,-0.07708333148279589,1.0226245279239818,-0.30253291327694426,-2.259256241466277,1.8937679061658166
2.89489979762547,-0.9950178583631275,-1.1218263347240551,-0.4689985200885707,0.31855294857265193,1.4856605776787237
-1.1602277378150903,-0.6840754288661837,-0.33105433024358843,1.7568795917112723,0.24955433219633516,-1.4360395250141595
1.603621245699475,-1.4124378084356648,-0.8215181485655629,0.47684256969883165,-0.7462912433367941,1.1637119364223518
-1.0812814620067956,-0.3714290615163254,-0.14146475395363334,-0.5408088496762371,4.031972499422394,0.13419195737214706
-0.8367268977236035,-0.2179955770571098,0.6969094317707949,-0.1172953507692025,-0.37757332315881253,0.8155456229536648
-2.0159262244248977,-0.5729348692368914,1.0618960177893086,-0.5251408296885443,-0.5835368287298339,-0.7571322472848604
-0.19786613554296917,0.4479418100612569,-0.5207871206725376,-0.5659470911892281,0.06950601739902962,0.5377185892212646
-1.0576195197813363,-0.7251994918768945,0.34247988059243795,-1.0568151233912784,1.0402274327035788,-0.1046730799673139
