Gx,Gy,Gz,Ax,Ay,Az
-11.009466000000003,4.294579000000002,-14.678360000000001,5.298000000000001,-429.476,43.379999999999995
-2.3034059941526603,27.842453216599036,-10.596548969553343,0.8313252655208945,0.8335136716269453,-0.5639117951796275
3.4283642529463156,17.75356331656139,-7.376219717543304,1.816650932209801,1.039321209822725,1.3260598661562755
5.605221726940264,26.07336033411059,-2.7849533126011794,1.473766767235566,1.8419895142161398,1.3752502841145022
13.413697116329876,95.96736448123896,3.549828097594133,8.386694476059702,2.436945488297974,1.208475507550329
8.488279208747102,-22.859832151615365,-8.579688960418768,-6.3145225307854105,1.524980754806733,0.2905309608052469
9.31285737834826,-3.4182380570789963,-9.280179105876085,-4.880338856656566,5.906970226778608,4.514556566618897
7.210521576635658,-2.5179289528861144,0.9174394408694887,-5.1326589772823565,11.162194226692764,9.123105271309388
17.038015926365684,-5.501874562766089,-1.0537335553827283,-12.177520851522893,11.819369721244524,32.22114135048848
-23.130677333761547,1.3499236730574267,-14.41127051745838,9.110475201198227,6.414572478447681,-31.975847151109086
-5.758351388979328,-5.095118228696261,-17.41786689498298,-2.96386815323303,-4.401510749924737,-5.182523354444907
-7.952217364880717,-24.86791362179446,-23.671865942072312,-0.04853545862435937,-3.0006910738201826,-2.758506137996414
-7.786458844208259,-22.142143560455466,-29.07406223640997,-7.234246622601558,-0.960893082948511,-2.9091908351858335
2.5011811310435266,66.20070450499553,54.766234566694756,18.453149779155495,5.45197177594825,-7.696854938551105
0.3929776865503065,5.217865326691664,10.279997378874297,-2.446783965464637,2.153836481254775,-4.646421516968611
-1.1745488954722223,12.29168442575338,7.323709333462834,3.3582793151587946,-0.31395802291990904,-3.7011037042869934
0.326061785254506,-1.7979039316909395,7.807679591929371,4.287071709315574,0.23232151283582203,-1.7376719618576884
22.37513917462526,-2.3691647872242836,13.145971452521747,-12.354574819485567,5.403529082963978,21.305478686401635
3.093812473875749,-2.2127588798997384,5.950986311760857,7.157205639928808,-5.385193441827507,-2.608533951788126
4.0390433739244544,3.9905132232438656,4.950679664913968,3.9342737241128685,-3.110343747272978,-0.31376377470135863
-2.5877102050871845,-3.8013117635016185,-1.324781300115598,-4.766414120378099,-0.46540271149762624,1.725502887022099
-18.337384315122424,-2.4551849559001795,7.928523082109847,-5.550082486138633,-5.284621089898473,-2.1655335904434674
10.307447897812624,16.746858527435897,-2.6743967594862785,2.442440043707153,-0.8856590291992171,1.300321115221391
-1.2448137008277056,0.9710762520091432,-0.8885835945315192,1.5694474510949559,-0.46859847002133026,-0.5057664449663838
0.3163833365389346,-10.084593789120644,-0.701020949102833,3.0781503805421897,3.1549784619403924,2.98528969973601
-20.46638648173996,12.36574147999964,-8.430175758312696,4.293824261451951,17.53890061496145,14.719863151462185
25.71716661445238,9.450887431313797,6.3880733714140145,8.283911261998032,-12.135801344035547,-13.656473232453543
-3.4491734895921695,-1.5680257877952015,-4.526030473528145,-4.176194127961891,0.2826491487499454,-0.35823023042962987
6.474216088180922,-2.4899443055048636,-2.6877057994375773,1.5848354163694436,-0.362800008134065,-3.1725888868469645
11.246138815292674,2.2384443172469695,-10.927430423657889,1.7898800202661034,-1.1788096248223257,-2.3745993925876436
-31.114708830676015,-19.87440432630497,26.93062913587375,-13.98593133772191,14.369506510511004,-0.7750204625438821
5.2096737630909296,4.009196767088411,-0.05259770512424211,2.7284339316691435,-10.309489058720807,-1.100265270902569
3.0695112380545075,1.9414603331460971,5.596707430448852,3.215726768031841,-10.958881459840747,-3.486035409844545
2.2524074043985802,0.17385406275622506,-2.315772130942695,0.35520791018492126,-6.207397811326659,-3.7689620770785925
5.580914219306658,3.7215225791311006,2.8064068415976795,-6.004742279257594,-1.303370582337759,9.85436388811324
-6.212055455138779,-7.763273570410561,4.698331910429068,1.9130173103322345,10.385039270257321,-2.0159349100647654
2.1216051417753077,2.0516989703289066,2.2752970197445794,0.7791489427188505,0.5641993448949623,0.5787951029600844
3.579489324834488,0.8180051228543164,-4.9835497968025955,0.3661498326365997,-5.0955855012694915,1.0056772177181976
4.114967450790536,11.275843380789643,-15.995117606723626,11.753599737524244,-4.356845155400784,4.998713953795718
-7.417306824934415,-0.6001355432809046,1.7600507868024877,-4.625201291666116,5.0843594892577055,-1.3209537779078704
3.661034882592017,-0.34058797474880675,-4.350820201231604,3.572505198170709,1.930169246664191,1.239413679475919
2.2829304189916577,-4.055479795238082,0.21307793441256617,2.239927531270589,2.0804468569532584,-2.1652092279596857
-3.627905720701876,5.523726836045647,-6.73433425644151,4.527726959265866,17.114439664594254,-0.8160978861390955
15.286951424260861,-2.1102009480833326,2.6660816826186933,1.2813753286895668,-16.896946199741947,-2.173415002296955
-5.4095798861907465,-3.175917865883996,3.3799867172628746,-1.7394378598084406,2.370421469867188,-1.3099064877842834
-2.909569132873828,-1.1105349128933142,3.1448031677607275,1.0673583056052927,-1.0054161443050877,-2.2588006837671273
1.3781124800709064,-3.9142730924736853,-1.1361834275183682,-2.409415605297709,-1.9347630363656263,-4.3272888533160705
-6.386581638270851,0.9815641157704942,10.659306084356539,1.0530483169239755,4.105056394842967,1.965093855413726
3.4068932535498457,3.695745558355707,-4.258555613151174,-0.3581263244670817,-13.351513428341013,3.9544204225078974
10.28011304179192,0.6853937719144962,-0.8623145452339154,-0.08127628813176685,-11.832508714303092,1.0042887329878463
5.741411007031814,0.6134898632426249,-2.2507012763691963,-0.5322417067873579,-0.5078815542332222,-1.1729246102010888
-19.792676303632387,9.647564137875897,-4.730820792061541,1.4097284685362694,2.314961402579371,3.8652860860015275
2.527052266669233,-7.289006202762723,3.4966874856972723,3.246119050772828,13.384905463309776,-2.936793416882651
-0.4340107244875657,-3.950150211604963,4.762386317762139,-0.1409607523932237,1.5880535777653264,-1.5578554320924363
-1.149883954735786,-0.054972708597044395,-0.03412129782907369,-1.3798618482459468,-0.6575888927118224,-1.406621594857104
2.4418088537369296,2.0617204785133354,-7.252652269935348,1.2638860814891573,0.8021136715034135,0.25045215280237154
-16.77472388738346,1.6363422432955088,2.533516813667126,-2.334488801000948,-0.8881059246767085,-2.244214834147011
1.2463246519634268,-0.19092290627076158,-0.1954556431497778,0.6950872179479198,-0.47636619554527293,2.6989234388759886
5.39329773969092,-4.072021670507454,1.9402938842099284,-0.42394965195114764,-1.6077006505519567,-0.9453867870186894
6.08132159023912,-7.532303317641622,0.08754695504804948,-0.7730729699987804,6.720315891952016,-2.646921267664559
11.482363490750407,-0.5447583732519798,-1.3992973461504552,0.20653617774401023,-12.991738132833783,5.305956799894874
-3.111868227465955,-1.2651942481919356,-0.08942087966026158,-0.41702416057979086,5.125126086387745,-1.7652490791101891
1.0459811956196723,-1.71395799977636,3.5753808808263168,-3.3301580735820595,1.4754595917113593,-2.7935267647410913
1.3607741455457565,-3.2062700527422816,-0.27778779188971514,-2.0268977437800038,0.29573451785819493,-3.142525063432211
0.02425971265580973,-1.261312722086811,1.275251838435482,5.478059932408198,4.785927739178975,-0.9743955358168572
-3.730725987545709,2.6138306253893644,-3.137184231198792,-2.0432005150995476,-3.7645701020016133,1.024409648208659
0.7250584063790813,0.07671022129320137,-0.43382432936787296,-0.322196040787853,-4.9467738833448,1.6465226571321043
1.8948338524458506,1.618306995578458,-1.066464314781589,-0.28751815849303053,-2.579868580452625,-0.29411003708015837
-11.332854351524865,3.5025094010654003,-1.38671541416177,-0.5746501191070006,0.5288298398892444,-1.6994833854763178
2.5377615812165177,-1.7358818969232448,1.6183186473931255,4.264951115203246,4.914562498655792,2.3458000908222347
-1.3532483709830192,-0.9615241994071635,0.43008878743278167,2.4120989712593683,-0.27616285910744587,2.0662130801906544
4.798255203982493,-0.19813648542821216,0.8339373748248704,-0.33658289202550407,-1.6964191862605795,-0.7065011772155289
1.4126252431259552,-1.1165753268603715,0.680952389731786,0.8325772869672122,-0.5774765432852909,-0.343569062842777
-3.9692207699264053,-1.657657680973761,-0.8080516514840621,-3.1342308480956715,1.2365522561089897,-2.611101668772837
0.04881482450145569,-0.35934054959379047,-0.2880623770953732,1.489568362920548,2.7998332131603894,1.4649770157886612
1.2483956517047865,-1.8980682681671746,0.6246076289283774,-0.021957624040835066,-0.618740444264418,-1.9474088355451866
6.367093240415121,-4.311311820266199,0.1205095409757625,-1.0926791154318727,-0.534365195720264,-2.377612082534017
1.4864848125892884,1.944922480474637,0.34045043673415015,-0.8464523434387483,-5.170035083155377,-1.6323237918194518
-1.0450036200553734,-2.020020043054364,0.8269373315557075,-0.9717246873800344,2.0330509447465053,0.1834553966576351
-1.2526411137281865,-0.11769337183889046,0.06507394835884472,0.6174444583782888,0.5208462622128318,0.3623288875598824
0.19950883340760006,-0.5276752808848554,0.6892112027540991,-0.8656767982025411,-2.860554645091974,-1.2073605146841824
-1.4580230373629541,-0.33677580573493193,1.6275235055841153,1.7552380906706602,1.6820172121070018,2.4693832861329454
-2.831837645752537,0.04783445036172762,-0.6343816205714017,-1.4808793687920028,-0.6316940421939452,-1.586604054828511
-0.8032010011034469,0.2361345538056775,-0.589492536001353,0.23143521158616315,-0.9680314735160878,-0.4359989150530623
2.4441295606650657,-0.2408774338128632,-0.19045554315435587,0.6481217702551727,-1.8024300112819478,0.21281202631145035
-1.7316744158054311,-0.36736538789239503,-1.5507792169817547,0.5227101233112249,0.16965942021996105,1.0926099033699932
-2.316702534989818,1.1612383975688996,-0.7026994594994889,1.4665007882870347,1.251631026515576,0.9261005363802063
-3.619105390333747,-1.3448387569792235,0.5651379776752732,-0.02834454633913097,1.444559553644441,0.23801434482930306
0.37991133008607814,-0.6071745317763537,-0.014631814302473733,-0.45573828933779126,-1.1143929020725225,-0.9477552037583152
2.2460959967418814,0.31462310525787185,-1.1057554855276384,0.34936253652178206,-1.2555115881025003,-0.7483490395136667
2.0833198636776986,-2.558331950463043,0.7928118370130421,1.512829747128102,1.340418302087155,1.1209563056424954
-0.337963217410405,-0.6006617612688192,0.35878599349652207,-0.48571746024000784,1.231877289345456,0.3842930292418991
-0.7565622874294577,-1.3886136214162952,0.7215433341830475,-0.12706344669696085,0.14748024470387144,-1.820275390070004
2.7436346617364045,-2.1699666104217092,0.5226963306232967,0.2926281620304431,0.18295840071935787,-1.5815476732655551
1.717255674537368,-0.9520926299169945,0.14785820492014645,-1.848311529713353,-2.7206574270675086,-3.3781884827359034
1.2887208747828152,-1.3833779888088593,0.299608813475186,0.012191778526899011,-0.3529370001613483,1.6895036042481602
-0.6472039298176304,-1.6143668250032261,0.300554079140741,0.9415871759394701,0.5617724036542195,-0.03178765555396046
-0.5184782204348009,0.19525262176089475,-0.1113703459514741,0.23885721219155243,-1.781044293027757,-0.8974709643996632
-3.140569016953653,2.84706123598213,0.1529303933419437,0.8299346669113716,0.6236732896481127,1.2809802978872495
-0.7414028599735261,-2.045800915042952,-0.05619625336534462,-1.0152914166758813,-0.8559486537733334,-1.6267319341029256
-0.5198870120359707,-1.0743407837330072,0.435578357009995,-0.655161591572816,-0.9379028004344541,-0.12414336787748925
1.5651621070353323,-1.307288977720204,0.4310320481870361,1.179753802236687,-0.48303401461990514,-0.06271388424703062
1.837619131760543,-1.2298975009459086,-0.26030879937091445,0.14661593638159598,0.9803477834884826,1.04311502121586
-3.269330693091258,2.03163213310546,0.10754596859674515,1.0665694508199444,0.6636748394419423,-0.9526423819090345
0.2018589859946498,-1.296428038484914,0.14997135289395547,-0.388302546892232,0.3398737699267254,-0.04827358060095793
-0.7929714193059955,-1.6681233753650622,-0.003252451434378356,-0.5361272340919095,0.24158657825902574,-0.9137022903396739
