Gx,Gy,Gz,Ax,Ay,Az
-0.28852399999999956,11.336379,-2.9467030000000003,20.137999999999998,-395.006,-29.338
-2.795976185251571,12.415054954469614,-2.5025496313796314,4.43759240851747,-0.46948461932703456,-0.17231340777853632
-3.400464001343997,20.54480281251095,-6.5361942082322315,2.3001578026365546,0.5417491628369849,-0.5185445385806184
4.272991952310413,22.101547558473754,-0.8251014425089807,7.906200213935083,0.6768795523797937,0.903094263106385
-0.7290619989601366,-30.079755033755507,0.18250143125347695,-7.175166836423311,2.199443806284776,-1.6099084693326526
2.8362009970121784,-0.252798674754114,-1.3486497267354405,-1.7420115217266057,1.2138303904237027,-0.714275736710003
9.495119887387022,9.49881035006023,-0.2691573353509268,-0.31594685753188767,5.233492724234129,-3.6885929388350864
11.531952466637659,27.061913329445105,1.8332388311767362,-3.404946464244759,39.06131732551815,-32.87269228666659
10.897784024854921,8.675410234871578,-8.488406498698467,-1.4053987570079716,-1.6780493213149477,5.507319855738502
-0.44186135792278325,2.895314096128338,-5.757699086288732,0.6502637087753953,-1.734523061760867,0.6237722869230767
0.9975970708033559,21.110817497278376,-8.982030148387432,-0.18928768773372306,-5.860641887560236,0.6045193173582246
-3.4705293828239467,-66.63091410261467,9.116492842102234,-3.5069133494726525,-1.9155176786311008,2.6350605585774463
-2.3759273545940736,-12.16302550623144,8.906898306657324,-2.608316002074974,-6.722414461428839,-0.13185766401527732
0.5444201280115625,-16.499034562140388,5.819996931440749,-0.06735717236893118,-4.3507351642077445,3.630078460716519
-2.3904441116447597,12.080833070302573,7.890226286179798,4.153425118641927,1.3446110193340863,19.050888344659953
4.866771783159436,-8.124224205104236,7.393264394127579,0.6784748433499906,-1.187411718722163,-1.7920489106810018
-2.8463853258384035,-4.686737605110572,-2.983579869979832,-1.2861889854573136,-1.6209575486341083,-2.1264344953978433
6.67459576992514,-11.810073752606156,-3.362680502915701,-0.5150084808053099,-2.6116111185738453,-3.0483862170240776
4.220203777938426,23.9660872072654,7.876179720108663,9.376660180623634,-0.24092809865925804,-1.6652285515913587
4.086640082846451,-6.96704845673684,-3.170408603018794,-3.4894058731538236,0.38562510802678873,-2.4627147480927665
-11.922306315731666,2.9096089721487486,-2.3009284563746837,0.4240329739350488,-3.7058141601549077,-5.480208884101748
0.8905090662956865,-2.427427058155252,2.071258930052805,-2.720730552007524,-2.7807672469850933,-8.005226538516313
-8.903559602745775,-8.048032116368693,-4.999704667721702,-0.015042098783301039,2.4597502075160427,-1.3405831841796836
7.537419629175585,-2.381664533802777,2.9943176550202257,-0.03283345184834191,-0.8722890046689256,2.876355379457286
-7.246313388030968,-0.36609163186990656,0.5334040437465355,2.4330381985703866,1.2511066386045997,0.4846369382180129
-2.0168326771321494,9.43478616997216,7.347404867232752,6.594476786069535,3.313642693578719,3.182432232414134
-0.4027274557182291,2.5456322700877516,1.1926842624261487,9.9667464075382,4.270712494821484,3.0486611353209025
-2.128198954981403,-1.8373128152202864,2.682154317497877,1.0490544608899293,5.349850142254546,1.9151112610970293
-5.4882767465943125,3.5040005524120588,-2.038457640514582,5.60409278637715,5.684887383203279,-3.793185578776197
8.286676249761598,-3.416520701617773,2.851308287181202,-0.7212341574525223,-5.755805724875366,9.54616113478394
6.287750070249284,-8.084424292618408,-0.8284746408447582,-3.632547466395964,-2.054173393720076,-0.3135997455362294
2.003687583898579,-5.3846535347187405,3.6712412998091555,-5.214397756784724,-1.517526449607659,2.151723342066256
0.9927837742207333,2.8601096419327265,6.2997804698948965,-0.7842998583526067,2.105412241159287,0.8052686029447078
2.1857918646457044,-4.09070419455309,4.544458033072656,-7.071204729257461,-4.456201344067631,2.53981634222112
11.851057571252422,-4.777959825319636,2.136184039992673,-4.051748322897288,-5.017234909977118,2.8305526475121723
-2.4002099295569947,-1.449544741091274,-2.6705108675004037,-3.7053565487831195,-3.3604904541924867,2.6435246276880475
6.634835265258612,1.6030025398061092,-3.318792398627132,4.62075111574415,5.384348769337823,-5.573940034803718
-8.700954929274321,1.0668640354554086,-3.6045266261108644,4.019145114305422,3.757322614332516,-2.6770429966414455
6.04412197248809,0.3904959148664757,-0.33151755743383315,4.213503143093608,-0.9525355205255077,-2.9650713877578685
-11.226831175308526,-0.584319234439107,4.914934932052937,-6.178145976438099,1.4520330153914738,-3.356134631058535
2.8073144455022696,1.6008982114101462,-7.452901277728509,5.520363615447182,3.0492953567098264,-3.617820927736938
-0.32189317965964737,-0.4067686780173081,0.5873115011756573,0.27481459168216094,0.5979200788633916,1.0364536566242526
6.230922215251951,-2.9200898785610483,2.5547736343649374,0.21992848294986445,-1.0152820562634757,4.119030656772917
-15.789495312015323,-1.1767680098044608,-6.093145514526093,2.004829214448594,6.435408794492731,-3.228001751830282
0.8212039536810095,-3.9726949262658984,-1.1402089507917703,0.2677354753463641,1.7992100652428085,1.1321730427870103
-5.836739500581134,-5.2890540808027495,-2.944966385841612,0.6246810617023932,2.8076386252126326,0.6823177970505747
2.8046107992363414,-1.2451859798981286,1.580834751475674,1.786068610305899,0.44311423696372276,-0.49284980268346434
-4.92270617922135,-5.845764980911809,2.6137511526875734,-2.0740949753904427,1.3976411882385218,0.6175643176944114
1.9263583582164383,1.6552643707513344,1.0911884571611858,0.7482103108396906,-1.3162211192196374,0.9574809047455721
6.347016833147972,-1.5641023537229275,0.8492356020661965,-1.7212985977315671,-2.2062376713373295,1.8688819209509213
-6.20286429603101,-0.17776262951654664,2.1067761734324275,-2.9553232406811816,0.9782514346010571,-1.734106698216826
4.3517173766405755,3.7526442734019563,0.5410923616443908,-0.1622355125631305,-3.6725179437009148,0.06445691760113781
-5.50878296812806,-1.1424158252172916,-1.188070011952873,-0.18356369087191027,1.6866512646173664,0.728752808002964
-2.2891985313562326,-2.5770113145200515,0.4146338564854488,1.0200492511916244,2.1254445978546657,-0.6039807024784538
0.3674851446494305,0.6544773123696115,-1.9366782492812609,0.43805065039860736,-1.3610140328708382,1.2042126731990166
3.3553544524581977,-1.32339798103059,1.1186632073969722,-0.5611160185870901,0.5488767102382965,-0.9812313766228806
3.1450993851453592,-0.7952763770699178,-1.0516958288024405,0.7411943090268684,-2.3215177575587815,1.3295385305110567
0.2501956774303733,-0.23314585175761415,1.0904326671240563,1.726443096514258,-0.07625704516697329,0.07419340939663077
4.349779625118085,0.35044063614374554,1.1684240041778367,-0.8998551907184267,-0.9925928767005932,4.135357039193913
4.332349910328544,-0.4280296094471723,-0.7030245808717526,0.13597632070442978,-1.4048162642760413,-0.388545756003267
-0.6804890311200538,-1.8908480396072918,-1.663977786157822,0.3764576608396495,-0.16761730074101466,1.7009596748516365
2.7605878490333113,-0.16871029937603743,1.4503974623415243,-0.6693895192522007,0.7507524762123734,-0.20264101154344677
-5.315881750576902,-2.1824570522789495,-2.910806837985565,1.0531497447718676,2.100425422564421,-0.920127279280019
2.4311282060602,-0.3958358581048298,0.22931927951908282,-1.0725142715073048,0.9877176134420615,-1.5013343221012985
-0.2804232281071952,0.3383190439417847,0.48549283200113214,-1.0903226088838522,-0.16505667499543097,1.9587170808972483
2.689658936289304,0.5084378177701645,0.5120000328893975,-0.11508038708634838,-0.04027952048832695,-2.698600018644203
-2.9357664836076225,-0.43446715748965836,-0.1808099544400823,0.43105400874455624,0.5985255979854888,-0.6362984017683715
1.8343335109765118,-1.0056231232756119,-1.7777066035756275,0.7666879352850908,-0.29079510792976254,-0.2373068331050983
0.32849835533964544,0.14994892588709163,-0.3472838094560733,0.33762153743496126,-0.7939714300990448,-0.7313279180188792
-2.034057260782567,-2.8284731531616982,0.0961193554733184,0.10202345060064077,1.4923666356502592,-1.4743663465712056
-3.2637823475413037,-2.5879812896422862,-0.2781928519607563,1.2141327055123434,1.878703651482482,-0.9182204120795099
1.4053824821690308,-2.4477711268207285,-0.34833941602200186,1.1754889567707143,-1.4213813846770125,0.7289176494305232
-4.224191578127922,-2.8113610598767504,0.388323315729261,-0.7681513187149008,2.1681754336312427,-0.680991292580969
-2.6628875824703875,-0.7585731600025823,0.6071321808799477,-0.9491898704459291,0.03237466310047302,-0.42340522477509024
-1.0594521549010074,-1.044888714700667,0.2416130145017418,-1.1835530902607347,0.3062619217186664,0.986405064504385
-1.4802384853846293,-0.8055746362878284,-0.5162317949707043,0.9878172181005059,0.9382438962526567,-0.02067006495490542
0.4435704117814252,-1.2180567306738173,-1.6024421586303024,-0.12344694563471575,-0.7647298496659956,-0.16799330524641531
-0.8356256661763557,0.3478376791014687,0.03106863888386499,-1.107802212633699,-0.37757235589622995,-0.23028366544874335
1.2338959809813987,-0.5304010685065247,-0.5618340683377345,-0.8994848775119565,-0.22371194199069033,0.22685305278945478
0.892070532541704,-1.9414023094214556,-0.9801213755227338,1.4617579903268167,-0.1303431984823929,0.35180880716109586
3.1363099316858642,0.11481011987497158,0.15413979141222056,0.14049150031989976,-1.0524032652092172,1.2018927852322094
-0.5782107805916379,0.39567367696659217,1.2834519153205872,-0.8329996900243767,0.4528748598395639,-0.025304335300829067
0.08277279516161817,-0.6536030381885387,-0.044776183797429536,-0.33687043590928684,-0.5535045590035998,-0.5732994169108208
-0.5524617324149695,-0.6065723925184145,2.6477708876085795,-1.195247339744533,-0.5166799013948211,0.8122638039480419
2.068389310248972,-0.6908644073478616,0.5325932950574974,0.12806471559430765,-0.5415387490280376,0.6248843637200605
-1.760546874038699,-1.4843268379005474,-0.47164276238119607,-0.09956064148499547,0.6309863774570115,-0.40586228227688337
0.4800276704934058,-0.1035577179445803,-0.5838152363070575,0.1665734654490717,-0.35203195230934503,-0.08731975647368595
-0.742555375927413,-1.3334121466544229,0.44701919173421734,0.4771708860152639,0.5328112627703665,0.11650661331699519
0.6176304314547734,-1.3869984345945918,-0.034947278720343755,0.8383699704055234,-0.22161428616378565,-0.31290660678708293
-0.3943456560697509,-1.4977400052192018,-0.78760682573266,-0.4040803230779918,0.3853143582913936,0.25020579585316166
1.2267994232394983,-1.242938185428115,-0.6368657989491406,0.14754702795757324,0.28191133612542135,0.8378966782018739
-1.6004304124354127,-1.1808338080747467,-1.052521819067094,-0.1256291966657458,0.5887669804502236,-1.098480800581402
-0.04011141952999475,-1.133230940304695,0.7863497257811347,0.20022883423849924,0.5211155117256021,-0.4774601269134816
-0.26932639071676734,-1.181900047490787,0.05625586091897161,-0.5075645952294097,0.046885011910621555,0.12535193013122703
2.288479820412073,-0.13948551136514076,-0.6520117085641786,-0.05317720348794974,-0.47341258650662726,0.20617975178706835
0.554217030474033,-0.6796178546915081,-0.6613723970714642,-0.30054241829241685,0.19468641305847134,0.01806791176360345
