Gx,Gy,Gz,Ax,Ay,Az
2.8793919999999997,8.595148000000002,2.1186789999999984,19.708,-611.3439999999999,163.09799999999998
-3.740997371008253,8.852510296437135,-1.0038340710707454,0.32329259305668523,-0.9385997779307619,0.9486333729384775
0.7037030590857235,-5.589900455435789,2.0615702386572874,0.6850629860360541,-1.2192575548235811,2.872902796044596
1.3768822205726892,19.56312796549309,-7.1862618453844345,-0.5895265372036362,-0.9581972646675969,0.6328004163323399
-2.080305559960268,2.072086285696258,-0.24703004791469751,0.9410239120863699,-1.5839817131942429,2.6427222954613163
-5.272456056788544,0.19562313878448268,3.217439317581423,-1.1555082514023332,-0.5856017183532864,3.6710269359617866
16.362918158727613,-115.89223865397145,80.56498487750875,-4.471812614979636,-0.3279958598129179,2.5545246861244224
-6.255476246319781,7.043959839759088,6.7165922110812435,1.6129195975765172,-0.13172132258830516,1.9614109340382015
-9.8558309990117,3.374785500345971,-1.054298598990703,1.2262470709984172,-1.5871840040884604,3.53752411170576
-3.0960897853505145,0.642067895184254,4.774881609855943,-0.5179192719404738,-4.847678772563214,3.9302187224031466
1.9482002866991357,-0.1978693203229323,1.058021950855403,0.7097019404540361,-1.1558823302701684,2.2328747391187047
-3.438040128406958,0.19797147839776796,9.580984063104747,2.1730132569072067,-6.451014092864027,4.456753169932992
23.41740141771176,-22.598611240416304,27.984966613993816,-1.838552501225606,15.32381295187556,-58.55099418896463
0.6767577300951354,-0.8852689116012432,4.76665217382197,0.26095214710790016,-10.11252928939915,0.24807477491874075
-1.658367563355781,-8.822487717854617,1.6500162705608847,-0.9287740857699414,-6.0158476687281555,0.7210856515615494
-1.207068252340366,-0.423556431017448,10.546761479928247,-0.979955685613695,1.5414566657013287,-0.46260629204390785
-8.079038031728228,-7.291238212750945,10.082144584320988,-0.6133056708086289,1.701076582061221,-2.8592907150531977
5.606697141550733,16.60943371683661,-5.239115691009525,8.304607169673037,5.649535475406407,1.5607291437929711
21.242768683608826,-110.87140232970086,-84.95352817383038,3.4527381509850636,-13.13188435021651,-1.8715227300906396
2.976882189512013,24.14243050922255,-13.680922035490745,10.989171846776618,-5.114662273151623,-0.03843275768472576
-3.8910116116869666,19.240507584856765,2.509580531229272,6.7628624660230585,-4.417274656545652,0.19066384195597452
-0.46770093950200997,-9.086424404067447,-1.1320931281636413,-3.4365674304771447,-5.9411789139588524,-4.564112079189417
-1.996718613305379,-3.9108741046737383,-4.964238499133868,7.327437058551314,-0.8052003588219798,-2.086648561093326
0.7178377966782532,8.384762807531747,-0.1495019663914805,3.203989399152695,-2.0992177338134126,-6.2355649087663485
6.650979635588843,12.000667789640616,-3.6111359952628757,8.01541612650185,8.378902974984802,14.532949253360275
1.5991109979259943,6.335371563401196,2.18549657260882,8.744703650815392,-0.12705937306798165,-3.4276373300149388
-2.735716658571746,2.1387885721813005,-5.268593049855539,6.765575464401833,-2.423496267352267,-1.8964264894947762
-0.22564536021337478,-0.8817801344017631,-7.504194832457831,5.288691063875935,0.1874507757216186,0.17233769257558973
-2.231324978831893,-11.291909718353615,0.4629112478093782,-0.5499690247820577,-0.5312608960431062,0.4073585087647198
2.407692888074756,-35.72872625841375,5.951788072367181,-16.49507206809568,-2.754864569848333,-1.8508223549781317
18.630254256496148,96.06296478953908,-23.477956950248515,2.0085824935725993,-1.5309279089128576,1.3323083062094625
-0.47847838323932446,-21.495227360825247,-2.497988541069568,-14.181931821631565,-0.45576684796722566,-4.380471141938109
0.8218890344855966,-32.057110150696076,5.839473898698886,-8.33983675386069,-4.351354141490129,-4.143984356401665
3.066890460626027,3.3987466717766965,0.051777332766261175,-1.914733583371449,-3.2242498869353815,-0.9182955705894382
-1.7302157912227265,-3.0522430066721506,0.7817095198358534,-3.125620081987491,-0.9147525203824596,-0.8870309339214041
-9.488542198375075,-8.733735661180624,-1.725493790429217,-0.9358275928471751,14.838949119834618,5.594420083670067
4.191195480118466,1.8183813670086835,7.589715915574554,5.437800118558171,-2.943593094076102,-3.3869699988828126
-7.469544086930262,-11.499564134523677,-13.343569587834562,-7.841911846407971,10.247484412117686,2.4491075381654346
0.35993763180239835,-3.910380851978079,-5.297134255827205,0.38748929918713304,2.2620451742686334,2.021990255689095
5.60259702699696,-7.532008211311204,6.350438153771371,2.3864516107365183,-2.4742437284904444,0.7896543029916658
2.5061872909152334,-5.035080831949018,-0.7511113199695132,-1.5006065860130673,2.291638814342261,0.1351566792890253
-4.627901779457609,7.260878037829112,-11.327158210903706,0.20195237641246006,7.1155918974217,0.7953766137088116
1.284784140217973,-0.005384094846316634,14.699109023330596,16.404534449515214,-4.278219507858789,6.467608621682202
1.4256626552917862,9.537689530424082,-1.0264212074765169,5.388083843315399,6.821576486916789,3.6545014995458684
-1.193569278150195,2.7029849256628387,-8.604292243479478,-4.240862204973941,3.1365703886710796,0.02086715134443684
-4.325308843611256,-2.5988700536516465,2.1577213699847215,2.5886695855721293,0.6128618135671673,5.430460033135182
0.3074689263331779,0.5386708446976558,-6.676347538769446,-0.13404420706113374,2.206809518758775,4.086094297957853
0.6177731340343553,0.8061973817631505,-4.340411160045491,-3.1226515336909895,-4.799358939836307,-2.7919071281092456
6.9878623691405455,-2.612344212851111,-5.144181410717608,-6.14058584448312,-6.7474061806296115,2.31870541024137
5.901999116350584,4.646908806930082,3.544912813322382,-2.183474843777975,-8.005109136226226,-1.8898316907536443
0.05808777033801832,2.0620563156970038,3.1653004338590938,-4.1227250198625365,-0.05585627405873672,-1.5635500604693566
-4.789694975701061,5.103926265203384,-3.9585118812140805,-3.6005423184450933,-2.4712669220177883,1.2666228743025576
-1.941482743058864,3.8370477932866436,-3.6469513837730316,-4.0683416813325906,2.032238954511712,-1.5365502063519532
-6.364494630480872,-3.0376101344545265,8.181248197017755,5.115681874498705,4.825228856095235,-2.159301462189977
7.4127292925483514,-2.0924983851939762,-12.465129671694038,-17.248494211132567,1.8740136789806883,-0.637329213160128
-7.130887902426615,-3.93020870997991,5.13928662411133,-0.5238386636307468,1.3051039264947377,-0.2631901974944597
-3.425791658916535,-0.4799577900492993,6.706739444367069,7.830890985127163,-3.9546393805139406,2.784400960800152
7.5623591237087044,-0.5327268204330087,-0.6584491725193571,-1.92139114223776,-3.5181268707423063,0.3787449319496168
5.1835373831243,0.8365726116540775,-0.1669864091469302,-2.009325879421586,-6.3165154350094745,0.031648998246138094
-5.018536922017981,2.7780275112141695,4.077712764719367,3.4021996430518584,-1.3512185530955005,1.9746820407824413
-5.082399107680985,2.941415545524356,2.847145008194957,4.886082182753565,8.729072978216092,0.5116158463705365
-5.025532384581419,0.8823930038554726,4.0080472900230655,1.8567060042649584,3.349198439860107,1.3277151483645415
-4.646144080288591,0.06145257709605079,3.562556272023289,1.6398833443542893,-6.622697793749496,0.2952649984948337
1.0437758539939637,-3.0073234529476807,1.9742609516483758,1.426847136552023,1.115159409460025,-2.1330146331198536
-4.75356654504397,-3.6003990555721064,1.491555762475576,4.0396433823904765,4.571425730362678,-0.20402437471967216
10.097268994274467,2.4830861940541946,-2.537721223404462,-4.247081095875723,-11.031524427488577,2.376812739292631
0.4566941440052579,5.372338065404355,10.450767340035565,6.357851355808359,-9.165743057182926,2.615446016325645
5.866720968397434,2.420323166339368,-4.180721313484937,-2.3942959780078805,-7.58485067302764,3.3849090874066596
5.629892069137702,-3.1046020990042917,-3.8912309639898517,-6.273611171600998,-1.2638719448893763,0.6438850488150378
-3.837911550708803,-1.2971008962675814,0.9047959277521773,0.4700550360614084,2.552135015832791,0.3321102591372495
-2.140507727541337,1.1712230153385734,0.42139904326900357,4.167077024444021,-2.111847048870901,3.09586852097552
4.776208750571819,-0.7748257505943745,0.7192670652902722,-1.8617116575392112,-0.8450791582407364,-3.786845226322371
1.3551907184439869,-0.10652565090450272,1.4786161398826838,-0.9463558411548617,-8.42211998882553,2.3122633248732596
-0.09507939451084901,-2.760730963307263,-1.172848550046802,-2.9789286662074432,2.662113698376779,-2.6601206332388623
-1.202422191528557,-2.9175151576640195,-0.31161563220513333,-1.8164551962533184,6.448835232631764,-1.2473282339272314
0.3949535821834207,-0.32503636396916225,0.7464596640178277,-1.1716549625169201,-1.5471396508532482,0.7040477313307805
9.28800533739567,-1.5445203570713415,-1.5581799759627943,-3.637490813152835,-6.870509166459553,1.2161027274213025
-1.702244752675778,0.6519165630825576,2.390297396603996,5.077416115379597,-1.0707073658115356,2.754862836641289
0.12704812245565233,-2.856878761646877,1.4239074269478151,-2.1193830616624694,1.0007424873338011,3.118851030378144
-0.6865985145147588,0.6313047401635501,1.4542806799252435,3.9955457931640233,2.108152363376259,0.623885077182543
-1.2134488316593988,2.665844371620395,-0.17831904941143506,0.7857074150623785,-0.8957111017486853,0.34032022828447434
-3.420751329111104,1.063953111488896,1.538479689829607,-0.5183937894906174,-1.1819912100509977,-0.46267509489932546
-2.7084493069342206,-1.9937343409957151,2.238252807760463,-2.320789867320035,4.420649811651733,-2.712287394157743
10.40997318775014,0.15068639640681047,-0.9615984510730096,0.05050112732157164,-8.833609750718654,5.439304614768606
-3.713751610882291,-2.43671266244991,-0.5349999616360819,-2.778550196037683,1.419090988915288,1.5564957466685132
2.0446145954511143,1.0630035216832137,-0.9971332340101573,0.30487037373241854,-4.779470492645347,0.892704029930061
4.428657407006209,-0.7104961203225297,-2.0575780071128023,0.30647276778859744,-2.3812667284635007,-1.9912984290079319
-1.4903997401647309,-1.8802862194489904,-1.1105132010708336,-0.5301404079151841,1.583977127804606,-0.3064439977346898
-1.0653360820693447,0.6465620735567534,1.6702505442601914,1.2835755190866318,0.8907860609035662,2.8476748822244717
2.068445366863263,-0.5612725475355269,0.8013908307780943,-1.743812724044579,-0.14906119368194393,-1.326787358293007
5.810122447041782,-3.6522731609675603,-1.4301490484506414,-2.6189693656586654,1.3176754461832583,-3.8304851271259786
-1.2430249495880408,0.8342864283981246,1.1812496145105857,-1.8257080694014487,-0.5665931796795372,-1.4096392821350383
-2.5638333042761694,0.5479121867813603,2.144573940977203,3.091704049398045,1.7758171975895873,-0.7421386002790652
-0.6176766864102858,-1.2102349107259824,-1.239339021942392,0.4220861009460517,2.6651518464527397,-1.4076853108579856
5.718302690738405,-2.465506502760903,-1.4182865725508398,-1.7594889535463047,-2.6171958233016417,0.21132655695806468
-2.5511951235409613,-0.1908088008603626,2.305693621691148,0.13386489741419294,2.684894352826552,-0.33606973390108924
0.22357981528961213,-1.3183461737073965,-1.6708007892767578,2.6125965749970432,1.5771781046403301,-2.7739394570045897
1.554394894924464,0.02804779284850628,0.5831633758642667,1.251225617029243,-0.22431125200989754,2.002773508859404
-1.0983981544611332,1.053173053916435,0.06627297895285622,2.3488441220747034,-2.1926501206114253,3.2523021725275427
5.244659360188239,-0.3274728223047573,-1.7560387108951208,2.173945921370874,-1.236265778173499,-0.18266066289198868
-1.122917231787727,0.2416768191799702,0.8094934254850297,0.27570065748452427,2.163042170416923,-4.621900587923978
3.5173284469348696,-2.7600725739613,-2.066066293743785,-0.2182796650756048,-1.5598877419746109,0.23677438945990592
-5.187526103981494,1.9175985514064673,0.591928164824542,2.744694690289781,-1.8306277564399456,-0.08117407334405957
0.37577235591158153,-2.931410134964708,-1.6988319510387324,0.36007549687560814,0.11124328796804323,-1.3734559238649677
4.513205102239781,-3.4426622323150653,-1.3373173883052232,-3.168931450827371,-1.8877146001044662,0.5004627797802672
-0.5381998088424238,-1.5200536235730309,0.10466292307648284,1.2343237890811378,-0.309011494897007,-1.4422445942254365
-0.5750215433314652,-0.03502005362224114,-0.2932693000518838,3.545236055717536,-1.6687716183214123,1.2744537332000387
0.7396826719818343,-1.304901684033771,-2.092076353954107,1.4797716593306747,-0.6875235826683403,-2.5501967938359873
1.522431859644401,0.2932700901992469,1.201906298389714,0.7977965816645097,-0.10729473965033864,-0.1546539702647991
1.0255018280453776,-1.1133181934712182,-0.3411153934651614,0.7267290985385421,0.07222172357546053,-0.8931438233432711
3.56933052687348,-0.23060381261152685,0.7828729146141927,-0.9225940669391339,2.1481470823397615,-2.169313623740102
-0.7933520191869142,-0.6712861719900575,1.370803971784278,0.5009184986692227,-0.4082915143051173,-0.5763109007542726
0.5055493768804458,-0.6214006525460396,-0.49659237561135294,0.40733477300587484,-2.671404005249202,0.1645022179765866
-2.007449708251292,1.8702748422034707,1.8124083068284575,2.5903965023008744,1.148497792433954,-0.8690499242802863
-2.299014792152624,-0.5247797461380314,-0.23082226413092222,0.8017065468994262,0.3244408392063516,0.16032529366085269
0.6470461362708733,-1.1919165560540055,-0.9482513769477539,1.700574781506383,-0.44954747616022506,0.6518250546627542
-0.9143860879445498,0.27383347567833094,-1.0805466101008931,1.862660448456633,-0.5194565018795376,-0.6330201945507514
-0.9088890970552908,-1.2808879959047497,-0.12900418061764785,0.34132392921554466,-1.7053373139394674,1.2682514189736713
0.11411062554355933,0.011170491829884943,0.9648084759828515,0.5197360835131635,0.6861686924511523,-0.7341944478587457
-4.317117369185597,0.24266733538546692,-0.43222132687516335,1.0822102784337178,-0.25480861534767874,1.1634957991746184
2.1070535738068568,-2.3180814936561354,-0.13577204212068472,-0.30088382329118907,-1.5921864479534944,1.3035408034065166
-2.662848795855046,-0.2348436158052086,0.5661664038350176,0.6943231323012349,-0.18356038652002038,-1.518864885101166
0.2901016209049533,-1.7449120543538477,-0.7906255600437931,1.781610000600816,0.063157905552643,-1.2383817921681612
1.529950344217475,-0.21539649635767033,-0.7168909864623051,-0.1949415241517466,-0.9050054582215628,0.1604389374105505
-4.355911108694509,0.6941587471179007,0.6664634513463628,1.8572654012494203,0.41795382325052644,1.5833461820410863
-0.5586152773991598,-0.24981912846120924,1.5207167493285356,-1.2866617284832707,-1.6816919966078339,-0.45163659916943494
3.2618401779044826,-1.8586065470258222,-0.04352655579550013,0.4039036389492354,-0.037581155075467665,-0.8888710576493677
-0.1325731326613767,1.7106174819361413,1.8439835025832276,0.09680685579814688,-0.5875865938590676,0.94997811815444
1.2800166129310653,0.12070331854679966,0.7752861183790303,1.875274276665896,0.2876032876414183,0.5307063242810994
0.27695747236207724,0.22008254045603626,-1.0260184717665044,0.9871736795140933,0.2755604959911267,0.9246894333628863
-2.1900316748266064,-1.2765280886758816,-0.675100824281248,0.3711908138834483,-0.674360814570042,0.5765149908140672
2.2863051176194507,0.8169460654525306,1.7242469315864288,-1.0641110448231892,-0.8268664575210094,0.4926852885658463
0.6926472001020738,1.071583830899974,0.3882039563344236,1.2988567731902478,-0.5829803506348414,-0.7791726151503817
-0.8018227186839048,0.8952771596618634,-0.7272678833666788,0.8667989581011319,-1.2262568935895906,1.394315653387299
-4.462996155302531,1.8130650576113074,0.3776582995856923,0.4740144139039928,-1.4403193398282592,2.029536789131101
-0.6789028280827214,0.1534662478956763,0.3175507132815084,0.9250611038690923,-0.63112556093711,0.8957976558187317
2.992872160722307,-1.3761740077821758,0.06837525534970457,-0.6792527241220547,-0.5017522500213273,-1.1653320168080379
-1.4217388056192135,-0.8078985786628046,-0.43679813097333536,1.1490171843975938,-0.5996899268203641,1.0981820531336814
-0.9684073555658814,1.0481186505913034,-0.48114236865789395,0.7362158003189332,-1.4723754644414238,1.5565764417629342
0.22122691936841532,-1.1821503772352993,-0.2818684664146398,0.25111321015790217,-0.19543604000850606,-0.4349714735692733
-1.017912175287423,-0.335859957860865,-0.23019738703916376,-1.3783669165937475,-0.5291447734550546,0.23293956759939993
1.7400835848995977,-0.8252271631645709,0.6873192505476953,-0.26675929981655644,-0.0927541211268792,-0.9750915262061022
0.09560242328686533,0.7349992356162423,0.6343943672704111,0.6034473264749842,-1.000201187216745,0.49863955581167074
0.599800261846217,-3.6208304544639973,-0.9060999027997199,1.4796190843662744,0.5459759675660729,-2.3203664013176684
-1.9883471194712485,1.1388844834681948,0.8357428299529766,0.07709235925255609,0.005208566563664974,-0.4175235034675576
1.6359969218065902,-0.39128821639856626,1.0045068790995795,0.4386322014114461,-0.7787136354605242,0.9614248739292792
2.3878344001914327,0.17695007837748977,0.7896337574211354,-0.16494845376369993,-0.8637412590575844,1.8002412757187407
-0.9371840790200694,0.48353538050380074,-0.4194398862007134,0.5425862154753296,-1.142172877479509,1.0813968327620775
-1.2736814158233225,-0.11412016664555658,0.31846012147524816,0.3611240629356217,-0.6571124281839484,-0.06713147305932154
0.890012037666517,-0.77475032285197,-0.004070618237927759,0.848207019680926,-0.10502176578562766,-0.20754508577121777
1.177963329079859,-1.1568691005782448,0.9936480969387562,0.27825811403768874,-0.7641549043525405,0.023577525630658958
