Gx,Gy,Gz,Ax,Ay,Az
-15.185702000000001,10.829766999999997,-0.5763400000000004,4.083999999999999,-519.1379999999999,18.200000000000003
-0.6288683715714541,18.567042838517416,3.1212177777711814,1.675058000268477,-0.9072321681750671,2.151093516264368
-10.177171109249684,19.475776229924257,3.5787870428646578,1.1802962915130246,-1.3209604337350127,-0.8000871917198327
3.124880008089793,19.939135284270613,1.6873912891751852,3.6414495216972123,-1.8269401333408277,-0.21863276472176044
-3.3165340072947886,14.153633004872022,5.000575011691461,3.2273514704201345,-1.8270786409206448,-1.9809254158049152
33.57886305572919,159.72595303296282,-25.71685321502943,5.755207698928826,-4.27809931367662,-6.145163628059435
-0.8391155491284155,1.9092186149939616,-2.8525371254897234,-1.0551247950331875,-2.169494578379587,-0.761929215207348
15.312125137269256,10.922442353895217,1.0425715163630658,-0.002786195314117279,-3.972960333693387,-5.2846874417634755
2.858463695694186,18.746594371812172,9.135177708686665,5.035398682376433,1.1592952058127777,-2.3683002280711705
-1.0331219082689658,0.33175034374367396,-3.118966124853571,4.868076437935501,9.741917726913005,-12.563531830587992
25.70566471565135,44.589398394046036,15.036112015339224,5.271336618476263,72.26744364831893,-14.658564074333169
6.710028594093101,-11.348043979783274,2.628267936324044,0.11728638485369236,-13.042329206119538,-4.707612300290733
-0.2787450878676926,22.1336363265967,-3.677107546408018,0.1541109927459175,-6.112545205887905,1.8011602657354666
-0.5254054734332264,-12.880176130981006,6.392358916973606,1.7603697884247913,2.921821252363709,-1.8819173033417194
-0.6373282457464021,-14.91756741246601,1.3364226073833727,3.0915113985638967,-3.5686278284965756,1.570907539399185
1.514777093980289,-2.662982710475453,-11.218303237229005,3.0338029588677227,4.472364575764945,4.371317371566706
-8.113698679516173,10.746120530080926,26.158777448964997,-2.310040744523543,-0.04028345474793782,1.3320050498374187
3.4305921601180245,-5.259314186336635,2.2639006314678456,-4.504975026365889,-1.5743973023570752,3.0036945225554046
7.290310125796469,3.832584130960022,1.0677830381434152,0.20113207128762595,-6.074614730751941,5.2129250588941645
-0.7955241012242,-12.96582882385822,1.9171798489878868,1.6509548642029337,-14.208503642657371,3.6682048855725404
11.13086600041536,-19.3731950249774,0.3878158478977963,-4.387813334689092,-0.8914884654831844,5.472113780110535
-5.28878612277032,15.412791400177621,-3.741342492361622,1.9875222607992586,-14.383772517472718,1.2560222175299345
11.11271637255278,-20.26245133726089,2.5339456833922522,-2.6244644218696878,-3.4236772939285407,-5.5099006336550245
0.6101259496270659,-21.977255658552423,3.54602391142067,-7.059375679241004,-1.158161566510674,5.005703541528829
-5.9782588302757995,23.82032594198178,4.49432261615817,-7.6615450868506585,-1.9902105405253718,-4.195691488185709
-11.077453552204567,0.5667369026712233,-5.697574229508703,0.915930470065629,2.1394714815694926,1.387785320386162
15.123028004933762,-29.779044337009083,-7.552308136589296,-12.625980821518954,-4.767437725101935,-5.446815703766708
1.3126176061571586,8.8396376575574,4.388483951508853,9.872489055462491,-7.642221514628458,-7.788883890879706
-6.014958480196191,21.76010675386569,-1.6002652516903642,5.245531311440119,-2.125959208275188,-5.2506507615877505
2.436371323359085,7.689506935895945,-9.19280041438882,-3.8901790336030366,-0.770347383837718,-6.392721112132746
-3.574335230698917,9.58979184826288,1.4346261678058014,2.866176687456051,2.890465742759359,-0.3526909765002901
2.5650048128296907,-17.076134621484535,3.3722552524396914,2.7870548969226596,-13.303274269801522,-8.686008489672988
-5.517444194534082,-14.523374346733863,4.9802295726203045,2.1156569462862107,0.535540070508731,5.280154088280598
-5.979419547081253,-13.856910485679823,-2.6753678276992874,-1.9140125132665022,7.305948986152977,-4.9965769347577735
-6.676602273751971,-27.508462037624042,-7.816575255063119,1.7493910791358764,2.266314818526786,-0.7746022708948845
-3.6705162587389464,-7.866831580779017,3.9402042989372057,-3.292584545569492,-1.1468451959924497,0.9415036420987637
-0.5172763636563906,-19.536072508674565,13.505549197516029,4.437108285255487,-1.6870838017286873,4.148861405484688
-2.6273953671780945,-0.5413613387250245,5.5127011848996705,-5.870649518384058,4.612502934994005,8.108133767716126
-4.052603201826437,-15.846392051941523,-0.6818807050093056,-13.679576453528131,-2.1306427617294466,3.9444919177776785
-1.9721284228389053,-3.873458645506421,0.11510155665115812,3.663898251109055,-10.942892092714269,6.63491900238826
-1.6382723477472751,-3.512774066501747,-3.4781214702432095,-0.6439867302526552,-0.9434249058316464,-0.9521060578176941
-5.756103082563273,12.78538680819462,-6.201465254050987,1.6733785737532427,9.402656948197885,5.746949042006556
-2.575815381366821,12.96670676991036,-6.128213090478334,8.444446005658445,8.239851006040457,-2.089130808431567
6.407790383815254,8.962334212740707,4.337176978485378,5.390258894511364,-12.461424398445278,5.779861682081862
9.378575579896479,4.82391107181867,10.49844128896368,7.4284446624831535,-4.736523807296439,2.554791688583989
0.4482329574030871,-3.697898961138157,0.7329211600135933,-6.516319619169698,5.849739181344602,-2.696784619978687
-11.373457222030142,23.385005962332652,-21.016178250207386,6.275898346215243,12.362759641023844,1.4719373641615805
-1.0613322902889992,-4.286632843355406,-7.916299119868321,-0.1506974757385538,5.029360323759941,-7.480194583542863
9.091131153797757,-1.9272242188718232,6.76247297122337,9.697110630083648,-1.3106683206937677,-5.204876202221978
2.3816026166707163,-3.081294667404263,-0.5783496123766565,2.3483763257950137,12.54927366771528,-3.68042435219306
-3.0378224178790294,-3.9743868091125765,6.042115885031983,-3.932199342927062,-5.540145847053063,6.077485898646249
20.375530004389127,-9.361684384013449,1.083767421861248,2.008059533674495,-1.7080080506733197,-0.8462749682190225
-4.8847003233310815,-3.937609341745678,1.2847516827440861,-6.669461678967481,0.6695661678292566,4.085712866469717
-6.939474587366365,-9.092194234680314,2.02562215514587,-6.15368685797407,5.694963081514912,-6.685365395077497
-7.195486766489436,-3.0522332993159393,-2.43082104214589,-4.634681642705989,1.631149239440927,-0.8644299411446575
3.3516790688200446,-0.9529529937066443,-0.6215472790380931,8.204607659405195,-6.363299742871591,0.9475455005972037
-2.053067121890342,-11.015152061753724,5.281709693334756,2.7665559486751707,-1.0554120318257474,0.5536267303173963
-7.479868471117136,5.984426081593469,0.0642691169579016,1.017845344390837,-7.232092481563942,6.018569904573248
-18.16762243743116,9.67672406729784,-1.0029375997576313,-5.59172124705894,0.5592756269472083,2.8226382473782734
-4.219029568910509,6.134666318377002,-1.59794156827768,-0.34918696944568894,0.5849568064635553,3.0850599187943937
1.855773155119345,-4.351780276862363,-0.34555522551102114,0.42183675866549974,0.014370454095580798,-8.732019551203297
-18.601874788929884,5.734521713177162,-3.9749082237754414,3.8525109475057513,0.3095111929047895,2.0607980913070785
11.535687627407787,-3.1353573705148516,5.911394206253009,-0.6700811211782688,-5.183865640812331,-2.046651915359209
12.403656791093784,0.7066979899184759,-1.192938922738866,0.9871453959629397,0.5570227881361633,7.215980159089032
1.5671466677703,-1.1605053748902117,1.8397647704277054,-1.1633767670841364,-1.0967005768508877,-0.7270336213336293
-4.812810247733561,2.998646487965232,-1.5321957549778307,-7.016509830577745,5.081756854493618,0.911783860600492
2.995525515383717,3.486984613051983,-1.723420957391948,-2.0177588019938772,-0.6111180109354089,1.4481414406854713
9.651915734315963,-11.701965975068838,0.004222053063223735,2.221617728351041,2.5119405847512724,-2.776392205266127
10.894216841054352,-9.417120958834316,1.2267576790194186,3.3638925209689416,-1.4084109285145345,-2.16245006615243
-0.2364819230134464,-2.1691361788713133,-1.0429681300539202,2.968696843983574,0.24517987827641874,0.2682617987062449
2.0226578773010875,-0.11230202167154923,-1.451997903514374,-1.3267771792413354,0.8123064830236676,5.019903972134622
4.049703102238958,-4.57350769756634,0.8260141131567766,0.015034183836763415,0.13433142560589695,-1.7010018203004194
-7.872445642544063,1.6330424548009734,-3.0228227909225054,-0.15336684962534497,3.57653513110552,-0.04019461611221281
-4.412883660345675,-0.46434937574784607,-1.4528447213383782,2.4173911592698385,2.3015555797226117,-2.354118252798875
5.111050447106711,-4.093111774541979,-0.6749056993139384,0.9434552195085307,-1.774267693475848,-0.5648419453905127
7.992407749993681,-5.801120129045406,1.9625069436882074,2.5951263403763143,-5.738315121463666,-1.5388051155455886
-3.9035315928082905,-0.3547333090448872,-0.018356869556940603,-1.893324885371534,-0.04421184212060858,0.03534958194658355
-2.1449063682476996,3.632105267494995,-2.9865111544128613,-2.538561378212866,-2.0479005801658707,2.0565523335723865
-9.800803997516597,3.230345955685638,-2.3654143592979064,-1.7941650955930581,0.3639981387529357,1.4599386339203693
-4.984006763010476,0.5190112521602697,1.5211024489573848,-1.5567433167849838,0.10938266055436885,0.08219662116604609
-0.6031747051537537,-1.1581356107752903,-0.5628415398574924,1.149684463373781,-0.3474515157390432,-1.4062580487676835
-0.538941978550969,2.527938252899603,-1.1480143730790555,-0.044554311677715064,-1.9412189024552493,1.5411870237310517
5.268449094765146,-2.4248676806222753,-0.09108173676141118,0.4727893779001964,-1.617696527815122,1.1907370450974808
-0.688544670108324,-1.2444998928223636,-1.4086509336920363,0.7958108412711844,-0.5820215218625646,1.3808722547402053
-3.840035978917588,1.2598899315565515,0.6092198426891255,-1.8051632549863252,1.2849714776926764,1.3828927281536911
-5.625410211365573,0.2833992616736166,-1.926197890570077,-1.0960539073258688,3.9130750931586666,0.6297911573377473
1.907450219807934,-1.4491810617740757,-2.2347683790353905,2.525348863070807,0.530331651856341,0.8646738981514741
4.653773258240307,-6.013774728272201,2.2458113102098096,0.756884401324074,0.9472052761285694,-2.880839913624947
0.13293398471957046,-3.5239309641946903,0.329168235827658,0.6370112932289829,0.8205690881351885,0.4071904009655435
2.564585439955826,-0.9465146429800807,0.48005104952381517,0.6967794606459818,-1.6466188329727043,-0.0495303109686096
-5.311551366797092,2.16342294864494,-0.7189182427235608,-0.6651515064353004,1.7834502855758836,2.156601986729963
-4.08591888569888,0.15772872385396564,-1.5362226824071636,0.34584105052379877,1.1469295794820322,0.5118783444158749
-6.632633590195425,1.0241656233435892,0.8951903396672605,-0.19020833663199666,1.1868831046976214,-0.1660535444923349
2.395947337106904,-1.5057255385993331,2.0227945675103767,0.10725822623013492,-1.764432028643956,0.7431603556266635
0.9044736283597721,-1.3805358201088351,0.7562922982851918,1.4232166299511277,0.39593710744047583,-0.7246007046491251
2.3012514300194122,-0.7064112406804819,-0.16926739323839812,0.13571033484777772,-1.8354252649177023,-0.09738929312759359
-0.23736607462335568,-0.6852704027212431,0.40978242521047137,0.07325638621891967,-1.1827391255617992,0.39936201839067653
-3.2983174496471,1.4915295551318914,0.5572240643351881,-1.6917111690333178,-0.02793451339231856,1.2869236585581845
2.525156831500447,-4.3326349055118225,-0.5769120248621922,0.001097349788075186,0.374586339283441,-0.9268862716199828
-0.37570926704410784,-2.430738843373048,-1.2638194223258488,-0.6237400921085758,-0.2374239982400962,0.312688523284849
3.890344975376994,-3.5634219261896583,-0.6814286075231658,1.740966415943109,-1.3994490357700546,-0.05624366624714172
3.5016622660221506,-1.3503650935351539,1.2103404701215952,-1.2756542766895704,-0.6306863758838291,-0.9132378313487819
0.9639473080904004,-2.8047454074314326,-1.1885619902824516,-0.7052240387653672,0.21216518598076606,-0.20202006125078809
-1.47545774423947,0.08543509588445675,-1.6393703693462678,-0.7431840936128632,-0.5972842610295128,0.28517305483739386
0.5048556058176925,0.43610529932095865,-0.7296947041570949,-0.16170049886028992,-1.28992797028946,1.1666757512821784
-2.849939539659978,-1.3550061739356623,0.8461237826170493,-0.6529484314386087,1.2955398315207645,0.6256518382657468
-1.0752588140286872,-1.3802027619527504,-1.9726712803379864,1.0355379255973516,1.821475403414817,0.12903374804607176
1.5389131959219338,-1.4112662937153284,-1.0557380211596223,0.7026566674828905,-0.5701554989016844,0.17305026957167313
-3.2613680284876576,1.4031161034944766,-0.008114334374146992,-0.5633878071515428,0.9164522819056574,0.8071025521195099
1.4919275553556366,1.7487272929715998,0.1601998435227347,1.1324087688668136,1.2238049768134318,0.0020968598029506014
-3.377735123444044,-0.6422546657869868,0.040278763653895266,-1.0730990798434368,-0.661764442241934,0.13707771368343113
-1.8054660743559987,-1.5601858094985932,-1.8816357598307498,0.9440291323168157,-0.12927597402256674,0.9613248591801924
-2.2013798867162047,-0.4386307592692331,0.5749673683313627,1.246042820156684,1.2365303559784815,0.9214523009183357
0.1439497811654611,-1.124727551097967,-0.929114845129762,0.5051405948152224,1.0131267259743741,-0.9713687938808805
-2.0249379136975687,-2.1730333851357706,-0.49522352786169244,-0.5112945614129571,-0.768820903577692,-0.6809397065892097
2.1574091537533535,-0.44177696354455076,-0.4695769206911211,0.27553677503861845,-1.4801573431239892,0.1193208650763865
0.28162879912119687,-0.5633248447178483,0.2277293209322322,0.7216979244146234,-0.5668383484753028,0.6362075925556175
-1.146962566236735,-1.096778554985721,0.351894214239175,-0.810790170020691,-0.9821149111696323,0.7950842640705973
2.2510829990095385,-4.668036486159622,-0.6941231476354962,0.6273281718088125,-1.8280769795116072,0.19778426009636885
-0.3398826300677495,-3.200983518053453,0.1294346381592183,-0.5203930603432171,-1.5633667000747105,0.3328647314978612
3.145132739784453,-0.22952341659183984,-0.563865893954487,0.9237424691339263,1.496243323242656,0.11718471658637258
2.240700967253318,0.18887106036179668,1.4368878620579377,-0.3661572841507921,-1.133277482648683,-0.7511601205669066
-0.5051373544861877,-0.5323540762306201,-0.5596441638005465,-1.1772974555390707,-0.8040918022353777,0.34001966405317385
-1.2939824611022184,0.10347318050473397,-0.35569623359209857,0.20205459292905958,0.4316273803894621,1.1163190479440992
2.511086969200594,-0.040546750658180475,-0.12321431172222475,0.6464389965854422,0.17805966331350048,0.3513562860810587
-3.0380614937534713,-1.393239779639666,-0.2613928481702744,-0.5422569209264597,1.0928552722350366,-0.30274855177881377
-1.3477882682082059,-2.0511141374083994,-0.8069138868413179,-0.0655070235615699,0.13166551534983073,-0.2647746669265386
2.5060192812942415,0.43295022017710405,-1.3899459352554198,0.7486436675442927,1.2705508791268305,0.03610545156012013
