Gx,Gy,Gz,Ax,Ay,Az
2.594499999999999,4.931751999999997,4.226504999999994,7.6160000000000005,397.842,60.251999999999995
3.6393145900280754,12.761420826195641,1.817793425422504,1.6142340782202993,2.13057242829531,0.4854251491517043
3.765543611646019,14.386444403197755,3.2578918121128018,1.4357507668787808,1.6156522193071754,1.9631265078778768
8.238820326654565,24.610269855538,4.986151334185509,2.3651175729483978,1.1689203821515544,3.1702582138792628
29.47001707577396,85.67628993504574,71.13106415846654,8.856332222048822,2.9219468019017514,3.068791748131752
5.406534448985988,19.51141299253329,15.12086522739214,2.365411909192709,4.3809375107589945,1.7202400760662437
9.194058677936237,23.34375961357444,2.3614637409515638,4.104788990069507,5.051537711098296,5.09426992950286
6.255240739382362,7.313847749989711,9.413133302453227,3.1809281272160534,7.577199182852227,6.092598716456681
28.839912325378744,15.086126810388446,9.80627281904849,6.122343768573265,73.26833012708484,47.631080252827246
5.862726160883917,7.203466377675542,4.853266133499351,1.4044858794619601,15.27793696199828,10.311675108992818
6.737099570490196,5.878198467933016,13.190477306277648,2.1485262494597452,3.418615197448971,5.593769809644864
5.490270350262444,4.552095494933109,20.833108868132754,1.9252304672320404,2.561223538922571,4.673403312650551
17.210967740569867,22.08690728611304,95.09889113365669,14.919863169932025,6.573164007886712,2.218340138405829
12.73489715778768,30.59017624448695,35.120270577014644,11.490006656175119,3.8107158888068184,2.8246510197843278
5.130124350316358,7.1895246971367905,19.604065460239834,5.664712334839778,2.1451923124210492,3.633102604356738
6.824732400659441,4.331624654628833,8.443316463507518,1.8746473764164155,0.4142661687552538,6.237232325971379
19.11140909237391,1.143422424038106,8.83248511159513,4.938245100216736,6.945524962493873,25.02992753144438
13.895116910112764,6.037391117024968,11.857035664379998,2.54428022915793,8.289031047567498,11.98306974859627
1.2140265576350366,10.567356973583136,9.216013942092026,5.86711783038019,3.474157866310651,4.299948803828446
6.905053892444974,21.592169232406217,9.629278524319565,7.07940821243496,3.672187821444187,1.1212101904129375
18.13614788555798,40.51535044584621,17.317596763137452,26.74134508479967,11.035977386084646,2.0415358154004437
4.389251157549384,28.145508624344796,13.292343003414537,18.484474831820158,4.615191214986814,5.624815290740282
5.780887968626739,2.5412241689248547,4.604407674417668,6.0174395767444695,7.004493147583074,4.734533269885052
3.4159194748534403,5.4558922699878725,0.8343021762446865,5.984766334795113,5.366558328180425,4.306611621639555
22.67511612302271,6.461466862522836,0.9155831717772763,4.323163421607071,23.030854156646793,13.220953052798407
17.683731544388607,2.3182241206194703,6.414395932676112,3.418972808289211,15.347190944577726,14.613289622616419
10.75673431828099,9.08693806800658,4.171768154407056,4.949526805648338,6.668287108922937,4.125467047336916
12.395001153268801,2.7132001803549155,4.079920275597221,1.3844648075693307,6.653995848793791,2.2559309119460753
14.663926015741435,9.276849297885388,2.8187421013208622,5.130081442398815,9.885476936082545,2.171894251203268
12.139841096900131,5.839436283391244,3.9723404292785425,2.5548965681875218,4.959179122328349,5.548247204451489
11.123223905847087,3.0754433308655478,3.333980000578582,6.135461519291378,9.118276431644496,3.3827975530473813
9.981927485464922,3.2251982532852166,2.036829945339288,5.36246089180292,2.3737000305449834,1.8649403038690615
23.027857034633428,3.3937797170641617,1.423796842761164,4.4221287689165605,17.791023916094893,6.260095001296449
24.670482435975764,5.67539816886964,3.340817193631706,4.626758226011766,21.542195740161706,12.510098863262177
1.4901565752637365,0.9247694492625868,2.6493760015766576,1.962400237659922,5.032260325644969,2.149707796594911
2.3966060964643767,2.376108279281988,2.869886426451641,2.4047044120045333,3.325182354958446,2.6386033275886023
7.2412293831478,2.153445302862867,0.993701018585081,1.5774782164585677,5.649242329560799,0.5444325577667141
18.599021723648107,3.691328186501657,5.107108186052845,3.6275726253869935,4.153426317188013,5.616003540750639
11.574076427113676,0.2094007582491695,2.038794189227072,2.949093868406387,6.471427143160161,1.504627826736782
7.264869714777832,0.6352559798173605,3.6173038925273397,0.7090877187305069,3.5852748800776855,0.8809153770037734
15.00206120992375,2.0666133060496996,2.7528657952810427,2.0459897255198296,7.95186034352861,2.5495297848970773
32.071373733063815,2.6794370374838534,4.085975224365572,0.9746922585093624,15.752624277012774,8.512235316751926
7.119886507190039,2.3084061886730316,1.9418110274998732,1.725141038538775,7.290436340492552,0.36426581098472627
5.282640663762504,2.2189121339581517,0.538223042383978,2.236443000981798,1.600164298827944,2.7851198990120047
7.237200641560103,2.6683596435569203,1.4541588231522329,2.3074463520792747,3.129684127499775,1.0617924301595536
11.764556818459901,5.806719175136594,3.027899067045524,1.3434553782823428,3.239572960595587,3.3070274409290925
6.775775545504361,1.6123611425496287,1.847272187841363,2.0544471237308954,3.5195263608221934,1.2225374876472603
1.288998983381742,2.214493476334238,0.04116391127326488,0.9486072084867627,2.1040922683670638,1.5374246957933966
7.434355656899944,1.3769403860924463,0.6172314209647115,1.602317147626688,2.5277168632116545,1.1643716458009723
21.127856336273275,2.935167468605769,2.2147832310459026,1.2131158587507533,15.03747526662454,2.2422110590949855
6.044294175884695,0.983643028065381,0.2478269189692837,1.5638524694880827,2.1761263881609416,0.9282486645397033
2.7848539510756996,1.5276749950330297,1.2672558021076274,1.3196928105970616,1.5334046224004232,1.6806410653949075
8.711542833599978,0.896427377595536,1.3113622365957807,0.5080691062232962,2.4094945410834825,1.0092052412176937
9.606408206221078,3.73233928695936,2.7794646673149814,2.9225852530548466,3.9078009588317304,2.7316987178382406
3.5101584220741997,2.2523051179756677,2.3191927972130033,2.269558256112425,3.1571423314182607,1.024531052402586
6.5689979660856155,1.3293235318650194,0.9864359768598773,0.9563534698759594,3.2908303055401484,1.3037124532226514
5.404061187318915,0.8180191087323863,0.6702074987015434,1.0620236544106822,1.1577419982628128,1.912990975799291
12.630626642059529,2.1653631946978034,1.0781994972180589,0.7450071091446724,6.271854361513009,1.645581447321518
6.713220239309312,0.9784280849505538,1.914420697597171,0.7294436601064985,0.9280247997355123,0.8897780519253808
3.212545596329009,0.29464726054934137,1.1712827103162817,1.4401162543460684,1.1243642936704414,0.8446309738507323
5.927163521345275,0.9792061441132415,3.0175838855018906,0.7284082560764438,1.6993055972886812,0.6318594530302617
9.471085106835382,1.3478453936421682,3.248207183987661,4.07704917463044,2.8832200834406594,2.114312961443081
1.5146924380817053,1.3100292820767026,2.4752299519278216,1.9553982560500636,0.9439089751502746,1.2962554700189146
5.3619007064245805,0.76067495438154,0.8147990181109042,0.41784466828810396,4.811405460943748,1.178168302606368
7.99703392645076,1.5481932078159317,1.8016761186161032,1.0839619400607945,3.8374553296396883,1.594839135624485
8.098821859293794,2.582086004772204,2.060778348385598,1.1268110632841402,6.8769427772925065,2.7005606103386497
6.917387793667294,1.2358740755944604,1.958689025337346,0.9435628982651585,2.814854335628465,1.0778855976461281
2.540329208159767,0.3962237544572386,0.590233617249528,1.7899336440879259,1.6288728433212072,1.2547404043695922
2.7019301611225908,0.429130473743406,2.359312081550473,0.9450661668528221,0.6850122300133297,0.8960072206327411
6.174331116983661,1.949209236629517,2.1795791723990123,3.163738712418963,1.7210022109771737,2.924253441768012
1.692471188888225,1.6104246628676995,2.1417730581501235,2.584068990160565,1.7673741842933381,2.2870369914661945
3.3830352790041536,1.530592136369826,0.9818578033540668,0.6222154496631008,3.7903551676933236,1.2233586899355593
6.155501777169764,1.5162180593101184,1.7932941984068222,0.5300802038080232,2.1717595177726294,1.6285539019938404
4.238978151924358,3.5806505326724594,0.39787559721566207,1.1411349863771068,4.954045212726054,2.6973532253209362
2.9960552097454793,1.5565160566547578,1.3919603360071506,1.0900042772747838,3.7550432440577306,2.5518647064050377
1.3949981407783223,1.084137956311599,0.31865282324852773,1.2443279685563349,1.8172829374078838,1.6863456989495216
4.020474591501732,1.2891588962924434,1.107234598934757,0.4388833338015528,1.2559741502012616,0.2573240586706737
4.900266434453205,1.3079551067130204,1.1340870241460472,1.8083899906309404,1.6996251109690677,2.198353529636092
3.292855140811983,0.7496962628872704,0.4132621797295047,2.3531392875063473,1.328056181528094,2.800067614051694
1.9398291615533687,0.812740004439805,1.0634700599835931,0.9137158257285418,2.3338697330023934,2.085403049520351
6.522578225665589,2.2060936731240193,1.8101111577807167,0.7459251587716484,1.858781097460382,1.6582380222186146
3.7399737941273257,1.9278404104055349,0.7555813497125614,0.7079122586598303,2.398667477214435,2.0965876162501336
1.6949175789684772,1.1669355557336203,1.0422504680218956,1.6005089506083945,3.1311790376828523,2.431016700165284
2.9893059554743013,0.8400158361990466,0.4087537869141598,1.153300675484773,0.5050157813580786,2.15489263622772
4.020283226297951,1.6419215300268633,0.8764496546220288,0.3965637625979465,1.8576968320959164,0.6265265428650476
4.719732447934388,0.6047079951087269,1.2785273483920614,1.0288599613990084,2.4744705136804184,1.2356409276240834
4.255856650954532,1.110661170944967,1.0482870159332291,2.2399248372572336,1.170356864540466,3.042116974264755
2.2070468558511864,1.0808462234057483,0.41267453176672086,0.8977589044310581,1.1238218577250692,0.8663550368107348
6.368197362764729,0.7255633334733196,0.6102080736427299,0.6892566067803566,2.116381559519828,1.6150297152211586
3.283158277392952,1.994493698324167,0.3338563747950174,1.050046194934202,1.6915025244781094,0.7965889402125412
2.084518462077935,0.3621600161224393,0.6408309218791892,0.9056436791864835,1.5390029734654254,2.4124004810804025
4.737996913353421,0.47621318239704385,0.49652966276018196,0.5861162088365468,0.6003375175827463,2.169049053228037
2.8136039880948296,0.6014426948142415,0.5715298083306746,0.6111206483138091,1.082688054865002,1.8438480468048135
3.564464793918557,0.4311872033517857,1.1455095017041512,0.0803578076730558,1.63025875310639,0.9797324379213154
4.363151976204037,0.3837322953229177,1.2343111278054617,1.2153422314495086,2.1124952043328307,2.6504420308520342
2.620411516149854,0.7039509400126132,0.6187993050127663,0.7386574839492782,0.6147371470994746,0.44174012201036517
4.912161317560506,1.3493538393519235,1.169360297239801,0.4995267428376588,1.6979866721062316,2.0774813302387716
3.298374203229263,0.9344350097082662,0.3085368455727428,0.465924796048183,2.0624345175456313,0.6410286875930097
1.9839947057803418,0.7393654025735176,0.6702136911638932,0.5248578690168214,2.3366305032003116,2.4044817098816096
3.728840266460676,0.4058190390128779,0.31498667041318545,0.3116336442272297,1.2248302557414015,1.954213193330783
0.0,0.0,0.0,0.0,0.0,0.0
0.0,0.0,0.0,0.0,0.0,0.0
0.0,0.0,0.0,0.0,0.0,0.0
0.0,0.0,0.0,0.0,0.0,0.0
0.0,0.0,0.0,0.0,0.0,0.0
0.0,0.0,0.0,0.0,0.0,0.0
0.0,0.0,0.0,0.0,0.0,0.0
0.0,0.0,0.0,0.0,0.0,0.0
0.0,0.0,0.0,0.0,0.0,0.0
0.0,0.0,0.0,0.0,0.0,0.0
0.0,0.0,0.0,0.0,0.0,0.0
0.0,0.0,0.0,0.0,0.0,0.0
0.0,0.0,0.0,0.0,0.0,0.0
0.0,0.0,0.0,0.0,0.0,0.0
0.0,0.0,0.0,0.0,0.0,0.0
0.0,0.0,0.0,0.0,0.0,0.0
0.0,0.0,0.0,0.0,0.0,0.0
0.0,0.0,0.0,0.0,0.0,0.0
0.0,0.0,0.0,0.0,0.0,0.0
0.0,0.0,0.0,0.0,0.0,0.0
