Gx,Gy,Gz,Ax,Ay,Az
-11.519751,8.240246000000003,-1.3522140000000005,39.976,-458.544,-22.864000000000004
-8.395184999958415,9.0319398838456,0.4373226441088063,1.9310327148869395,0.9060679636083838,-2.473962559424737
-2.9689203735854846,9.031524420179146,-1.2172628789622704,1.6591830692856488,1.3674345515934023,-5.044071842043076
-1.6216607596085182,4.90293539157032,3.7987690311316493,1.210824773672778,1.8274911543170091,-1.9899028054571926
2.679978770868332,52.17824681478291,7.431334923805496,8.662855600630506,1.3808963366532208,-1.0283500172473143
5.141182626841346,4.880996639591339,8.70529827997105,-1.8281292611850475,1.6406152155536513,0.1592554727008163
-5.659198225875068,2.00020125925413,3.8365677052183376,-0.8877020638287254,4.166985008150869,-0.185049091437835
-0.7746185951583036,6.797936329634398,6.039640126800883,-2.1170308572382543,9.052406603751018,-4.815049860420833
-22.105937514417,10.941932149777543,3.218926108237704,0.4640543010390067,28.179656819941652,-33.693457079938305
3.6112375051295733,-2.329951663597566,4.435457289990126,0.555825486757382,4.781687095755441,10.167990977319882
2.179048864029494,-1.6682248516846279,3.827022972523312,-2.377409942862677,1.280372369610091,4.282385162943209
1.3540395764152227,8.606588367826037,8.407689715029184,0.007811877044592075,1.3631032648853392,2.917248103003327
-4.861546730745498,-2.4771174397710434,34.43407728281784,-8.894948079098082,-7.255806643685983,6.219365292236182
4.04935881848474,6.0618343914115975,-15.661187683051665,6.046944945653461,2.7435845573984423,2.252422354109681
3.1430068791665473,-2.659739625298969,-1.2542952427205667,2.8640475943728823,-2.1457046313057697,5.448914078205022
0.5126661091166547,-0.08710310254145315,1.9776522699018848,2.7061589417820064,-0.5965907540758102,1.7385764343650107
-0.7076270637653257,-8.460525705253035,1.2850893432924413,2.8815187378944396,3.724031340006664,0.49189307821377665
3.313253367670261,0.6079027519248594,-5.624124969759517,0.22211521985982322,-0.5953591085395569,1.5592229438998593
4.7013957642472874,-1.6923562387601665,-4.659963100002624,-1.9551714063624728,-1.8321380572238952,-1.2517592129292625
-0.918575289174254,-9.178752954313751,-2.2029634058750975,-0.07843775348317483,0.49365130058124396,-2.5911518243243514
-3.7008227839657977,-9.976778429004037,-5.54185521514726,9.741546721777024,5.645986660900611,-1.8897729394381582
-2.514922466984437,-2.0044111199001517,0.4152066623848333,-7.252796631544964,-6.497399826750955,-4.021688055501644
-2.0255716493173272,-2.325451372742947,-1.0459909964450926,-2.0941893118990746,1.9501834467121355,-2.1261734235432628
-2.4445753162724184,1.195534760695989,-0.10181147611126001,-2.256967931318169,-5.824369479239909,2.6478171673214685
2.522742772015519,8.646179389865523,-2.6305541454954215,-2.7665611211853207,-3.7905232056204508,11.540973549750984
0.48576788787748554,2.4830173366894037,4.549566470136936,5.889183140721817,-3.6518866984141636,-8.283410453187567
1.2343145661742763,7.505453037534752,2.4705298543527947,2.042880926190077,-0.8486184295726635,2.5728685213234392
0.312949346661521,12.152922625443239,-2.3642306872632837,-0.5288202260027488,0.42324428295169003,0.2144479656609419
3.9833443541545948,9.336865955000269,-6.021553628067602,-4.6535881041036555,0.5872840429860681,-1.8466081016119125
-3.2983176915721,-4.457339184938137,0.9017940433147889,-2.85402189147699,5.977058607628116,-1.3856200280587796
-0.4304314799062128,-0.9624763533633504,-6.905099188873467,0.07351836410929508,3.656259625117743,-1.6336974666747408
0.051362930426935405,2.068326241809305,-0.38569618539342265,1.6339372068276068,-0.3054138339559964,-1.3421224469043982
0.4469540995343524,2.7900772594702756,-1.2116606583006562,3.5146008297146114,-2.0315110738602993,-1.076978910293554
1.4102219042222373,-9.003228478912156,-1.438023041238367,-9.664477099047478,5.617675210149829,4.746581969521525
-0.22842427749521388,-4.62099750457581,0.9631386439735508,-2.0268675932236015,-1.9689899691093307,0.21458551699909956
-0.43255041987256004,-2.159207827921955,9.561542622066824,7.36730486189605,-2.86208959443659,3.84105218544818
-1.515346941698459,4.859578207521132,6.817871377256234,7.475402691149007,-6.236491773140549,5.17254383962773
-0.6784921736571752,8.478666807248816,-12.40397916144704,0.5876873333852879,-1.8511630158966321,-0.6093606782154768
3.504435648289454,2.4914628364840476,1.807031277579476,-0.3159212129029616,-0.4977103264469702,1.027486107751707
-0.7486928746446222,0.9230196588519148,0.8142920438043717,-2.415259471762954,7.305355891024506,-4.1610063227240826
-0.001979953542501245,3.718386726255284,-5.35453235045655,-2.1570544904348523,4.091374182133516,-2.068215162882533
6.273255099408932,1.0010458577391284,2.078695235305225,4.496655973012423,-13.734666060847696,7.137515707789726
3.561900293955186,-2.3685598776156547,0.565902730633384,-2.5392923238059364,2.4792731364736724,-4.731152805319954
-0.031565509143097414,-7.272429051500069,-2.4246654474397373,-3.4430779401005536,3.7707459794175398,-1.4485458586104842
3.774641103641015,-6.777300268612594,-0.08571203327356791,-3.083893506457822,4.112943068025857,-2.987825197511185
1.6988535233099264,10.280725597428964,2.2982875969248178,6.52795364818645,-2.091404432608799,2.7363461873222015
-1.5548790779029347,-5.472038164557954,2.3064531891635154,-3.3746743454633665,3.513860706054868,-2.9933056327182257
-3.023069492304471,4.622030175989016,2.5523827247236364,1.1684062775220605,-4.617017660122478,2.184449133766391
0.13328318340273304,-0.35151057268090513,2.7187860758718174,-0.024677902849284616,2.1582330072801224,-1.1865177072753375
4.414912008771454,-2.8868550748536874,-3.967585108594482,0.334686357776389,4.960193590765208,-2.530465800430836
-5.615790818683401,3.0745800444252596,-1.711850972802422,0.4383397736136606,3.865182947725808,0.6463393602061756
-2.5089450709405985,3.5779679077832798,-0.2735763732600449,-1.2003356342048535,1.5610542332674786,-1.504412464875871
-2.430507475292301,0.08687043869454425,0.5803003930351842,-0.5182288780373523,0.9426556433127946,-0.6208133130902755
-1.402869670171266,-3.6246462728055597,3.4788505052289325,1.5262501804039923,-3.8584050382740207,3.5035960401245596
0.017990508329814858,0.7841248697690275,-0.35944924723409744,-1.9680998930963352,-0.6597872644104621,-0.4468115886325521
2.184174631071209,0.7873078735479511,0.2772611815228663,-0.056013051654781904,0.2912141645308093,1.9089773376633823
0.9863480524048747,-0.9586000579468981,-0.7885865862373762,0.14271782079359108,1.5933494218736701,0.2506000717874972
-2.0528602485232224,2.6868168462048323,-2.330161735217554,0.9859555547689717,0.2756982076227752,0.5476031243696889
-0.22802462236420262,-0.056414341328414164,0.8999891427818995,-1.535359900042722,-5.4183615018827425,-0.4602439825666841
0.27124055918213874,-1.0709489371786116,1.1109141519861636,0.45122422880263935,-1.7909150904056916,-0.8660231839347496
0.7015716351736723,1.0538737420951083,0.2718512641569355,-0.028442733928956798,-1.4599979408910164,2.197405912694743
4.39045271975806,0.6495771148149776,-0.40623697996987695,0.0011324367543372738,-0.5575766814876724,1.5805155683335583
-2.3428842294462493,0.7360662644580798,-1.584317199808408,0.6481775486531469,1.3543568076791235,-1.9292165755282944
-1.2892589858035306,1.8218639643734647,-0.7469368347645866,1.1985840479760972,0.5637591055277463,1.3761139538061116
3.5613739496209584,0.6543072746299765,1.4350162502478732,1.6106016834528099,-0.4348607618196638,1.6587544321916923
2.6006160941678544,-0.8079247218470504,1.7074478059198857,0.7282204181665346,0.6748275573951187,0.9805502976888025
-5.868292446700211,2.2280710176550453,-1.544886018001598,0.21508870828609072,0.39376863745338136,2.242136643559993
1.4102660367653455,-0.8770179500132408,-0.8128775851780516,0.08598722700923252,1.4152776402222587,2.0584726783476928
1.810592846972564,-2.17744020600556,-0.20758259741122204,-0.7329756905965549,1.6432287277835171,-2.215083590191237
4.663031711212558,-0.9807342610299721,1.1235542022526785,-0.9171095455624709,0.27291681900077847,-1.600597945646685
-2.3794176188682488,3.4162955203056464,0.45275686426893647,0.8226546918213415,-1.5682713287199501,3.368016111687159
2.8681178353147674,-1.64596250279089,1.0750363035275516,-0.17947337282550452,-0.46070162463061864,-2.010505961603598
0.5191350055137199,-4.743083237970178,-0.33948516416482416,-0.4198314177888256,0.13442574198381096,-2.214880977522782
1.8019294810980928,-2.59178525757485,0.39422207332725273,-0.2678557239662116,-0.35966252994141096,-0.7793920667070504
2.4436433133518944,3.7618469431336514,-0.0161306868702821,-0.3542476259421289,-0.15471175241697316,0.347893434439858
1.2954150705877523,0.65258012695891,0.2751499121944534,-0.3870529578224531,-0.39194699607412353,0.011155134669655231
-5.682035749920158,-0.5294225448438614,-0.365461397715256,-0.42473306940761324,0.49439061363852244,-1.2212162624359473
-1.4464455438630464,-0.8541106537376855,-0.3002588784190506,0.4835279241999688,0.5337843978145689,-0.02452367510141573
4.133009502704916,-2.3014551516492148,0.5217226118989701,0.7580022170491878,0.38207688265703466,-0.3509325656595199
-3.841387932775521,-0.9141437355433916,-1.4079837154321533,-0.9638644863651614,1.0389162766841542,0.1267482812208809
-4.885609394821643,2.491830528075124,-0.7504796561143188,-1.0003481470752118,0.7696251025016144,0.45489314814527904
-0.9807694197993779,0.9157632844334085,-0.9297771173798668,-0.146764797384486,1.2457343434880026,-0.3911952947188314
0.9554852857781204,-0.25182271027591385,0.7194510023525679,0.769749466829267,1.8784710649203782,-0.654964217224105
-2.1224958973248236,0.42846126873724,0.3297592583359834,0.6984888657540149,-1.4070660865378626,0.11061590418397027
1.4561977496467302,3.2851826083164015,0.252448934580209,0.4896278588345835,-1.2503485303366286,2.3264806543744965
1.0081919427843449,-0.6745652889607814,-0.11898746270745297,-0.2323555649315776,0.018671797184005356,0.34724981833372925
-0.7645975875338462,-1.2252241922375156,-0.6684254107900884,-0.7894879905759544,0.7629676888570887,-0.8300022011312904
1.3764779319038816,4.067334579078741,-0.2594457171030079,0.607358760763564,-1.9738197565023494,3.661395182750116
2.888481414937064,0.7781441238021252,0.41699938008816195,0.31132707658410297,-0.46339166366856666,0.9650827463633382
-0.8144083183617544,-0.42157373251254526,-0.013107728471882518,0.3111810597468212,-0.37033285204296096,-0.5771087672616013
-0.13597021822610023,-3.155893279408751,0.8316725290711257,-0.4107947940578848,0.10086691312467738,-2.3376696964586596
1.0272156326357114,-0.24856594273025845,-1.030875099679517,-0.09394759163345101,1.9303263059691833,0.5662345945520556
1.3485645087455087,-2.433279778568668,0.6450807861127328,-0.5725634053649018,1.3030084411783958,-1.1738826261644442
-0.3817723300319568,0.744863136729593,-0.05102377689530613,0.47882814958235853,-0.42553075420847075,-0.33243586537075553
-2.821741969773229,1.670250731670257,0.049327870548600716,0.2360949145290394,-0.4032010830073639,-0.6573657307505376
1.1947541053843647,-2.2116011808078477,0.7793152751866326,-0.4901344389971882,1.4326133157298546,-1.7147535407716847
-0.3765807686709052,-1.2836550611955608,0.11006746714788496,0.1426984694569715,-0.05124100974992085,0.305701474907349
-0.2791849743757419,-0.18033916102609293,-0.9987277302336226,0.6495796930173859,-0.4986671917541645,-0.016914955590552228
-0.22281378397890106,1.729268117864931,-0.7392431072313999,0.14469860656470418,-0.4216008031561951,0.6413349850344721
-2.477664892560689,-0.5218666688732088,-0.04477046891723718,-0.7555774384668625,0.6622363363092121,0.700137122218818
-1.3437048696735627,0.20368568605556092,-0.7063870195255331,0.18285785643723473,-0.17050977455559801,0.10503323847659496
-0.270669798501629,1.4191676331975946,-0.39157965390391347,0.507296844217631,0.04650808788123642,0.17549526952084904
1.7852100520206866,0.6679749559036154,-0.0028253349313254184,0.24822197835767956,-0.5601518014332244,0.21545424855125295
-0.4243507673382795,-0.04885982381623144,-0.19711856359241953,0.20317344194474574,0.6633457925715303,0.042180508853876475
2.0989622215020973,0.345169530496805,-0.3030763137632362,0.012105212578412239,-0.4553717970958191,0.15668296192769748
1.5322174919356308,-0.27270656395516957,0.14374105529664183,-0.10169563327403885,0.42757760622489993,0.3639746221628464
-0.2584685350525472,0.5157930554106469,0.35731430792766333,0.07366678855656228,0.34966994432803167,0.5419601046689888
0.08770490804906506,-0.7981543824962567,0.024384086102102187,0.37862470279542215,-1.2332474586361268,-0.12298142660364242
-0.4267977556679292,0.5849278352843923,-0.3323723516435906,-0.3088112834584429,1.1388699854877427,0.3532035470282844
0.6137860384839395,-1.8871776139998868,0.13005246150041572,-0.7463827211715571,0.6316105267834671,-0.07834428095481716
1.2463518619498604,-0.6259289978765913,-0.0629452539854416,-0.06746379105312172,0.3706143840923062,0.843680854539766
-2.1314877722587,1.2344064874920342,0.04551610765934422,0.10707489352104153,-0.13553084353330835,0.8360182498738726
