Gx,Gy,Gz,Ax,Ay,Az
-12.443786000000001,-0.6210699999999976,6.000006000000002,65.94599999999998,-600.038,15.622
-10.025853349340933,-1.6110225974614907,1.1343179375760184,0.09876027181356317,1.1402540704796713,2.3998526240565545
4.624014655092255,-1.4973338858801553,3.130633722961708,0.38190889795988303,0.430854856031858,0.2602989708526886
17.327731067874502,4.884496017291224,7.488918977238446,-1.455874610597419,1.0089071412013595,1.7201976776769294
5.878091144471629,22.002833401963024,7.985033839668365,-3.2631889683477153,1.046740691925934,3.106827429728126
23.86924696742469,-160.1751623463195,51.52002669716936,-4.493266203434525,2.529781787182122,3.948786637631723
-5.0441161947176685,75.66441420035291,0.473808789236017,3.6829712360150526,2.0145495585151627,-0.5978810405520262
-9.15479564164246,16.545202103034896,12.12797005325017,-3.767920702062743,2.411196314595209,3.820509477017433
10.32845300251366,0.8974488175656957,6.703353144434267,-3.4197895615208647,5.450256369474153,2.3834135222281443
16.48783035967132,9.30807446528176,10.77681913811389,-4.455829703874999,2.899402443013519,6.870811240542471
49.57283571178279,-43.799600123991674,12.282146349705718,-10.866963346413154,35.17543860148439,34.21988946938039
-20.182758237659158,13.091209605276088,18.52470443678975,7.741318559602254,-12.408936172313936,-14.96812434952993
-12.501995332896058,-8.816976121482096,22.172699243178208,-0.5590009804300049,5.226287501216692,-8.474908922037931
-14.275607789795803,-2.6136093674154948,11.317045354166453,0.3485108975651907,-2.9582198051862503,-9.46195529125053
-10.19484738326092,-7.313822752528283,16.68800729769511,-1.4988274959271783,4.319573324602073,-5.125961725600673
-13.414842941216023,-38.00889416412564,119.26318695591962,-9.524410989459312,8.705577076594892,-0.08361832011335801
4.124923748958405,-30.027275922254404,-78.96634249004909,9.819329196747507,0.23302058476195509,-5.370760831594247
3.696455661909482,-13.22479162424088,-19.686872028563005,2.8449125539574847,-2.6923971762704135,-1.9235548935558962
1.4919467480740054,-2.096451865359933,-22.514854342984727,2.4692370301967044,3.3166561844649762,-0.08253301884224529
-2.7837538699764117,6.816652428422289,-9.132413338142404,3.1954488660386406,3.3520052364978365,-1.9416898040368442
8.55054007139675,5.720300704128128,-1.69893413138352,11.37134936003608,12.652059654403732,-18.13353161327972
-0.8007961183590853,-5.311797640872404,-2.4062700742386047,-10.933549115488205,-0.6804052492243586,19.6623019863276
-5.492512053477984,7.7555662712605775,0.45181640830829384,1.1984726467936284,-8.266490858630235,2.482355754993837
9.824127093315253,-17.239569631699375,-6.221952629106002,-7.168493174163414,5.058887923554849,8.796167759120248
0.20860393425397028,9.863844238356666,-12.693519555689575,1.1246880217083657,-3.6403095868005986,-1.459681007937668
1.1937660274764696,15.48648768762276,-10.604379053605356,4.016347381707466,-8.21977004988349,-1.1974050198986195
7.586765488165912,10.34164969093737,3.1689952351171,11.53171776789579,-4.008912160456718,-3.079669251524024
0.1216736532563989,-12.471306295261776,-0.7709125097924794,8.497485294926967,-4.073547010836267,-1.938573940746244
7.771182130945684,0.6765884458516389,4.651933916947357,-5.220200463135642,1.059977323343266,3.5669491335989365
-7.438700020245632,-2.458721102874005,-0.8706809950462429,4.096093728184837,-4.7771321984034145,-6.89917601293312
-10.556640704841238,16.0549710322047,-0.7519146799853269,2.1085809522765464,-1.7223457961965742,2.1074804896846766
25.351231168239156,-15.449920724552403,-4.134655091413556,-8.27648085641254,11.452969632891982,18.76735014934147
9.442242359974333,-7.257382659633689,-2.5411319702326196,-1.206622433039175,6.640176151681465,7.147989335457964
-2.8084973354113805,5.218745234181018,-3.4147749291799974,11.300950752350513,-7.837190409467958,-0.6655447142453776
-10.70111674365792,20.94552227010457,2.272567199600815,-4.948851004665799,-0.33829047314691785,-5.002659192314265
-1.2390038072527343,-7.825522916773524,-4.420445267018458,-3.07473088536046,-1.9817205630102368,-2.252223848922055
-12.6586906054885,19.716426678642307,-8.14032899109736,23.586825478655626,1.0805109586126134,1.180023593984708
-3.551250481165331,-4.275126334388224,3.482744994102617,0.06007371438163345,4.133079656487841,-2.326368015502756
-3.8361184482161352,6.979888565153923,-4.06941183131323,5.379569810783478,-2.889860897771823,-3.818364833650036
0.8002777491365876,-0.11295947565774611,17.826431843290226,-1.016808576235798,-5.730447388316625,4.921965813051406
-0.8931041653666854,-11.304508258425283,-1.9826362714207462,-2.4463592182855924,1.4554492963199437,-1.0518528315368985
-16.224250052284056,3.946470730078196,-11.425572634323448,7.692985815121936,0.7093938100061656,-19.371216557953016
-1.574417282537804,-2.443659308741182,1.9303741462026025,-0.9003889668086775,6.859573273149463,1.6784513069805118
-8.371367116328774,1.8626205942619025,-1.6701386050494489,3.9131721208567214,2.4421423648071294,4.485099811203975
9.740836130167466,-3.7751405376964406,-5.201779233264695,-12.43989462937505,0.4880679398495218,3.1402341559641784
-1.4771936660208653,11.166735905234574,5.072908698913977,9.447940423642168,1.995157249914975,1.3158498312947757
4.803652115591135,40.241997675111584,-4.243712697698463,29.92272404178339,-9.236396269678202,0.33707770780146307
0.09701342157199733,-9.244596140359619,-4.3364036471355085,-0.07482340087131956,-0.9645475272872637,-1.2483828409184312
-1.8061196367337256,-4.5554375403804475,4.159918286481592,-13.41432376808303,-10.15467712633919,2.2360882004784837
1.4216240677075331,-12.604640492362307,7.896985757190646,-12.624866663038361,7.85777762670212,-1.9223515212768003
5.598139593345974,5.638144347258059,-0.27794108755129887,4.874216000716622,-5.625363211498671,2.147567560082836
3.5978675553575727,10.253370908808169,-0.6360727010545748,13.50146470787342,-23.121967319092107,11.70446289551034
1.1934326966608806,-8.066091459513723,-1.8598201629435,-8.453504509740485,9.782848496822599,-4.5909421482220125
-0.31730677595255896,0.2530279394353401,2.9476278772956497,-4.474561102554129,4.645956735248818,-1.840473783147781
1.923774762482644,-5.904213445467192,-7.914817966841694,-3.7744358140261243,6.275525963315458,-2.7297948283594726
-0.6774366794994182,5.534195129828937,-2.0879058222737594,-5.3985241334087295,2.522558655939239,0.6808248930953713
-5.109366572849793,2.945322359740453,-0.7838374329674576,-16.54401192861043,-5.920230977782007,2.4896902097280877
1.3891444944943414,4.306452188525384,4.082782534912428,10.40991210408033,1.2909332834384293,-0.6540371167052246
-2.046773958384173,-19.28450517842058,6.108615445003732,-1.3707051941945707,4.955132648756696,-4.894297848500271
8.021097681037052,1.732867512856604,2.558363326432416,-0.29624688685653844,2.170325619731429,-2.0604125569326976
-8.28075453918975,-0.3850469055998369,3.6955884630119926,0.20488120343764082,0.01288822361958264,-0.21861140155724113
-5.231772806523294,5.697966847783217,0.43541172929734806,-1.9640366228272068,5.229103982843819,-0.8913453574961574
6.980392424124301,2.3433164938110016,0.08561118031309434,4.4390871260318345,-2.735957950206986,5.082629557871927
0.7485723977332746,-0.3129294311506765,-2.086783530467023,-3.27081902795957,3.8685544311063405,1.2634857637762182
-0.7017469055691432,-1.1459867088107032,-5.464348205310014,0.35689284448153025,-0.32107184529820376,0.22955641740993143
-2.6269465300340293,-0.024520629632208468,-2.119641313803367,-3.231057642777441,1.835974421748958,-1.1196374936829476
-4.303022516095407,-2.1866903832630538,-4.031306605592558,-0.5982265339007087,2.9510224732619506,-1.9128145523502242
4.227502673479832,4.486911004395727,-3.843457393091997,-1.729815689735685,-3.981770547770868,1.1691865896746456
1.2988296854853407,1.7818578862330665,-0.0709572503407867,2.586450019880398,-0.6599864050922288,0.15057386351040214
-2.6362152758308373,2.363351834773618,-5.800051105901817,-1.936680481632126,-0.2730632993086073,-0.5741183356204949
-0.3316304486852286,-2.0524325720645917,-0.7562401633361517,0.41305117170139605,-1.323091984750576,-0.32843902698215954
2.3559345607193105,-3.54050183902668,-0.26775414637553185,2.325841540750398,2.936661985709261,-1.823756114657442
-3.4757391230796593,0.7140206283595409,-0.13306341756206308,0.5840303745171678,-1.1471240966769383,-2.929018108241305
0.36508671208074306,-1.05888352725728,-3.2118310718380187,2.46028022692135,0.8329825786519769,-1.062300429688705
3.2785852142247154,2.1903638351173704,-1.5164276735279092,0.8831802692298191,-7.775219982104819,2.3256727065756664
-3.200046901783387,-2.9569181307612546,1.7693125134158172,0.7327945461762724,-0.6163198511741187,1.6391402551765684
2.6566756173851043,1.329199994119757,1.0862908400200173,2.092835569054574,-2.096703779718398,1.4675312695768448
0.264294536692222,0.29981202679861396,-2.197271356425515,-1.8955154981273357,-1.7922997971477201,0.36100679223105825
1.5954433086599473,0.6606552752942505,-1.4653313924786135,-3.506265569324372,-1.5278544479949603,-0.12077493589308508
-0.3167802333284253,0.08551101952488227,0.9603162589506307,-0.48819634673139456,-1.281256062560272,3.8478448754813073
-3.5591070105119376,-1.324455076170058,4.053642997345203,1.8596707180554957,0.9318688361792047,-2.2742606028442642
-3.70794050238998,0.27026031154451957,0.8038426956716087,-0.16289553684699332,-0.5034737622309418,0.6565496946908151
2.9131327634314634,2.519725942905983,-0.7885601536456175,-1.719656897250994,-1.9164144381844055,1.7782418322385998
3.3448621044656757,1.1887252571551383,0.9412417540694453,-0.037003413852952916,-2.138879990715227,-0.5324038018823656
-9.028105543483655,3.1080763881569116,-0.11677500088133619,0.6684791538001333,2.8117802657560746,-0.2667911416479004
-0.6999888254049216,-0.1861833055971942,0.8173913833925011,1.6064723866046455,-0.46358567857219646,-1.9346261316091553
-4.859172670135855,1.3422259470798583,-1.9761419108808354,-0.9832068763615167,0.4996034534767145,0.0731659919831853
-0.5685130487628598,1.3646278942574097,-0.407989570818863,1.4386706989592883,1.5357803650786794,1.663311355005419
2.361498529557635,0.3360746243367658,0.24922835289280187,-0.4230110488068579,0.2598749543938723,-0.10139262026261964
-3.0963290238280163,2.575751973112058,1.6129944791565034,0.2342576424486592,1.7407860919302436,-4.1049134546729755
3.4290826230842613,0.8678032794838176,2.463259755845316,-0.022988161095202186,-1.773743682113822,1.0001573745186252
2.9037695935047463,0.9166062031098824,1.4126193107167009,-0.21068908781525908,-0.3459559651916465,-0.7138080493442938
-3.4957602887025914,0.9219737634382064,-2.349446615477003,-0.1653754994586572,3.3529330361083147,-0.6672324704418828
0.31242905689953493,0.9030925193864706,-1.8546124969429885,-1.1057392832915882,1.1768764707503676,0.22116353793719973
6.026768108751353,-3.1024743099022194,0.32805826752485423,-1.3289673665554005,-1.2026710970127432,-0.04277890393793948
1.9969469324393752,-0.2563487640747406,0.015988031793306323,1.3318231283420456,-0.6279978003787631,1.5716437514602677
1.0709253996136496,0.10425884241772476,-1.3018794895144845,0.5158598634528132,1.2965419743721394,0.9919506870913866
-3.8023317536236245,2.1462504603773187,-1.0055184780329482,1.8541830893744704,2.658513091610266,-0.5321253890741422
0.8060186259164142,-1.5363958914881473,-2.4866852503513996,0.5215340618305233,-0.6294078012126336,0.6684266613301652
4.804320167614571,-3.8003590755518406,1.0209482877815625,-0.6697144214776231,-3.6581253624829557,1.9715607426922395
-1.015594889765713,-0.17894980003025396,0.1759690439162842,-1.3644955684518991,2.369907041796929,0.18078453822814256
-2.0024869504325586,-0.3527087315533066,-0.6432395533285123,-1.3738289907807752,-0.06172779274967177,0.8291741072279587
0.6078460620324939,2.3273214118291072,-2.6492629615609333,0.20941188729110405,-1.0630248771888908,0.5403350765962622
-0.2606568704517791,1.3414295823719424,-1.4870799797609542,-0.47114822432687486,-0.976093032962264,0.12366624671658821
-1.509323696222122,2.9020234191793843,0.18161717377803754,-0.40058028803273443,-0.05366969730599713,1.6359601395864285
-1.8204721114749178,-0.8097957906941726,0.44122513160353116,-1.4854658044383329,1.5364771127580237,-0.9715965785198337
-0.257464538751194,0.13998937621873775,0.09920533043235769,1.2874357283297835,-1.8710088758855448,-1.2609137619331585
-1.5543101240132606,-0.6436266526665908,-0.9967793546966426,-1.8837815557366901,0.6747235678188664,-0.00679082046314855
-4.072509162503626,0.7100134354005811,-1.3696041421403777,0.4572110970498223,1.3966181047731623,-0.8407119252953301
-1.5260290064488493,0.9080540270721312,-1.8605851120925705,-1.2285149522426821,1.178462381885483,0.07635552874686535
0.46499430357342186,-0.2593767411968342,-0.975234892274549,1.0714189340637665,-1.3422415780772052,-0.8689875130246918
-0.33106280688496725,-2.348112048793821,0.24671188823755985,-0.15733780595081426,-0.08950090649256737,-0.6994825502924835
-0.8667984519724263,-1.0675615852566864,-0.8398360794967267,-0.7062212811374984,1.0322479013903785,-1.5654389209096606
-0.7414264106675634,0.37944474405982687,0.0208373126447442,0.05741824060340983,-1.2815402100094435,-0.8730143598938944
2.0241833694557774,-0.5957558519649633,-2.0777368497625224,-1.1285405313943446,-1.743068478790907,-1.5888959850315296
1.3659523157624882,-1.17772288520047,1.1678849336556567,0.39383191652031824,-2.601428254153384,1.8996228476350905
-1.522415555571045,-0.5630291304070671,-0.1572248525843456,-0.01696395250842342,-0.44066537474897854,0.9429481286020607
1.7648501287044986,-0.9608775700834433,-0.31109447562520653,0.0992080591653213,1.4675401719290428,0.1345074140603091
2.935039115453245,-0.27942322303558154,1.3945447682350123,0.6954095564086502,-2.559642009446552,-0.18437044490846588
0.22479377382440413,-0.5076961443360661,1.6050975189914567,1.1828356539878335,-1.632564453402689,0.18721289906145694
-2.75591217228835,2.3642672637630735,-0.025195679254158998,-1.1100688652705641,0.28260112613529764,1.481804169271291
1.5298930821280363,-0.5473204076744328,0.14873922384870675,0.7817782380847953,-2.068200688480223,-0.5277328341424293
0.3338721769722719,0.3905811544808937,-0.6517353378143033,-0.313724917955156,1.890790908948162,0.6507365087428756
0.5833171953560813,0.06669081042357694,0.5155702753958603,0.4115741933649707,-0.30875241419222477,0.4826057235138591
-2.022456953444828,0.2616067108803407,0.15452625772689177,0.19019549039252603,-0.16456139378387102,0.7831869177842297
-0.5232266486948409,1.6340004809906117,-0.16774340533961862,0.3498238404294912,-0.3056618751113026,-1.4667180647052787
2.425404377053217,0.41635933622830573,0.021597254727475645,-0.31466676446765074,-2.1380907096813253,0.8622795623020505
0.33003371264279346,0.31348312679240165,-0.36232269376633286,0.3735836768331844,-1.2674856972081956,0.5645539406055051
-1.747882139096626,1.6523467656910709,-0.4800271019998874,0.342397727696255,0.10498404218657631,0.10723786679095071
0.3315211780719834,1.78885881533193,-1.7604308022226567,-0.20678380291792367,-0.03049064910054433,-0.11041574916534763
0.8442786272675583,-0.9301904730721282,-0.5323446718963107,1.1728362859936194,0.4522536332454736,-0.35570718533921153
-3.353587312575467,0.9608841767757875,0.7287857764025003,-0.4448335267559792,1.1972685210605425,0.5060662825394975
0.6592124354913154,-1.660173343354164,1.0244002574146565,-0.030457344787496732,-0.4959322334919367,-0.19832074551288814
-0.09106869861499622,2.11065943559386,-2.120343629482469,0.326082299777509,0.34381746925281975,-0.9142542252130588
-1.0956730979372247,-1.0833728280617696,-0.0705912975879921,0.28071690635445606,0.9065366554696915,-0.13414217613885332
-0.7742626708910142,-2.6339951559338335,-0.9092422742176494,-0.4713204164066428,1.2129358161081711,0.0948268557356251
-1.1766650189594001,-0.08364480729946444,-0.5879268720480879,-0.6975505772504567,1.1375567922613334,-2.0614910022116515
-1.3113008442120697,-0.34967411228948386,0.552696632166393,0.09143692285775695,0.679391347288945,0.31126709147548626
1.8942255545970992,1.7123788027427476,-1.7415520962649262,0.19955158579890092,0.4394325902606766,0.9303695539176181
0.45968801003728155,-0.6161940958400276,0.45285574499068826,-0.29538490342229334,0.6814800778720527,-0.01763440647212744
0.741658436207185,-2.071754629313692,0.4172153877818181,-1.024325855782175,-0.3106178033543642,-0.28803092959304727
1.991982941550352,0.4312952843880027,-0.8600100968143332,-0.035970564312779674,0.14377501277011462,0.3982218834604425
-2.0404814967512293,-0.034883584208882934,-0.15807710931036167,-0.08457134254576643,-0.8386651293219558,-0.6277806297378643
-0.37137341677909275,0.07767924825359096,-0.1041905954635341,0.36503677263012724,0.5906914101584828,1.1526805944404122
0.7906931822915021,1.106759024015893,-1.2165707772339458,-1.2483431606200759,0.40536108754902156,-0.37035089780753033
