Gx,Gy,Gz,Ax,Ay,Az
-7.4400319999999995,0.44551499999999944,1.2413779999999996,2.5100000000000007,-568.8799999999999,-32.364000000000004
-5.071186836339687,-1.51929049440042,-1.4175380746478994,3.0036688732443464,-3.5213714253314286,4.620659447032033
1.4765060310114726,7.397458735316235,3.94477476684702,0.4814117234425819,-1.4884003872270042,0.8785635238819516
-1.3996137355131033,0.8114573141435855,2.6139702058670107,0.44254531768676564,-2.561094476982812,-0.807941376795875
11.343089776986924,-2.5904111696407677,-8.691016649231011,-0.4223683731394086,-4.005431785705222,2.105522703168789
7.125229797739807,31.696191504829933,-15.636219420167699,2.570737560922486,-4.748934164147234,-0.8474155165922463
7.703096301267338,-11.78263790831716,4.974226115235987,-1.84990281294291,-1.2061181423004217,3.4708455455790164
15.918916385884408,6.3671756046864205,3.8828274241544363,1.3142282376934766,-3.019190881169843,2.019112190528465
11.103313153575051,0.000990988750549704,3.8450629070979883,0.5293313295223612,-3.23507998414716,3.135289256423909
13.465627493796797,-6.575863749374612,-1.0745955248683208,0.06992294561593404,-6.0058618912849004,6.287025258507474
51.73414513138543,-8.37344838208777,-13.933211274447281,-1.4080670612930968,-17.910535462074385,13.377143584682827
-105.15191668399092,15.500953620965209,2.6197800419391983,4.058844734241937,45.699304975293785,-55.81337777987595
-27.089325763218667,-5.311949941821754,2.514770425342959,2.345983681261766,6.660629306515038,-11.622297451289496
-9.58904049578997,16.792522139053755,-3.370802271561244,2.688062672746601,5.251617313777826,-6.09983367956762
-9.270553783429865,7.173840524610035,-7.019395530268564,6.817927234325557,3.080963954701126,-5.262866021896624
-3.968317332701221,-10.77216106208968,-8.25524328186822,2.589245772092294,6.010854803982781,-1.7672763909065154
5.675428119740687,86.32526185180065,-57.5675852878521,37.52277311493732,7.509223314899744,-0.36106736289980734
-3.127251236548169,-14.704119273382364,14.131379742030049,-6.298478966680937,-4.780596035694604,-5.972486567478757
-3.1943360495458037,-18.85358798214007,7.197543396195844,-6.298998562178401,3.536674695189552,-3.480170535419636
-3.633142832434946,-8.28400839405967,2.637348528650512,-8.075746820096246,-8.243045843588785,-5.929703444517172
4.764926217907539,-2.1775946296055633,-0.5256312450632326,-0.6852630683308167,-2.625827638160368,-3.0107633782115055
11.814751145361448,-9.109140769659833,7.0835805100311475,-9.648226427113723,-3.520572698984676,-19.54545414198108
-12.690745505858812,4.157401244609874,4.5029114371095424,2.8892922618936403,-2.4365389108497535,22.10388826195735
0.33608345909555326,-8.388808589610974,2.838323841065865,0.30110613173998235,-1.192668827080801,6.9274188134989
-5.720033267894712,2.4649112577670813,2.746027319053894,3.7881186342134248,0.44058994709329435,1.1271507258194164
-7.90479615403323,-10.166310658061288,0.7856356638099449,-2.7301279084024754,-4.041466117983568,1.1573750961661053
1.0620184015191967,6.034430434943488,-7.659608519092583,1.386790997730408,-2.5513964790219656,-0.20819113123409458
-5.07721059282421,-33.66935035201995,34.6296708162959,-21.425979284988394,-0.18541639623703787,1.3912530929429043
-4.63831611183603,-2.374790127588298,3.3857818197199885,-3.3270406610279393,0.94216806622196,-1.7147478265571008
-3.2622499127829614,-0.7010771075428188,-7.67408752002313,-2.1570353081633495,-4.158609517561275,-0.29670454358777276
4.659206607998748,8.135389115724072,0.9862021610348868,0.31172171003301097,-3.065265427140572,0.001023729392639769
1.5782031529451048,-7.892015707731742,-1.1182065989242482,-4.899184872893762,0.08473868848739308,-4.096281145438155
21.071319356819053,12.367608719201954,8.850637994736466,4.5734175536162125,-4.167721472525785,-2.481593834604898
-6.142032401151736,-2.8496060640005574,-6.930701474056318,-6.783056220501164,-0.5673963130938211,-2.50748335356057
-12.55607557393553,1.095786348451925,-1.4618200013993543,0.11499794016825082,1.9707735166301381,2.4913485124125856
-5.5055308667617275,-10.763321802944695,0.5292696190014703,-4.90533627614659,1.6003896129807327,0.8731681781862717
-3.5586913491135075,3.0295799680317206,-1.0971696652017817,-3.393224230470506,2.4046804722670294,0.2716342512312486
-2.9091333912685102,5.150393463182414,6.488992705268636,2.03900392177973,2.4098432749095626,3.090218086824062
-4.458122047837064,-4.529851929718678,-10.640637327844697,-1.8290722954039695,2.19095151675324,-0.8838089586305568
-2.5738580108152385,-4.058429119462252,-5.915197883183412,-1.417150488583485,0.4567772581700033,1.8121587249037687
2.8534931009139153,4.311205153982475,4.856003863517447,1.9856500079873838,4.816862424347256,2.5116002836128817
-1.5545477658114866,-1.0885605525126316,4.095857175451277,-1.599614589743397,0.8905362817770865,1.9901422756558762
-3.4851131134459417,1.549094463026493,0.7812307769888509,1.1195873646640822,3.1253705933443054,3.3728478113861557
-11.385317678747807,3.8918387516910076,3.219580430407865,-6.046831237982544,-10.48786207421442,13.664450028047465
-4.460762413810386,1.792362121605622,1.6507256621759998,4.693001947344359,-0.768665119826033,-2.8553136339411993
2.6288762889808885,-2.743468587701056,1.8304220884317357,1.338268776719707,0.10920621552345211,-1.5557839237450957
5.9200149130603,1.8851590426626892,1.9593988657976427,0.5740246487329043,0.1983485088852921,1.5471793517359633
2.0912773671746927,-2.6750020555644216,6.98829210740745,5.597273048336378,1.0645245436572552,0.18756707356873803
-0.8533820939278667,-0.677734627645395,3.8074365067303577,7.70369040852451,1.5227378848613937,0.6212849256820729
-7.120481192811378,-2.4713769059830106,-1.241936477555721,-1.9821584692638612,1.8581805620833656,-0.6151455344956415
1.5781011271624474,-0.43441716478551773,-1.0208536206192669,-3.9072726249193566,4.139112334593922,-2.01224777016206
-8.104768885410108,0.2613884866712912,-1.0331802717658989,-1.8555426936871486,4.034285317776874,-1.8131389200271375
0.923925929892754,-1.7668487099597123,-4.159522391775947,-0.9827031765462491,-1.0615433623403274,-1.078690487583663
-10.506784107126222,1.8197520113849903,-8.710794196916854,-1.1720851480848935,-1.2877784043862,0.20214541879365888
28.342592969291434,1.010088426164011,15.134174812694884,1.7950539232975067,-2.0751428817562947,1.189842218656003
3.871721743105465,-1.952228459177578,5.529876458897216,-2.030299132858038,-1.0357382116791944,2.974923378561024
-2.0469072596165407,-1.2408938135982315,0.6656852669885052,1.3359193972260428,-2.138494042643446,1.4640474342778362
-1.5893875940158426,-3.5738587427137447,0.6814831833049486,0.6009903792851499,1.810372519807249,-0.7505947621867057
-0.06884283118194645,0.1917094913297851,3.5320079815049006,2.065004175047231,-0.5380537668232644,-0.7486071417152474
-6.734798499205812,-6.965346793293541,-3.83608252698679,-3.9858673307648327,1.3789627282226844,-2.5350014236422265
2.488682836122775,1.3962023367234546,1.608801969180385,2.08370873440392,-0.28725841565875815,4.124962074261574
-0.029316035578769828,4.12481520707715,-0.32740482899274914,0.8727782264759885,-0.8241111162907773,-1.2581277344682815
-0.6787981610032898,0.016942898158131686,-2.2305102140021744,-2.447812274684375,-4.0319583818154205,-1.0712950816223754
0.40070105416964896,4.6191504197928275,1.681629678204542,0.3987845006315225,-2.608699052076048,1.6886677080468198
5.062980748229565,1.8357076654016464,4.58666165252399,-3.1963531952969113,-3.946349145827264,2.2271177541468306
-4.782889576675967,-3.9693632332354984,-3.7261110548510237,0.5126020373050316,1.957328218575452,-0.8975064201733168
-2.78935944615559,0.24858752212872193,-0.4548044890124606,2.7764901670450928,0.029204312212083777,0.9087426865520432
3.683503345950395,-1.5627196811644448,5.178877649269755,1.9775847537837428,0.6207880537859687,0.5625644328465585
0.9214508475026706,-1.697940094392305,-0.603875750035546,-1.4056495576811536,-0.30280245159666197,1.1924375181758877
2.0004063520998803,-0.6014479183911101,-1.3925949730771716,0.1481114872194619,1.321871296967527,-0.10577439238568292
0.4007714911996645,9.30917176119302,-4.783995556483574,0.633091208903751,0.7991258510703574,3.366211805825711
-1.4586772337764269,0.3560724972995478,0.5575029740447031,-1.6512408481385095,-0.8638272222767823,-1.1800304359209988
-1.171826365036924,-4.001792165172957,0.7635206191381348,-0.9554794156615556,0.010528782709241735,-1.0657591758754816
3.981257078147389,-2.4760852980505503,2.758575288741034,1.5608900121897389,-1.7364468160052713,3.3272370324071803
2.970997936316949,1.547370310878797,-0.24604621185222927,0.8516777086003577,-0.10815154969312084,1.2611947994010935
1.5784000964077702,0.9146828708612538,-1.6991831531818116,0.007138731403542764,2.9992392472526093,2.9571879241768495
-2.0047940495117396,-0.5845652658664873,0.06865444000833243,-0.12138094655478038,-0.8133609562398678,-0.28011382003398577
2.4809721191091416,-0.9777187220029977,2.3681274874307032,0.3650803281463948,1.5659641064295329,-0.3669433518207552
0.40974452586983645,1.6494991606058078,-3.384674851284574,-0.42816979510228315,2.141827795071489,-2.0688126034733427
0.6065192714154979,1.3877818538237658,-0.24906015722202368,-0.1635849952420614,0.28142050321564915,1.017645099786316
0.07500389729534618,2.9353835894798683,-2.2804443142615103,0.2045952061803677,0.39208448121576933,0.8932677401435296
0.7918720272069741,-8.205556405048782,-0.6255157330703665,-0.32167231412914454,-0.16508331393120823,-1.229067431331749
2.4436992805780626,-1.3295366088802782,-1.633829761590755,-2.2088340622681857,0.04768278740294335,4.656078141215078
0.5275680846757662,2.7529975958572077,1.431882707815769,-0.36197047966773177,0.838032119398539,3.8271354230761405
0.08336659444502015,-0.746566159420061,-1.6522320675399658,-0.4609973667688958,3.014467277260664,-0.794231609579912
2.3297713764671784,0.2964910737702908,-2.242128124827021,-1.423335088844659,0.748469619494184,0.4562580674773187
0.13118846689917785,-1.5684874259914192,-3.0103920011982517,1.3090052691422114,1.1731097341022827,-4.61889446367899
1.7342117431366884,0.47505321794578315,0.6519193075843662,-1.674063618396073,-0.4669404070573274,3.8866353460890366
-1.8835400016628618,-1.963759409482803,1.3061212333403047,-1.3335448769551093,-0.6269845226324973,0.3556693784043603
-2.675290102149761,1.3926456323974448,0.156345166230398,0.18204756608246989,-1.3137642241162566,-0.7732264618568823
0.9831418618359468,0.7556762663974539,-0.33958390454674325,0.7849846634259885,-0.7385321128906532,0.5524603642063444
-3.2300056504936423,-4.193914784665617,0.8073243054372291,-0.19979166263652914,0.0606862362277365,-2.0584088382827908
-0.4981160440965815,-0.5481008260945387,1.56454194404612,0.8410786173959407,-0.2194333051633402,0.42699508487650806
-1.6314126387141004,-1.365423171094154,2.2664299952401272,0.1908075914581559,0.9905822864750596,-1.4788556073593462
3.7194113205507873,-2.1761972066707225,0.942494488932867,-0.01297229782140652,0.1222122164138918,-2.4628042863294404
-1.3267569164231863,1.5289511446260882,-1.371615082573436,0.11640058021431465,-1.3574504815259094,-2.160362919939784
0.16081583601851393,-0.6556869118388039,0.7117666579056843,1.903325733525804,-0.04336207781457746,-3.866160155235066
-8.310244850759576,-0.44455920308446434,2.701907654829475,0.34145688048477163,-1.9326751016573593,1.6616724924074555
-1.496181964927936,-0.43463290752762873,0.6845171574640854,0.7223623982522346,0.8925990165342395,-3.604398366721586
1.305390877418973,1.0636387961551121,-0.8721272963747025,0.24557003832397317,-0.16123027747130447,-1.760255665161893
2.4668160617771484,-0.4539798455859664,1.8329165840826596,0.05109019631562972,-0.6594711348497555,1.17572984102991
-1.429240947541284,-4.775695986852652,1.849025558704231,0.8294997885824642,0.41637804176040516,-2.446928506585356
1.5469557254093647,-6.460227968709564,-0.4655618818999334,-1.0181086258961378,-0.06919928485033647,1.7079466890080313
0.9976158016488962,1.2960613798224572,-0.514146634439459,-0.8203275195855517,2.3904726657273665,0.29168925947785496
-0.03300876816195064,2.984410528119347,0.04228897085144556,0.052274477229351246,-0.206296675485929,1.0926044216298263
-3.613630563649604,-0.29317357858324167,-1.3478109087583614,0.4718095705878723,-0.3105400113756591,-0.7264508417938175
1.1140298829477122,-1.3878656327354781,-0.4122492885447404,0.7572225934252912,0.20930791865061804,-0.7070656964452662
-5.498474811595905,0.2588307067367279,-1.2426150220008014,1.0688811695079758,0.045803155117909,2.272783205042412
4.676429875127538,-0.4792408436119495,0.2931131091103315,-0.8618612328277442,-0.8652159418312539,2.6518655318431286
-1.7313179504915674,-1.1330243823221406,0.7261866015553837,-0.24941965935548172,-0.5366544905530057,3.037259174643657
-4.054168601339483,-1.7921902311608258,0.49732782462375813,0.7856789306969617,1.0327752406164565,0.9896177607760027
-0.686031460125936,-1.4758392939602745,-0.10201742439276085,0.8809086797475645,0.893862580468193,-1.3894098779643493
-2.0895378117396963,-2.4460147184092538,-0.1396476309115252,0.8279821217939427,-0.2911962823946652,2.741137278539176
-1.4671622775307533,4.975872353664451,1.0988773358265358,0.32149676023154344,0.5942695156458204,-0.18175211253673185
-1.7607859608759586,-1.1793945827572152,-0.3340300154313592,0.09053565068780178,-1.4329238026486466,0.4295092887484862
1.4913956671253121,-0.5504601528431536,-0.07115010747883055,0.42543782168030647,-0.6115277498171083,-0.26683939110399546
-1.1475749091860115,0.6713721995785884,0.5251046272162992,-0.22769098248801767,0.10838742028173914,0.32427671540658776
-2.999405474032083,-0.0753887636192106,0.23399484068041432,0.4868201992772013,0.4489276126101326,1.5089062901202506
0.5199112658814712,0.8986165080374955,0.7125486096330989,-0.8639548066048861,-1.7905809995553033,2.8903410804031493
0.9138944887417673,-1.5774663219819665,1.5870917062632992,-0.42535746099295724,0.8811138028973691,-1.4876830710763733
0.8822386191309872,0.16963240331929957,-0.05150931487598526,-1.0731818055803264,0.3346599241684476,1.1783947413757674
3.3992870481867845,-0.36320180218755,0.4281584683259091,0.6931399962851134,-1.0559120060774194,1.4990132695013478
-0.8158722989632963,-0.09705862613295779,-0.11971879420700576,0.464378489499908,-0.49051901090975597,0.6168346251994482
2.519318653513457,-0.9156684636503364,0.37270710060850765,-0.8680173289269797,0.10010986633906416,-0.47303419468014496
-1.619662141684842,0.11125452374889444,-0.04506545975243306,-0.6399156990189976,0.2049365820142024,-0.3242642040135094
0.5354912802703202,1.2502184147335063,0.42988992035702667,-0.5858241878727817,0.1608634432875765,1.3166300092002172
-1.2177769088427168,-0.6884036746063136,0.4483631692835449,0.24387170037432626,0.6095503272767733,-0.7554640792162025
1.328425685215724,-2.8688780848610618,-0.3084635672986471,0.40953309697884116,-0.23701764733275368,1.0572992376393568
-0.28706818468162687,-0.6963397576185631,0.039709776398440894,-0.4482983901154365,-0.7731953887104221,1.512855065775712
3.964918200590252,-2.414143219425398,-0.15942220506442972,-0.15483103309460133,0.6343858657928736,-1.077503071976912
-2.3234785460094662,1.9868305187044235,0.2698782191706697,-0.04832606185312313,-0.5319224829950706,2.819809313888597
-1.0501527145255583,-1.4900664689530245,-0.2740507197108773,0.03781626871775956,-0.4005558438077874,-1.2647014526905
-0.26603386189004774,0.3379460623862388,-0.003299786692754769,0.6061884066435612,0.7307432029276792,-3.1107933576730735
0.908958644802998,-0.854234054415078,0.2237856700768157,-0.6084562165737574,-0.694140351828489,0.9315883208734508
-0.9379040235214616,3.05276829485015,0.6053513688953363,0.009282739200550394,0.27321693743987047,-0.27135706846391217
1.6260359555181934,-2.305493754431403,-0.8445164625843791,-0.7534779465495686,-0.9022871865858492,1.0825607655139158
1.3741791394297795,-0.215506026925113,0.062988744657347,0.7052404574073324,0.7036411166810709,-1.6449508324797717
-1.488965097564808,-0.09340720206455821,0.03553944528632197,-0.678246462782725,0.13253214162248067,1.7403789784278714
