Gx,Gy,Gz,Ax,Ay,Az
-20.030634,-4.129327999999999,-6.002402999999999,10.434000000000001,-547.0840000000001,-11.714
-12.693408206338695,3.609102170015997,-0.031825536100314356,3.8796990168522822,0.22157884744210832,1.7469697859126685
-7.047472375075763,-2.7302346430924835,3.7923572720764236,4.291481555033862,0.03333233755637799,2.949166415003554
-0.03291276221701789,7.2183928192131575,-0.935783006881016,2.6044082910257282,-0.8064438108552137,-2.6612631253622783
-0.7695671231739007,-14.713841641042656,0.6581531676956175,2.6984088680471725,-0.2158573698803285,-0.08672795801428634
3.0777777404899176,99.06919192921637,10.669676835521368,13.851831283499477,-3.231361113829485,-1.9755740233773653
9.380956203136837,-36.95747880415271,-17.39803390791596,-1.8901856971102897,0.456440211631969,1.840196024068394
6.0002908170755775,-5.644698763926094,-8.228442389877975,-0.5223887773341256,2.2591324305740343,-0.3101534460225595
5.190912688593425,-2.73060826283692,-8.233416493446901,0.8978800045357618,8.015888960719034,0.41845667392702635
10.197525774586063,-5.127979447653488,-4.735274546295029,0.669696882758667,7.617216137506225,3.0860196911201028
61.11772534251443,-19.099196310718195,-9.568416471214306,-1.7996622624201275,28.61212246488906,41.69211054862653
-26.061725539791354,4.692798508969798,-0.7780835969257661,3.394623847284172,6.773976300115926,-14.312022387043088
-17.080347270225037,-13.847163785139589,-10.124239459517954,1.1725803005629376,4.443308590711666,-8.203543505196935
-1.5939266481689096,4.027608569308743,-12.589813350780844,-1.649447062599524,-3.2351331496255087,-2.712801210061171
-7.365605128436543,1.641137609772547,-11.779602507973776,-0.7760588773380883,0.812464475959099,-3.0294434537662807
-11.113664605410573,-50.691883264399515,-87.6412126922682,0.03373022862761191,-1.2703965544081388,-1.5126586769571717
0.8500871066925239,21.294857746354612,35.3924905302492,7.30229853129312,0.07179404913164944,-1.998970050058083
0.8234909703180354,14.808865343054348,11.453783757612056,8.220880328051873,-1.7481251753018583,-1.0831571965366398
0.6282577250588581,18.31067853387161,6.296975750888668,4.138809003489181,4.3063168287978675,-4.5036591273588105
-0.8668975225488729,5.625653997426989,9.85760148807682,2.497963876016214,1.1381878007839343,-2.1674568657660784
1.3593053101759913,-4.428675462174667,8.312096498224703,-1.0829397298887773,-1.3058711386925048,-7.518810582365629
-2.7336323412916212,7.463558062273942,3.9963447060978448,0.7403395738467008,0.2974900740497042,7.898571897282397
-0.9698643317581349,11.64695599096777,11.83873940221132,8.790676922271999,-2.7541422814857905,1.9713788039696918
-0.005135333645303386,-9.354438465002477,2.757911998686751,0.585120490988623,1.619268884048494,1.3381300133758889
0.8048590554677154,-6.4694078890891005,6.293154869835358,0.8846956163351645,2.4956181393488532,2.874252907599473
0.10278436568974436,26.128054800457612,3.002294544857628,16.002547071409545,0.33445063124854896,0.38516642900968323
2.809011410546502,-1.6556495712333619,16.00354431416106,-10.429316926011154,2.3238704638418786,-0.1961716157713691
1.33059090976227,-0.5879672351586254,3.293897102298896,-3.278608884148832,1.1196800293263711,4.130041632193504
-4.949823313990971,-10.587536297750988,-1.2109686408725246,-12.628765102641903,-1.7475639649254087,3.897112518207834
-4.667087173386323,-7.641862728609718,1.2868263931003687,-6.336847374984563,-3.617646144806405,0.7069832195144947
-12.639228499645142,-10.73098524909809,-0.46058427058134477,-7.621301834692623,-3.50008667714408,-4.6683667528812975
16.00893020017004,-5.698630294483504,-1.1599948997360037,-2.4003047160333484,9.294149085945776,5.341550562890622
5.463246242296961,2.552877243547226,2.251265085794697,2.40305651401793,0.9115858975780037,0.4952911717713394
-0.920230934202765,3.9104848031508777,6.484430927807374,6.888999707643523,-2.576944502580175,-3.440006944803924
-0.29856083137454026,-7.046609878193486,-2.8492712115734475,-2.0580537065809263,-2.3938652890016243,-1.7739049962893088
-8.589339102672012,-15.127130261501405,-5.832745371597109,-8.729580666892273,-1.1376881204241316,-0.6511002243218595
13.68963581636046,1.42772303671647,-8.10474962098876,-11.10866787593729,1.698492393466715,-1.1917771866541822
6.028019807741217,7.103309485932023,-1.4255834830523657,1.900814757532771,5.1288168394266185,-3.442977567111817
-1.7934526019040984,4.646193327393664,-5.38926493007628,-1.9414185233751922,1.6198374172390293,2.7198135483078203
-4.212997983790877,-6.430895829093499,-4.597475190703758,-7.866586931099605,-1.3085718886463424,1.7013502045229265
-6.276346074441244,1.6838059945682624,1.666850212803567,0.570132890969056,-2.9540001400054434,4.903821623595251
8.233948502612606,-7.191841345757531,-3.718566231120743,-5.926773712655065,4.161024379461811,-11.039079936759965
0.8046531702333519,-2.9399338270086197,-5.489698310208361,-4.606854395905422,-4.966194644158591,2.2789593766721867
-2.1127355545640425,3.9253387200243886,-2.6614259015602864,6.6150550939086,-13.563596786178412,6.926355208709659
-6.881869841249884,1.2379805069966736,2.9807926274142944,4.61669924539778,-4.797259072876388,3.12013234934879
-3.435668983910469,2.6063282790804934,0.6424946732000314,1.9093459118601273,-2.5401920087683916,1.5450408681128662
0.3779564751228197,-11.149836581702903,2.807834774963885,-10.573871375951391,-6.728923051933369,3.0252430657711966
3.490838664016606,-2.526417485953397,3.840888018413971,5.757275957329192,3.2476330641920583,-2.871797558609183
-0.10338540926512688,-3.182339684599081,7.921894722625169,3.148955694536092,8.468194114603856,-3.8138308240110135
-3.7129489883562936,3.8687813692991653,5.532585288920933,2.6430828540251796,-2.9377656093998885,2.566984286107603
3.0089898825859147,1.6956711544580043,-0.6917044909394198,-1.1522134982270047,7.185093501490999,-1.070046968752233
-10.626356783581626,-1.307751979440852,7.410562937242823,1.3956822344065167,-24.496768577099427,10.006521085935097
-1.0192524189674081,-0.4778180547312654,-3.093953172254695,-3.600946535950667,4.787097389878695,-1.7017513685171153
-2.4287519568020137,0.10353694036138283,-3.475641379500507,-4.424477866594148,2.767211024940236,0.056168398290907556
-0.3838030224384511,0.1019970587168319,-2.4086031891842516,1.8099519494249008,0.5603382072974554,0.8835986671312234
-0.2768906862474989,0.15994497899198173,-3.207404190999902,-4.921958490939742,3.2650485130989955,0.05136218505734991
-6.4865289170073925,2.2777567924914788,15.999785695338774,9.167632798079797,0.1501600198877242,-0.876068612036035
1.9148299513963272,-1.759258723736448,-4.895723724134544,-3.3758897725911123,-6.033605571838091,1.208869506295243
5.30177121999075,-2.7534904455677105,-4.8854474594305675,-3.0416804068774455,1.5180125731242353,-1.6863026643140175
3.8530293605269685,-2.422667266577048,-2.8868110386697285,-3.106232054445536,4.742370114171397,-1.3592346859501738
0.8846192542727415,-1.2908882175347998,-2.596206142443305,1.214233535833966,-0.27004330756109596,0.946200266876742
-2.285127835617838,2.481411062411903,-0.3908246995773451,1.094129096617479,6.26947281123385,-2.6383246281911683
4.921605146099056,0.47799715731267467,1.5340464966491734,1.346472373928762,3.0886144195457907,-2.4104316658379275
0.6721214301339287,-1.8364864054830323,-0.20523059617349404,-1.380826413493475,4.879990704998436,-2.142098347341997
1.485636915979324,-2.3908658414009443,-1.9128596958572337,-3.070904278007885,-2.72834091139962,1.2600002338681586
1.4761351031061551,-1.6738380574829845,1.5176312336307909,2.2809808098528244,-0.5513374932804993,0.6070369524573982
-2.163030379771752,-1.4202053945774165,-5.234951071074995,-3.2487072503669765,-2.8073497092081916,2.374504432694533
-3.836866033068574,0.6140159447942628,2.5506147056100117,0.7308079593821981,-2.706509273165617,2.723277577276993
-2.1264139490778664,-0.8620391554248766,1.0343619494130523,-0.12828590967691272,-2.2915266844087263,1.3810058236546494
-6.011725786473778,-1.6762934238443603,0.03979025397958269,1.4312145770173377,0.7731750794318712,1.9298767476756507
-3.483435306774858,-0.14264485318210118,2.9967050861048605,1.019212525252124,-3.069705603904387,0.37138694534846706
6.884175460216067,-1.8923981432881098,1.1867462970816693,-0.7773394836179855,1.0883545895775848,1.6481626689082605
-4.689887438149448,1.1296383855428016,0.012220127690911298,3.5571853643079505,-5.367062033049958,1.2061594932500115
-0.7438792623869852,1.1652534160366663,1.4064419812800988,3.5970207585258183,-1.84437117775294,0.6337335369030002
3.050389166656476,-2.810702235931657,0.4916707669402306,-0.6291784913105878,-1.046241316878966,-1.8670016964780507
4.096366341783264,0.779048015963973,0.2801677707144521,-0.2648855285990588,-0.7466447488162968,-1.6558223702838757
2.9927396413714766,0.4357387070459722,-1.6122688497471525,-4.4137239558373516,1.9614016484120667,-0.3437242951091975
7.9832616815480995,-1.0120344353910542,0.9330500194027385,4.104029841247582,0.5497648452236277,-2.3917289541190634
1.8368422212840638,-0.5722733537947651,0.28654575805702914,0.7953063581770934,-1.04534560911806,-0.4570379443815096
0.6054069011536332,1.336311810839996,-0.8448625221187334,-2.5305751024888132,1.0839695989986815,-1.994225983170986
3.775523943416028,-0.9707606632737775,-0.2941688112969139,-3.9058086528658302,0.4565526856159779,0.004834756221741454
-10.56270473912721,-0.40927944650866455,-1.4857176751160828,-1.5263768568396294,0.26916799328675606,2.080713164217557
6.640433534553139,0.3832504730161781,-0.6171820821929694,-3.1568135767744168,-0.22702501876670478,-0.47395747546722655
1.2178166335877791,0.3422890664634597,-0.15072439606249688,-1.233064047953838,0.9387950352681543,-0.5058499576384173
-4.551946906077282,-0.7525447597168275,-0.4204450197732279,0.10887239921595554,2.0035329169500993,3.2421933135473426
-1.9550763653378738,-0.2988870612271173,0.19471541776201007,-1.626190385094433,-0.07460118683981543,2.3862853350884805
-2.416130580734565,-1.5734595671854237,0.28252603323562964,2.6086698223181255,-0.24898948980825164,0.9376764142311992
-3.502098443484982,2.2053530851618817,-0.6976374931459672,-1.2188077199049976,0.1819771276073034,1.1858427085606777
-1.8139239984026552,-2.3277458484412286,0.7750941459136738,-0.9864662484792246,0.40458325350512325,1.894690297797164
1.1954026128485156,-3.8069380262786368,0.8103860920305759,-0.044288920175134305,-0.9319483273151774,-0.2022011977505267
-2.8309369999999974,-0.6285005000000012,0.3568635,1.802,-0.8169999999999974,1.24
1.3132717989455767,0.144186661308229,0.09261307442678524,1.528596996142058,-1.1511478008289389,-0.3290333243801849
-5.58197770635368,-0.7883587890888784,1.9561673506538053,0.6469724435725195,0.38511381403526945,1.3579702921461623
2.0856330773978584,-0.2690810783331834,-0.6072476023759563,-0.3444874131275233,0.45859246506177354,-1.078313968351586
0.9599161979641531,-0.5637414861390936,0.34903872670860236,0.3344663655307703,-1.6191543573250722,-1.9368887122395628
-1.4504598774363027,-1.6173963868778256,0.09839887655266288,2.3464105490041036,-1.1983808434282848,-0.41055776199240196
0.3830032751458772,1.2931752331972,-2.702931182536057,-0.40250340929586576,0.14383623770718645,-0.40072612708972866
-0.20538155032095595,-0.40899788363663103,1.299107273399542,-0.8433756190160757,-0.4378505314108354,-0.13218092077153898
-1.5626590540058558,0.17406761464607534,-0.3628312647854539,-0.3787754957981907,1.9935539166195948,-0.01025589382840053
-1.1556611927750966,0.3151312316304895,-0.49908028356967815,0.12755888446600666,1.9819426158696845,0.1799210688907007
0.9244868225442859,-1.9950897518408048,-1.0875004392250078,-0.8834815002930035,-0.04554515501509382,-0.6295627772969906
2.6032951484030895,-0.899447528041537,-0.8218500943902103,-1.9338990536122564,2.8775923635437612,0.20112408836699647
-1.3623380957958409,2.288930782571521,0.10147630496950466,0.0005463846596642785,-1.3659550837072827,0.788303759176257
2.5183686853660685,-1.4121243777306987,-0.3669622149263181,-0.6077056566069787,-1.2679120037204261,1.0563144316834914
4.022651910768532,-1.351674177715596,-1.1452417601311695,-1.5994577019616478,-0.012187750035359324,0.16087362233821031
0.4916167261316009,-0.9256214640150324,0.3391577080741714,-0.40451801529094156,1.3503569871951684,0.5091353202015846
1.5638606253715528,-1.0858988100007332,0.4224864818807874,-0.7587562056309075,-0.0324349342514826,0.9452408924692142
0.556501028628297,0.9663591745218101,-0.12323878532914559,1.4796748321843116,-0.4710226818926948,-0.2575189085375177
0.7848278575403986,-0.5898577757294672,-0.9405064875623494,-0.48088233257996826,-0.7886036921299819,0.29977206264125567
-0.352777837727825,-0.27726784144999717,-0.5294909399211843,-1.0825157776443575,-0.2191465528674303,0.26858200687266837
0.09752031452541932,-0.04943581237570238,-0.05846151515517414,0.24652617282579137,-0.21431979880994728,-0.0367261857311213
-2.4046104426317596,-0.10648855258406448,0.09256715220377038,1.1585713539184925,-0.15429265836676465,0.7954717763964851
1.5961839961079243,-1.0782465058052242,-0.5206067027796778,0.41718574886397763,-1.2049880411220775,0.5155680573253189
-2.300215320805977,1.1534095597793756,0.7969951924001017,0.48848113062060927,0.16704477534273066,0.6657285819112325
-3.9465650944240895,0.8344797841876788,1.1246414586069216,0.17409203165104645,0.7806720783925194,1.326172848053285
1.8344821164687521,-0.27675943972393013,0.10951698267683757,-0.49025492063965304,-1.751971329918094,-0.204705267729216
-0.7723323891794843,0.16110363753460955,1.523672630011994,-0.3957881411718123,-0.7488642569113441,0.08051918833007138
1.7080960506927099,-0.42063148062055594,-1.1505761497167408,0.28861250705392855,-1.2482658805385878,1.0615020331081377
1.710904151284778,-1.294197030862246,1.5147824880548504,0.5377124741781444,-1.629984954277481,-0.6127491255014903
1.4477823378166388,-0.7769263210580732,0.5973744682535614,0.4642420973276914,-1.6224501472917123,0.594794876093057
-1.7235348461838662,-0.6635864435623904,-1.1527314143904768,-0.440266495560257,0.6551858451518424,0.6967390919039038
1.2659292706996237,-1.3085782320329107,0.09456049787955254,-0.45922482209994187,-0.6501532263763261,-0.2655853567207304
-3.3138765070544434,1.3493728745420184,-0.8199814657137059,0.010581109051466614,1.4072189415891507,0.8142167775858422
2.943408201237766,-1.198867662434676,8.68149563165721e-05,0.2631845314287727,0.5861998221243298,-1.3855626047203928
1.2124372606988918,-1.0123447484283217,-0.22694732859578792,-0.037229302242311024,0.6108628470834452,-1.790771278172544
-0.539633598586136,-2.087767768510377,-0.4774012845720633,-0.19437850107652466,-0.19939160136294998,1.466208087245589
0.1908978416575553,-0.6224382797217428,-0.15875996734262376,-0.6561753546614142,0.629824307464784,0.17643725165366442
-2.663474730568785,1.4169821351404353,-0.02065294070642726,0.47243500979490805,0.23856461155560904,1.5172621004545275
-3.555676146485126,-0.9600676337799299,0.43394542018779525,-1.368537377911565,1.2863477007480797,0.43034083068670026
0.19117523393288494,-0.9860065488539278,0.3791085270737178,-1.3376613699838733,0.998213312147586,-0.3182378065839646
1.8953887487404755,-0.0286267707798622,0.05419601284672887,1.2758234446864354,0.25792281439950854,-0.12147382835690518
0.01767807804678745,-0.022091489222572647,-0.21329865277286242,-0.06466091956551479,-0.40041015909950123,0.8003939790888077
0.28407655410020904,0.22341670530509167,0.030391748216538894,0.8537113066953593,-0.7045871369626846,0.2837988707933745
0.3790144514521948,-0.48109493122790437,0.16968585694015587,-0.6752413222829465,-1.0572793803280454,1.4416740150216862
1.3282754390534848,1.2351912457328083,-0.09469994532658327,-0.8426786015690608,-0.4615573867357092,0.9462073409265567
