Gx,Gy,Gz,Ax,Ay,Az
-16.762589000000002,6.986096000000001,-0.2159460000000022,4.029999999999999,-513.238,-27.232
-6.7995341678569945,12.745363341326051,3.7480799653297203,-0.9742854844604283,-0.4458149086436605,0.24131963749819696
2.2489814535823696,3.836928662630848,3.1143880676248474,-0.6717274825415406,-0.5564659069057996,-0.16858474710127003
-3.5168002269172183,6.258050927462091,2.7532102343968905,-1.9608747624142082,-0.3990588393551413,-0.1758392614204835
-6.2313995716926005,6.731362358312799,0.8529143840103646,1.7301898363663484,-0.5332670760725203,0.41919631791139944
-8.328690914796413,59.71635969485053,-55.61659291251802,7.082779640916658,-1.6205368220891516,-2.7748821696787727
4.922232421450037,1.5444182621434186,7.390284585241001,-0.4740870030835447,-0.29268717145637296,0.18930984837013135
-7.6969612145377955,6.763180628989359,3.250729996988581,-0.8804005617349697,-0.15580685520379162,-0.24953837639014206
4.422373061881322,8.269409096929959,3.7924935607762147,-0.15192195487496601,0.4822794813823601,1.10304764748361
8.944145818824001,-2.6159015957632556,-1.311113030038523,0.125363707006653,3.456995448204415,1.7688580904030555
2.868512928802403,-24.859060522643944,10.204480813271882,0.4612944930280062,40.79032301049141,-38.47540126949334
0.7442344155259777,-0.22102453476519968,-4.033397612297419,1.466891291364588,1.1263801937479745,6.514495341686213
4.846464264964915,-7.778235481332066,1.6591009205535823,-1.1247412244639883,1.997539657748634,1.9668663400615116
1.466078337860974,-2.0270913328463154,-4.5737562935247436,0.13876427907257083,-1.4481017773452924,-0.45091189455795466
0.32234325145323406,11.73848370780835,-3.7332466997401883,0.9720308917762154,-4.635960849998232,1.0509654094348642
8.921293406206285,98.37923563789643,43.79776064622939,17.1912436234842,-1.8857206188320923,1.3054448704476287
2.8620185876667157,-24.476188455774867,-16.99320779612845,0.5397844306731375,-2.7568202185497683,2.753085717797058
-1.1031804994680205,-5.695468517616919,0.940952609063558,-2.7915367429884097,-1.3863525695870147,-2.749415946588657
1.0242871416797588,-1.2297866117185832,1.7570132825841944,-2.48045278803234,-1.3066030026168338,-0.2585074548522869
9.949263619153431,-2.0327343091232137,0.022407003701664596,-4.31348992184772,-2.4355443106546937,3.953695482621561
8.416304606714442,-3.59701592071751,-11.093425971418249,0.36433989309070913,-7.96672149192613,24.046324865121996
-11.026265628499843,5.783233429259876,-1.449039455887946,-3.0094475676614136,-2.3400738735821607,-3.663872406146671
4.763416421417375,11.074301060520577,0.8181281587138631,3.1988467241534897,0.8757360413065678,-0.39970307054125087
5.542657243188089,-8.755909020178292,0.9724836226492047,-9.125475770049635,1.6112742611546589,1.067666909218162
-4.417233156289601,-2.657165373754463,2.914352225302374,-14.377520526960469,2.068826357975691,-1.545437709561601
2.2342095536681126,-109.87537967898167,-34.544026150744415,-74.93359153461668,1.0837682529204402,-3.6962814448920813
-7.587488968877463,58.035015155841634,15.921987310750367,27.379260504996008,1.279703804935144,-0.7223951396052531
-2.422362583935976,0.02343749573615106,-2.026634130086813,2.8974605707235632,2.912416243720547,3.172404531592649
11.001280084641753,-2.5987248708045447,0.1302637912228926,6.502109579068915,2.13823819104327,-2.0943098304605727
7.0051794939456835,-6.976409381798376,-0.7020318333635758,1.346747000514406,2.0081807103499205,-5.090889575039403
19.393236835517577,-9.159210403459243,3.2456020535157584,1.373701936911805,-24.722388942732,-16.333164155149195
-8.845355093054597,-0.8313070009019627,2.468757134251282,-4.670716340809568,18.700529129275523,1.63271037100166
2.5022794240373045,1.691443898174823,2.1058920225948805,-0.4861827471412609,-3.6171547688913313,0.44118521241723313
1.9360619368565883,-0.23763493527183077,-2.430945065773356,-0.5215803640943781,0.6273905988381011,-0.5936903080252061
1.9574378491410034,1.8141637313433983,0.5407270325285403,-2.80320527329047,-1.2620436738894838,-0.4705446549559642
8.824096535812496,23.877703314639376,24.77931540660239,42.2564406453644,-1.1151950626357343,3.0185993006717435
-1.193498197962096,-21.31171952239349,-13.547027323306077,-24.549929480906076,0.6246892160784876,-1.0849608077764559
-1.009925734010621,1.3720453519113986,-0.4263217501730292,4.056493300229292,-1.5849517991502906,0.007230428441236558
-5.275008702696295,2.4133874665540964,-0.9497475414904524,-1.6558757033345333,-1.4987961588275869,0.9683358786879646
-8.698768551019619,2.2287177616911844,-4.340615253466284,7.037621564942931,-1.9579043903137174,2.765509778634166
1.8892340438599735,9.223246175867349,-8.46744528641246,5.16100877294116,13.582788988648316,-1.6205035646738901
-10.387600386132387,-0.7401771358209215,1.9745032902058897,0.13562631621488208,-9.078303808692327,6.420970908993875
4.388567671941761,-0.25455899236854046,-0.41315832300044875,-3.679496641811037,1.4309589889821832,-1.6947481632656893
-1.0069151089071326,0.07303084930189951,-6.898739505991714,0.2554546479705211,-1.1687412397338843,1.0620639813632593
-3.5656115581361956,-0.7617363107760793,-10.00471154819956,6.4504709017453905,4.934482389940488,1.4404259084986795
-9.262204444829313,-5.977233775287612,-22.90849225643768,5.34628882130428,1.5877580423215538,-1.2638831095746001
3.6096630628410353,3.5345713634781806,12.684295963403589,-4.422896233694136,-1.1745671627223464,1.7455943015418098
2.311445182818114,2.4148100584553687,-3.392360283327223,0.11602010352069803,-0.408361037984742,0.06088196995620271
5.65127544531483,-0.33322629461382003,-0.11265569874627024,2.2515590938377246,1.7014527371012098,-0.8501272826756667
-0.09858010452148047,1.3476230716542368,3.720972169227026,-2.944763877433412,0.05352593952788842,-1.123638673255614
-18.610524084345393,-1.0467524662765524,0.20565968752363475,3.044683890050557,-2.7474264239251434,0.04783340099302946
18.904684788918836,1.410295231932846,-0.8900051342376603,1.4831787048637173,4.19773457570465,0.8316949001877497
-4.746144886690661,-1.6137193063878552,1.716199842697438,1.4795346409259802,1.3031239078999521,-1.5171098686277298
-0.44689907905862314,-1.1252224888680147,9.068757193639213,0.0055518892093393835,-0.5125604902793255,-0.3529049034553438
-0.20843249883519543,-0.3455768445667854,12.323195296686253,-2.7674418673645396,-1.2764637582725864,1.6879060235830294
-1.5667174407514657,6.12079922385921,14.56130997079832,-4.375663246949382,0.17525586716390673,1.0401613496829474
-3.961243913340331,-4.04347310907996,-5.602949814449479,4.933075318818556,0.3083093828275052,-1.874827289014394
-1.6717516667394812,-0.8261158765915908,-2.687443113655869,-2.1103739770762457,-0.9891400184268245,0.41050720726006334
-6.613423513696182,2.3369331513985276,-3.2600592485763205,1.2107996187569947,3.7123671171762918,1.760755715323656
-2.2361866551540905,0.6417304518693359,0.10245766643865084,0.9736329548170215,6.258952815200738,0.8423810413637065
15.764512247023807,2.420801580127431,-0.04116851688712758,-0.42531830094467815,3.323133675899018,2.9817349400436957
-12.843734183011467,-2.0530053953027814,-0.03816014711561411,-0.2494688540549772,-2.708095888004986,-0.7853316033740376
11.31611910490604,1.4837136888003832,-2.3374826648493485,0.5102813198634346,-2.4115249022436767,0.8135243482567744
-0.3690684214960145,-1.4463790406116925,-3.1797167701053395,-1.550479161607147,-0.6260634605813058,0.40693787147630167
1.4151991672452513,-2.8189499960402706,-3.849178166306908,-0.16542486657484437,-1.5782583808266062,-0.015499910713189069
-7.623999320156756,-2.046569384338323,-0.07119896866582343,0.7370930192344074,1.7660212354464095,0.8538939780047576
8.125297676922266,-0.10504155077729635,-3.799363740379137,-1.7172175804451126,0.4460370929580117,-1.6479999485986123
2.0576653435568613,-0.2495395635497959,3.3499246184740867,1.2097739278351642,-1.4821015573964074,-1.7788495361786156
5.495233374454523,0.2669440759009523,5.281010552239989,-1.5485152600279077,-7.245330230159986,0.23475424327188776
2.185990444323741,2.1468457038391415,0.9657043601502462,1.3751115109726513,-4.260641665907917,2.0667559299914164
-5.112967747377368,-2.312301971573749,0.0670216744205025,-1.4832577349440828,-2.1452879259888458,0.22355966890820733
7.817809238797783,3.1032602213194527,1.5640901320974638,1.2650922463342762,-2.1172904126918373,0.26823729800513646
-6.101688486371976,0.045895614099861426,0.6314278892307273,0.9848712162772717,2.3538851671647203,-0.6480791702384854
3.5726322424908665,0.7445635259711754,0.9070421666264918,1.548578218472392,0.6358549403908723,-1.7532267998715902
1.1130967615700538,-0.4144917046833989,0.8437746724476096,-1.2424388743295742,1.4252455746141866,-0.748884479562628
4.884271921694284,-1.1770618950194938,-3.1119781327933014,-1.530273253039996,-1.713166290036047,0.019401170960977737
-4.782554752978731,6.18414051152911,6.438249112141429,3.8573558723198547,2.986103746490133,-0.6715924980236782
-5.090768930278388,-1.1428187105655858,-3.397292696737057,-0.9328438524252916,3.722793695441268,1.053745926290726
3.7322465627580854,-3.5887323803175395,-1.883175503406293,0.5113272039553656,4.226116591195714,-1.2798223788739884
4.622331314134908,-1.8701557221591587,0.22567715378366254,-2.5084569675880983,-0.3612823721628695,-0.946328230357265
0.787156417801801,0.4818757476385778,0.25861247911707885,0.2702249205265025,-0.5566051569012296,0.6785326192849706
-1.8302857863387052,-3.309447521129233,-0.9376998235248919,-0.8518719391817551,6.070487673589619,-4.742827001971837
-1.7837196623879046,0.7754002461631854,-0.29647429809480236,-0.7503903656079922,-0.8826614433804159,2.7195706606390795
0.9603775495066664,-1.1016700080202277,-0.7729478882470534,-0.8011806568246496,0.44857142711052295,1.4063734722026726
2.526107897769335,0.5712117587844469,0.01870437361791342,0.1297005029389665,-2.4657502304692285,0.22204964948347017
-1.2344663001616392,0.8522545764880229,1.1816317615295777,1.765642386796064,0.8472637476614087,0.9878123158098879
-0.9468972724773783,-1.073536046786335,-2.306465085368677,-2.486192786777742,-1.5590029799766147,1.6909249114980744
1.920547447780347,0.10846312492856247,-0.07839145549846604,0.6414107332753769,-1.9520688115361498,0.4201291824816722
-4.790120260728786,1.2515716927679572,-0.45742534329512247,-0.9666455576413673,0.13268507576797628,-0.008882077304245756
-1.7829421032368218,-0.13265702796085918,-0.01142291405532364,2.0464066867048625,1.5165636376829168,0.043317384489943746
1.625484286029961,-2.0964216967647857,0.4968873262266046,-1.075968155185893,0.20860263368388735,-1.616344109755015
-5.93202145124351,2.9984452632224055,-0.17799957513645415,1.520857495476458,-2.5054517685303908,3.2520970288299162
2.0805658396080737,-1.6732158924609917,-0.3410449548435513,-0.12230277776828502,1.2423503303866497,-1.588334764555463
-4.026858301484648,1.5114441255188835,-0.07964888396104186,-0.14889374292079677,0.6817342055436606,0.03099023429853831
-2.617838561229624,0.578932108717336,-1.5352421094153381,-0.2791082619008737,1.5631078224934936,-0.2448853832865505
1.4401046979593861,0.7855068395434971,0.09038941674164724,-0.04579306725243675,0.09425064484441942,-0.5584519774788327
-2.007077562735041,-0.3904460627357148,0.2284104594354155,-0.2441887192273674,1.7257542894446147,0.8915489285209708
-0.22064798069010758,0.11714647815007569,1.9123858140194006,0.010331333356909903,-0.6576974182788102,-0.8825638229189927
3.096012523590029,-2.0895496965039784,-0.6947480930365209,1.1756940993248486,-1.3625541525382356,0.23008584438825147
-3.3844023322083006,1.570249469409811,-1.4250332501274507,-0.8314448906661156,0.1447814439761394,0.2394057751658683
2.525659908240805,1.0058174830356261,-0.12611091017535836,0.8325106978896467,-0.6529755674188044,0.44636269456984606
0.8496639089438863,-0.6025853553357332,-1.4549079096293664,-0.7765696656957451,0.9361888492097697,0.6894831960682145
2.557537942066374,-0.5445464327549694,-0.27724419532884054,0.9435933349477275,-0.6080380461543758,0.08756420323013411
2.958302813968107,-2.189983405837623,-0.6085887815230435,0.8396422685998209,-0.0742264164831437,-0.09559237814819666
-0.5396299340358753,0.04419047255785942,-0.016679969516439748,0.3840817635915797,0.13784213524539052,-0.11765297179567
1.8411786264961059,-1.5830537542433105,-1.4124917067974885,-0.41007584400099595,-0.38388304953104807,1.1667451628925622
2.3392781479293805,1.7766202954889625,0.9333400379978507,1.3182701901303697,-1.5864715949387946,0.6567079101772304
-0.9139305802017803,-1.2527083285252698,-0.6934522133936178,-1.2107397044402495,1.5846282574436752,0.1884134077677715
-2.2741532104651276,1.218559860670947,0.35194780114933627,-0.7840793242552488,1.6606600021906757,-0.2701050045899881
1.427227560953178,-2.074133746358212,0.7129576886532611,-0.513070926639528,-0.4238090126013816,0.11082815467654256
-4.498254384922698,0.5513587920103132,0.8046822010316315,-0.8415712365705931,2.154113660958107,0.24254490663929829
0.6418584032117285,-0.44701995162139596,1.5518566433162457,-0.20793289588057784,0.18592721962288639,-1.0264733578598975
-3.359987299334521,1.677211881527741,-0.0059299119809610445,-1.5164760657614746,-0.008879619991434773,1.1829786221248373
-1.3367697097488531,0.44606425275015044,-0.5813062361026445,-0.5241870042723307,-0.11697036579961495,0.5298704831564647
0.7382317103725685,-0.6292543312214961,-0.42478469916638584,0.47365814876536655,-0.5246677887658111,-0.13151419625932015
-1.2155373521197779,0.9769359055499754,1.7084953455626477,0.14671249885507226,0.2397768763494558,-0.7832879046271899
0.26624505544859756,1.1250503657691076,0.14430931096714433,-0.7616707939831343,-0.9287406895377356,-0.03742218677405148
0.7977900443952319,-1.016280761021359,0.35873563214048554,2.2201391042536955,-0.9896024752240988,0.11795878217136126
0.6470968415407413,-0.38908766441136466,0.7523193714539085,0.43335717291333126,-0.663200351559951,0.024899735520879686
1.267502364545953,0.12532258599408064,-0.6714767637685758,0.5853996951420688,0.08757418212914876,-0.07086747314730002
2.966834277245824,-1.5043444418847973,-1.6824504364856123,0.5471070319767238,-2.382048029263895,-0.07801907031261018
-1.2151886919016368,1.1007311895449339,-0.15187203132711036,1.7247611857567429,0.2860485822974108,0.49981221207292453
3.2745475403600186,-0.7040244972174715,0.7374289514084564,0.6090797951997067,-0.7555261530747854,-1.548782913528449
0.474454735209273,1.3459495026589137,1.2267147934998701,-0.41619865604284484,0.072235814152045,0.548620023479056
-0.4061925817754552,-0.09980455772591965,0.5812491368984057,-0.8624754993925159,1.0119753161795142,0.2781445344170144
0.17957255455367094,-0.949409897804562,-1.0574220134495196,0.4410252608789781,0.557822332916872,-0.45850301294086826
-1.0313673116367947,-1.6465626608511537,0.0051183482754552645,0.9907291819951708,2.282024495234903,-0.8539557735013922
