Gx,Gy,Gz,Ax,Ay,Az
4.831482999999998,-1.5096779999999987,4.263446,32.99,-444.826,78.506
6.858705176571604,0.9253135648403408,3.575011533474705,3.3924893123727027,0.25396452315389184,10.029522252635562
10.285905662890563,3.646409056961378,-2.1226017568496256,1.8079323194327421,0.6046054709196925,8.264898427760665
13.059007521276053,15.142452970037793,-5.676730653074964,1.729920196022579,-0.7543726397617572,6.896022535348855
26.777791063758077,16.77588708414621,-2.8908414067511257,0.4919416782905527,-2.5377142446276224,9.18417006145149
-19.128360502156855,-5.609754935933983,4.064574194244319,5.9147283299364215,2.488798098809402,6.659085202689591
-2.3387717456721457,-8.891844472550988,4.360622410434465,2.4611972785091716,3.2793026155579685,8.023714419493375
-0.059284997932595784,-3.247448912635227,1.3193479803876367,3.5009079371590275,2.8189609915913714,7.174259470599494
2.253107016981205,12.662378828828977,3.3670140723525313,2.847528543368386,6.456642997190818,7.308942480086962
18.33882471706589,-20.32062673105414,3.0685176137000907,-1.952580462317668,68.16260150061021,-21.510105556930483
-5.199561665702224,12.417057240051252,4.463249686218614,2.7371929082387667,-9.056387949637443,14.537897666197894
-3.8427372853122552,12.090509692292164,4.13088002883049,3.7143001883815914,-5.422783549337762,10.20302895958006
-2.604517548216819,10.734578935917533,8.157178796812422,3.707052632129613,-0.06903476354817406,10.480874386766246
3.598666453059542,21.594149390338984,22.194114603333144,0.03908198932703799,1.8175982826260055,9.59365932936333
1.0815781424236763,-36.144281792438015,-46.759013395053984,20.104908986043824,6.431814826362041,8.512534626771375
5.4350851550501975,-4.8484140787063,-8.756928714553117,3.817292001229524,2.407533268312264,11.025215494784579
0.08737648759589184,-6.102532124228853,-1.1141562898563429,2.7577204645540743,3.6028072744161923,10.700504012957232
4.694957956481755,-3.004148133028181,-2.9647030104247296,1.1286182630515398,2.9332069804152296,12.417546602403846
13.947791847166048,-13.0644002175953,2.3329378120071707,-4.440172556346272,11.784222229045847,30.802464494864836
-6.62839055680089,4.948550294765353,-9.572594262524547,9.351658552605123,-7.779317437192862,-2.878802738016991
-1.4885419419445378,-2.8792073926074364,-2.7271443325966653,7.726494601852952,-0.9124140872783411,3.1394365967532716
1.3444725368745676,-1.4542839141942139,-1.6609079458296319,0.18196647857535742,-1.2950258353216881,4.793355110286466
1.4296620349627043,-7.687327229044788,-2.359248581621333,5.394359185775134,-1.4964437934567467,5.759333766459341
-9.194555576189744,9.941085507314186,1.817761157737172,-8.048450362860159,-2.2222863411218317,5.098646356410182
5.984851727778735,7.373663134323186,0.11062092583110505,8.277628183288975,-4.442240934176267,4.2895639634508616
2.6517579783140395,-0.1508593825717659,-2.1886525858047357,3.4124192094203254,-2.091771712268395,5.286252054391884
-0.07327063062741601,-2.4244934266950695,-2.241164142103853,4.367212795417255,-2.4541489113645643,3.2348024327619194
15.957013704087654,10.384904234075645,-2.9077487561368605,9.457654176615268,-17.83005736461342,-0.199772398247557
-8.330155134876646,0.13720218274098017,-1.663493041000058,1.2302610623400647,8.992106977930757,9.873572388633313
-4.285430184089566,-0.06416434560924555,-2.6736652189720718,-1.5264249316660319,5.943396157218953,6.371216380304212
-2.4177225270084013,-1.2552267766889165,0.3628555832447815,2.6983041537210832,2.956879527699975,4.265008389328924
3.1453892172785665,3.820948364437304,-2.9157077083125644,0.8082370421689977,-0.45008463479213523,6.200594140039143
3.2878040062745018,-1.875676424137363,-8.37327121063174,3.6084743085700657,-0.07919366002241013,3.6796664549220277
-4.449187547238063,-2.161885099056346,-1.9008816230697245,-2.668452881693897,3.813815582985587,2.0320694247571334
-0.5964639574709678,0.7263812849145318,-0.16621427408961198,0.5480768051467317,4.162256668244887,3.5514067923279034
-3.3212343581812345,0.2154680383134419,-2.3157728439409415,-2.277764155748231,2.2991398695543617,5.8906079006494
-9.989096381155221,-0.6480986601440266,-2.508776585775882,0.12943873949664297,12.077796424349128,1.2760042191588818
3.7661276269395105,-1.095111572461203,1.6408168322404995,3.9135449275211083,-11.140496183987008,4.240324243050793
5.932417314984367,0.7334927416525732,-0.08158161841457034,3.210142321017314,-5.878864607367126,5.339724507203614
-1.0641223963752844,0.16622473533411164,-3.1290546457579156,-0.4173118413692499,-1.088974505786434,3.5440740354264317
-0.307510314885876,1.3047720937138707,2.031026172325404,4.128302419234719,0.8345001991484153,2.4445380981491556
-3.258397223231504,1.891774883507387,-5.8732506851986646,1.037170831539199,-4.526658410392513,4.441606309247106
2.706884617435163,2.6915976313869363,2.7759650912761975,3.6854362950865367,-6.0662278877159315,3.4701781564504977
-1.334495198704919,-0.9883162764999829,1.427030057605029,0.05169717595989587,-1.9395173596441868,2.079375547733248
6.794350890398158,2.17205583459306,1.0964826582698761,4.016999159477302,-1.6314616095629444,1.7412776493308586
0.472572275933564,1.7925104971942276,0.3849357776427471,2.22319398991341,-9.288265508579322,4.1500065233598935
0.10913910108939806,0.5589648188984145,-3.573590115531712,-3.0285960598627857,13.0810653415167,-2.6201779179172973
-2.083588160329618,-1.885438351101866,0.989125980897849,-1.3249758767865614,5.813514228012078,-2.3290060745416
3.475144231711514,1.7160104891305759,2.453353270317502,3.5419201885214036,-1.3019216205715822,1.4332971850650562
-2.9443185314988103,-1.076886632123021,-0.9371853079839947,-1.6173319719376027,1.4406989295964787,0.05049297651640661
6.289399800003591,2.061075038117058,7.700212094849486,4.882587990518256,3.47948424297336,0.7731752127703118
-2.258067117880952,-0.3344057836873313,-2.74861490572319,-2.531842130928166,5.017645079699928,-1.5561344655052713
-1.362856187425343,-0.5924311572647567,-2.6264499069792446,-0.9578548233781232,-0.8711662256371522,0.43019693284331595
-3.4644317244025915,1.0569419632496908,-1.665802385733466,-2.168164466730506,1.6760028019356756,-1.8519260450699433
4.977119249292661,0.2458902733631666,0.7478678970031601,0.7396325806452904,2.3924531198507735,0.7171889307380578
-9.035428486870014,0.19272571911673406,-0.5917117534207481,0.8572068578243818,-5.032064421497605,0.792853337974829
-5.310381870719754,1.7382395044179866,-2.9888953086164083,-0.7368573296040044,-3.6454916599978615,0.8685187163221904
0.4912080483861745,-1.3081839709088168,-1.7762365627840295,-2.1644082037145242,0.8228711066283454,-1.9971354725357524
1.000615405607739,0.947397627718831,-1.0477488871272462,-0.010838826343128272,-1.407539006230004,0.6730449800787186
-4.598550279722971,-0.7878968670295099,-3.1985813406232353,-6.032634374634537,-0.5963499417449984,-1.7001176099599813
-3.7291210824395993,2.2604908300936035,-0.6699760590816715,3.4713712866355144,-3.5807243996027367,0.45984751613801045
2.237060310066321,-0.02966742546621659,1.302885749698171,1.922840228642027,0.9470621433568366,-0.4088752649886932
1.7861653031341258,2.220747154713745,-0.1405429029359272,1.0208859517395692,-2.014284235323297,0.21465852999070573
-4.522173081291362,0.18421817984028666,-1.2614848886555912,-1.1609359752950916,1.205626830352578,-2.34802311376171
5.258357758819889,-0.7412942475056946,-0.057863265404332065,-0.72656618721195,-0.7599050292614806,0.9093750190326062
6.381981243589927,0.07065199507657838,0.9168068035865191,1.6469668009770526,1.851309023338684,-0.7278788017647276
-1.8851652769789662,1.595337193290187,0.06274446038516807,0.889760920903651,-0.6850413744284924,-0.42683015206979336
-1.4424964555180066,0.30171882865645594,0.18074064604072682,-0.457215160170821,1.8044109209714143,-1.7827700550420869
1.1326298673077346,2.5314826817967626,-0.6008028277197828,3.7837063304186724,-0.8207922443941371,0.4010073244003375
1.3176651550104848,-2.162324089841089,0.6508250253470649,-3.3043241103661463,1.5017421608396524,-1.7956951869179683
-3.489215757174091,0.5575733257820157,-1.5026832947036777,-4.168024709944651,1.5648275940028378,-2.589828922568249
-1.2036222920688504,0.13416538041071352,-0.5645945773899378,-0.4227449660296112,1.9942735402381706,-1.6648302942431936
-1.1577954143903055,1.1366115291173957,0.22343692942038196,0.3136395957721234,-1.4643059286505513,-0.8619904713777773
-1.7246109617544634,1.249889083962236,-1.0965707257935362,-0.9670898568514888,3.13296311451575,-2.510456073500584
-4.3635173028085426,0.1278046047574385,-0.7681908984020258,-2.6468256778145522,-0.8843165923146357,-1.9714618262881949
2.7910752599601834,-1.2777767786599192,0.06580628162916957,-0.8336785152993775,0.3879196326536558,-0.37396920890640395
-2.10432967857891,0.4479452347233499,-0.8691017299184667,-0.7963606450374405,0.21293053641310045,-0.6680053145494187
0.6820271587390645,-0.5633762444504491,0.1145622213173283,-1.7283522297358336,0.38048034245818263,-1.2020871231212034
0.15424303312471088,1.204122573141244,-1.3030004102222434,1.260052470665043,-1.0713352320388556,-1.0799730131019618
0.11524115974473015,1.2913921083582567,-0.059305147938744196,2.9312828069165886,-1.0952678383701624,0.9505804416406599
-1.62499918155171,0.40780046865244374,0.15659883068695757,-0.7520061979006312,-1.2207078543020502,-0.97493945381964
1.4776943762714663,-0.7995828070421099,-0.5756493602827292,-0.765964021211714,0.6209738116373373,-0.25515953634290156
-3.524940958928942,0.5597149321498698,1.0558965960247735,0.49234150247701214,-1.310013067706118,0.0690799459847053
2.044388044856632,1.4745332016119403,-0.9180531659495457,2.2470216133501792,-0.03765618538014914,-0.16535916175230037
0.4174211795175824,0.4840959639855742,-0.16975740105460801,-0.7363827180339385,0.26830382690174337,-0.6303393037495468
1.9148617747349417,-0.239292080865196,-0.2582651523446995,0.49329234031174296,-0.023530990892450254,0.04767228536401663
-1.1874073544265293,0.9003609338164142,-0.702568470798675,0.008130904430924568,0.5736190006693883,-0.7863263471498344
0.3912953440836131,-0.44743000618344303,0.18488270934492934,-0.5037608264024854,0.22907701432625382,0.8356512896012098
3.677185152564268,-0.768700337627628,-0.06906109653626524,-2.4625150117818806,-0.06463030779637413,-0.40811125529783765
1.3528535747996897,0.556593771798026,-0.8920841102950174,0.8944544893002817,-0.15551996658383005,0.4687623368511052
0.2419480771344762,1.0920938289512232,0.3200513513019959,-0.08141648460040707,-0.5760564177032013,-0.24031415153716917
4.901851663588172,-0.36198567740007437,-0.5885084084774361,-0.6687685559604557,0.2412743011668787,1.5260995087173324
-0.28019803156870804,-0.4538545694460795,0.22602238816576325,-0.7640331729670415,0.4714919588144113,0.6835945868341982
-3.2682705246936843,0.5191300446432954,-0.32880370323272745,1.2257301856733647,-0.20681078511577733,0.3200178931200105
-0.013814974970121519,0.6141363242455723,-0.21266488177202109,-0.13106750672304351,-0.3889268248247182,0.5640644018524419
0.6405538153834103,0.0545131322161963,-0.5811567690192228,0.8266585041827731,-0.20996897960685487,1.0733111796436843
1.2176734850037128,0.24940579600106605,-0.8203314450170962,-0.2534815397055641,0.19389813235325892,0.06165127321949937
-5.100002298578936,1.0438198479677887,-0.8116356206915125,1.758501406394609,1.2695750547736337,0.0540835326045416
-0.5048880328037844,0.11872387512722471,0.02256460969234264,0.08082879001144577,0.35902744187290186,0.7948685083909184
-1.0331524358996176,-0.5293978508236274,-0.41676746044092317,0.811441919499388,0.6481672031324452,1.1140660230930293
-1.960208126188287,0.7971732301076907,-0.9111849754809109,1.1553750945259926,0.5521026745441298,0.03740799628237951
0.19669663049634112,1.001427651021142,-0.29061465550764815,0.9162805778668757,-0.7625855977956221,1.3073569982879878
2.8478342668017893,-0.10851412920179881,-0.2594346580244691,0.04444969920470143,-0.0923068247340883,2.599166479789804
-1.0788889447614873,0.3945499501334408,-0.27474964497535903,0.668650741873866,0.9809913041030205,1.2777431401691408
0.7533210350775772,0.4460261960059704,0.19725568005543326,0.3909498035005231,-0.13468162314321053,1.595001515429699
-0.9665396505015278,0.586795468965899,0.10430610266967055,1.2251287568572398,-0.21980142121067203,2.2108375713675392
2.348144452537744,-0.2711728518076027,-0.25022137798246225,0.05831960994586327,-1.0879616294022352,2.4443331304206675
-0.31897349020493904,0.7455037691139179,-0.6065818019558618,0.9868461609734955,0.5338207957101161,1.3021635999466437
