Gx,Gy,Gz,Ax,Ay,Az
7.378144000000002,23.789908999999998,-9.895420000000003,20.852,-386.316,48.256
-1.7364796382428265,35.86337819342468,-6.3789597420772415,0.005895816810092963,-3.2162105315613196,3.9906046409039195
-1.2132441811465065,15.812007571246289,-4.468154508990799,-0.6763393782738756,-2.6552634285716428,3.740854985958662
7.559687621675552,19.15615444781134,-13.855342664535868,-2.560697814516012,-2.5637089712631704,4.701723468502604
25.115605440241268,-92.85941982489112,91.67230481487802,28.77266879262597,-5.9841726357584974,2.67309408405014
1.2767124117766453,-11.282230813153543,4.8813833053795594,2.226264417003108,-5.614531481259609,6.38107047579989
8.579436176654049,8.559589055862284,1.5720713524715415,0.26078228272736936,-8.12700135184707,4.528214478003422
17.775994187880507,-3.839998981787563,16.73000789085558,6.220997680033401,-1.3720345465927357,9.079760470265409
-40.01212536573591,-0.5238324978116118,9.298315839334158,3.6455335483955382,5.862256188076228,-55.65405540007889
-2.621977029626769,2.0886991717252528,17.30119244480728,2.0917305192695808,7.203155394502588,-7.8142968365051235
3.856409434083723,2.252543769583399,23.353692624932854,0.8670969812013563,-5.941231709650937,-1.5684885252681278
-4.0737634612096425,2.3984447524501205,35.460864393057456,0.3839564178876985,3.224735224484518,-2.5872247236659307
9.997963152467225,-63.27884957411993,-128.19748489250514,11.031864608693162,-1.1352617770346785,-3.455948974280094
11.519958432776011,-15.746214793838343,-9.227655669627119,-5.478096755957301,-2.678010551259342,-4.399683348334614
9.210405937760406,-5.218437086601429,-1.5112143781663052,1.084448062412128,-1.2598667171498834,-3.661850336394408
7.925422700601042,-12.592777217860892,-10.34199897154321,4.596445548231372,-0.3091661714145631,6.959544752233515
-29.384457818338845,8.05354186840501,-25.521087973095675,6.802973963538332,-26.714317067458133,-15.874746965310706
-14.877892713424743,1.8011656555973308,-9.135658490810371,11.123391291150753,0.29145437271687047,7.861971831440054
5.903850734182646,-3.183575515366297,-16.574643219208653,6.325496152227673,-4.183200206592652,2.3543966052866034
4.165430033364535,20.030697862871957,-12.44663953547842,15.47773586797301,-1.0664659775115999,0.1726959121356756
1.2170108353060471,-2.9969208315815474,17.181625915188807,-25.942652325079315,-0.8168408057529628,-4.0273618837376475
17.337403743750183,-3.3194037774781684,4.042459413377506,5.023539168242841,-10.519651055658803,-3.6426708151780183
-0.48909594956370395,-8.78759753977616,-0.5845671506481179,-4.285184218740929,-8.927997020066755,-5.009789565102788
19.142230064278294,-4.071875668070467,6.694327534141568,-6.6542352307699435,-14.285305141102725,-11.557331219369827
-36.55355259434357,13.155794300352433,2.6556953591085017,3.957035472910985,22.703530376841215,14.168228577926346
-3.2654508029877047,-6.678366571692536,10.20820303331289,-6.550519859180826,6.1773283834717185,-0.30770400180291674
2.8358981074688585,-4.1273667807616405,9.173837365393366,0.33555842525499513,-4.232829797883076,-0.19267221708972926
-13.06480361692825,3.660587924676566,-11.094130424638772,-3.5215444995475704,9.837676975344717,-2.704795471313705
-4.853169216819291,-10.434882919502583,11.117200903218297,3.7391419079599526,3.634762575444613,1.3193894966811406
-7.424494230082711,-5.475565189697527,-8.002827729639236,-6.183812252149162,7.887635805079157,1.5403147046104235
-9.140838319988095,1.2385792901627801,-1.8470534922489183,-4.61858245712312,3.7598692816824197,3.739150038871929
-12.238067759436095,3.318278588478281,-8.10377921458975,1.7872662358096993,6.59395741969321,-1.7790743563780613
16.192505650117386,2.4778502414107804,-0.183057827865725,5.876855817960662,0.6068825431025111,9.01918665048887
-5.739030612213462,-3.1909788625022286,6.568062734851715,1.8030389659318207,2.5754442646154994,-2.6185393593648056
-13.16335405147282,-0.7709148868463644,5.043295552604535,4.573625913049956,2.5972999922995763,-4.163468227496543
-16.233657110789647,0.8857700633975263,16.149696644222942,7.78729161431233,1.0950944595158738,0.8036290350588835
5.547485118314438,-2.5081135095105527,-13.138807968716115,-14.712960242764922,2.801554728264468,2.266429658759992
0.7352115789410365,-0.050793122060426965,-2.5257260188544115,2.2366272606393958,-0.5309950054384651,2.907659020805132
3.7878259756453856,-0.9290443457812092,5.061839080508453,8.853401873718141,-2.383624042568421,4.134657616001926
-9.874809945903325,-1.215318394621344,3.2370263332832954,3.1823799591158677,-2.5584266331086694,9.254458392578451
12.487423533365929,-0.15965276512380466,-4.873932707613727,-1.447822502864068,3.975024217024636,-8.094192315262347
-12.847697928711504,-2.3789257042917873,1.5309254538472423,-1.379730657215899,2.149029546754084,-2.936968882412255
-2.7466555900232272,-0.4658128678256048,-7.613834787066239,-4.220037237554641,-0.3702947728693875,4.186853899352137
0.7331616581706895,-1.929291382817425,11.28603311235453,-2.9520356109841073,-2.7791557066398314,3.1913305299110397
12.384248639487868,-2.7033729182384505,-10.202602863203342,1.859420308631924,-1.3885870078025282,2.9275574626277097
2.8888702751896824,-1.0639840008091122,1.7282627882412918,2.28954691972498,-1.8034204788904198,0.4471637940295241
1.349871298733893,-1.5044059282378366,2.901043007900528,-3.1460810381275923,1.8470947847771222,-2.073895054003035
13.582668725023082,2.0954349823800564,3.752501733213899,-0.8486828384180471,-7.9326703968969206,4.369824720525829
-17.900023008118374,1.745245439350752,-0.2907557000971538,-1.1627788733659583,6.722622751323975,-6.2489588152729345
-1.0968495034193613,-1.9073005878672582,3.288201810311142,-1.9026401121779557,-2.6884009736035086,4.159866678093883
19.326546784896912,0.6192388159465168,-4.675494958123348,-0.08466714862094715,-9.610466808829935,5.2274042102666005
22.24278528645476,1.3220634438190606,-5.124388731655973,-0.4491011846423727,-6.6125979090125835,2.0358719514821257
-2.540233018833642,-1.9096403673003914,1.999107891351756,0.6617968149657432,0.071670921071595,-1.2793632214025106
1.8723279467032008,2.092832638506035,-0.7821346793086776,-2.7508346644460704,-0.32346500539722745,-0.25870134717080195
4.499945299391746,-0.793939527025775,-0.2737443537755717,-4.6933785999683595,0.20620282489231556,-1.9369102575720802
6.2943502158920115,3.8754501725915596,-1.2838371706301608,2.3027402581056924,0.7005407777562398,-4.651711348983543
0.34090475548677723,0.30829019488388054,3.3406428023513337,0.8385713128039192,-0.410373362499865,5.302576102511071
6.3762133890272805,-0.13375071704522057,-0.45420651503176623,-0.42869808898136597,0.25667618844006457,1.4375702186698784
-6.517183838603154,-3.4775834786186106,1.1384768713862066,0.19761338295926933,6.1886721315399456,-4.758509344633138
1.8024698884750143,1.5889303310837675,-2.8373916061332434,2.811176024418856,-0.31264285569087225,-2.475560584328136
-2.6007427552636013,-2.0708814484795317,0.9796060068544408,-4.802770832777284,2.291577086377658,0.36134924214619124
6.036953658989502,1.253343942692997,-0.07488578193384243,-0.4756642125570709,-0.7783706146553251,0.3320521526582989
-3.194121714943625,-1.391934504786362,-2.8206682051381824,1.6220182563014265,0.9841277941825077,1.1446689614742227
-9.795119499999998,0.9746944999999994,-1.3209220000000008,0.44999999999999984,4.088999999999999,0.8319999999999992
1.7307379012725326,0.8805296046790905,-3.02358067703769,-0.6937739127269885,-0.7598300069762176,0.3866596307951229
2.931568357777965,1.9603795916037634,-1.6989678799657018,0.37425239307198077,2.8164057850086026,-2.0090392406926205
1.2349144336518032,-0.35282921404577317,-1.0633019491228333,-1.8524594401927243,1.3630504440711104,-2.4035830815968966
-9.88680490126679,-0.4548574643550888,-0.7524322202452591,-1.5628258838989704,4.510516510408106,1.8308715550291361
8.40701891354474,0.8626220087052991,0.45430740887969323,-1.2879753041547046,-3.8373528562775077,0.7493234370344855
-1.7169019104148342,-1.0286091036729788,-0.1765777226914611,0.776863893068374,2.891083217594999,-1.8051706438583794
-2.2868866027347585,-3.4534242769510284,-2.9139032522761097,-0.8571201047942911,2.2069660055097873,-0.2548605683154368
-7.418097862006648,-0.5716112922883829,1.2237321885947745,-0.8678896325403929,0.2961214129220691,2.43435188861712
4.95383599794254,-2.662093969707011,-0.4726862440039046,-0.5152102498875797,0.35946284866203526,-2.5705487104206712
0.5797873206920086,-0.601856471112636,-1.1030129772823187,0.7488012318960173,0.9985725655306635,0.9605536961713947
-1.6327030374177092,0.8524842948486686,-0.05722093762970504,0.32505953490414496,0.3707722161208573,1.3143379120326677
0.18871577221637592,1.5366204467758873,0.42743384909954774,0.9878513514711625,-2.6204759223665524,0.24726537151878003
-4.964262323803494,-1.701296521447175,0.5500048212426842,0.3965135307042451,3.8104281974522394,-1.2008878285748241
-4.168021901372631,0.03135625085988836,-1.4516694536307049,-0.28373572466825014,0.7173033155746582,2.642472261919569
6.9599185700831825,-0.17106304213186718,0.4902725940285375,-0.641105621112217,-2.55102452049549,-0.08337198964912407
0.8420867404520607,3.1210426486113567,-0.5824857858208974,1.5285237295974383,-1.995951235455375,-1.8679823867696665
1.0302402380500724,-2.5313453334689138,2.573022761852516,-0.5086900873225331,1.8756513938692896,-0.6564160154390988
-3.268030406562831,-0.10061948863235881,1.1153228119116028,-0.262517654664018,0.8175640069955676,0.5183199928848898
-2.3451242994066988,-1.2282974120716859,0.9038630888022343,0.4161120557684883,-0.05928717442157616,1.0690767941784869
0.4707061128028993,-0.1229905898811059,-1.2368208761024206,0.23903572117066973,1.0729357773389245,-1.962556157528306
-4.965646130937973,0.5764709176378942,0.13434868721176652,1.4582225024827675,0.381063600256347,0.31467994529725996
3.7668402616841483,0.24493089499643617,1.0464765832749885,0.6247207371750347,-3.403013887108278,0.12057673873716457
-3.7690553285969366,-0.25497320373258425,1.5152168697441444,-0.6115016997710452,3.1634629472647138,-1.7470823947092071
0.3883516531126041,0.9711538860953082,0.509264933654004,0.43243334219004526,0.8936036474236673,0.04485452666667622
-4.987357889621804,0.8371246020794507,-0.8823607255568895,0.5144155044500742,0.2722167876891777,0.8751839623721467
-4.058513416177571,1.8086239861065891,0.24920574141816232,1.169174858383065,-0.5785516281384039,-0.7782255836143996
0.6028821157968505,-0.22325635720082238,-1.7645515262322222,-0.7084015696241965,-0.9961489549836138,0.3784703132526165
1.5590427757518945,-0.5454825532170493,0.28658803294277213,-1.1808869724201267,0.1754914094779756,0.9058105725706769
-0.04099190385545981,-0.8440815286591938,0.17497207218139188,-0.6510162119699605,-0.6113979954892539,-0.31380278342377643
1.0010668186651182,-0.010844487269055847,1.7920938314481258,1.0005162725930294,0.8666576916671074,-0.9118457374086244
-3.9648196554787183,-1.2046120617509914,0.2858140851546753,-0.867861348270313,-0.4907091346232322,0.6817913014964481
