Gx,Gy,Gz,Ax,Ay,Az
-7.289409000000001,17.940524999999997,6.234462999999998,5.846000000000001,-450.3539999999999,74.13
-6.240651292653802,25.239725742733075,3.4143800375326165,4.011082662030721,-2.212224800706284,-1.9816824446710328
-0.4490019433020386,22.58964623506315,5.104009430119511,4.432067564252026,-0.6401273453429125,-0.9965385470941573
-1.7080843218477173,50.191610987103886,4.969076463133001,4.09367892767611,-1.6302604095159305,0.1481471618756689
-0.9337523639678019,59.84048311813574,13.714896906084842,9.978893049494877,-2.5544739006253425,0.2447542907209805
-7.399008850811363,-20.89243033460415,-3.0327527977341786,-11.789458218832616,1.5302083896096705,-0.04772319707765349
2.2602888524823777,-4.546020314226302,1.1386176783275848,-3.4900926674346295,0.7332812406178136,-1.1141247126279616
-2.814241708903805,5.681754498324301,-3.131136700399141,1.4752698343887576,-0.8826055182602995,-0.9890459803374823
1.6727890328885429,-5.874982492672332,-0.5178875744653717,-2.747576947524867,-2.2412331431072743,-1.020687319414166
-4.152955835215508,0.17422630822919594,-5.947429974153154,-10.130057470760445,37.764823022142636,-46.968784511763076
-5.6360173494399035,-6.733875579636761,-2.993835637577855,2.273274580575258,-1.3501429696354268,1.7331999345522666
4.780594116557458,-1.5006526390586568,-5.6335534510961285,3.882490075937281,-0.7877771522423511,2.9658746817434953
-0.009700276345471215,2.3742003711837363,-2.572640278448766,-1.8813064263687496,-2.150844292693337,0.2927486787158783
1.367082692984373,1.1446311556452828,-23.33976667794089,4.7606438168097505,5.027764297696275,1.9374947067026302
-1.185655630327624,-15.361756981118523,31.884739464498818,-13.369788585807807,-3.0713515069497386,-2.0807928870621724
0.48451759124934435,-7.9970893853307174,-4.3688495658084765,-6.951657420448021,0.04958542500150455,-0.24818073097836252
1.8296929947403406,2.6777063125475666,2.317490193520566,-1.3933251070673975,-0.7087736372428388,2.5531354374640842
9.72688348830396,-10.488380760413335,-3.204691564001541,-3.590231216831089,3.217681264768979,-0.7807533014687426
10.093177809637137,-2.9470620799830334,11.337836333839359,-0.8995475108959785,-6.06954124086846,8.496431366156928
-4.576508213714964,-1.1738850736798225,-4.301984976695648,-5.350630880439255,-0.9475722627500623,-5.843210436526813
1.41029112988579,-7.443683111868173,4.038301285898397,-4.033917087285206,-1.0512126578635157,1.3264363360233555
-3.4034389415047333,-13.192340682613407,-1.7040640412694277,-3.7022995910255867,3.120362941836578,0.05494252975700534
5.018273905064811,-20.27947336858454,0.49384069746459236,-23.163788667114368,-2.6624153190745874,-1.030018800649661
-4.486624990727095,36.63844314673941,-9.772363842080065,37.470018505228175,-4.036218045468846,1.5541826192197488
2.5987007419319506,22.020970541592582,4.918315224783727,13.256853721209826,-1.7460428554381013,1.5733113849197653
-1.8641400544911395,5.539749555792123,5.697561809783716,5.90957091682573,1.1741045370929668,0.22874596299269712
-5.443321829916312,-1.0605325844983629,7.714274146888565,6.320848291022861,5.461317782443807,4.454061537661192
20.250397258950294,-5.278319967927956,-12.274533484766854,2.0948471273603304,-11.815378027545359,8.682011707476594
-9.654900818505276,5.5989188468865345,7.392530770867754,6.101419416707143,4.715765530376262,-0.22526990598091934
4.355722066955446,7.178407350850644,4.088480752083623,7.096444754845569,-5.45389031252949,-0.7090080265177636
5.68031584452287,10.182433214173809,-4.856509672627621,6.332896410663673,-3.928404647654281,0.44605682210763087
8.656726259859369,5.9565391280933495,12.90206324634131,19.109997000698602,-2.264374050710935,1.0465303253488147
-10.566095800473983,-12.203129121068926,1.9877445716943944,-27.660171026365056,7.797730010796652,-3.0013885403198417
-4.617487117594804,-14.068013541611716,3.5168267345439164,-9.101163360298326,3.171164698204663,-2.928970785099231
-1.8176826153986545,-2.607025588768011,-1.6483861663676824,-5.093379459602538,3.240222608149197,0.017605475804095494
5.753388579173113,-4.074255649604249,-3.7566061842278646,-9.718791646990127,-3.1557399338627548,-0.28925825612349043
5.478632127498585,4.630662836006876,-0.1438240027352038,-7.031171412196471,5.346288873892009,-13.114672829315777
-3.0419315800943805,-10.365956611409356,2.05950620720628,-7.643099396808164,0.2620961362005765,2.818973922400148
-9.15521702498594,-3.70248800312007,1.999307773400301,-0.0207651618315996,2.4895684756983067,-0.09794462075280619
-3.868932654890124,-6.826652220962741,4.504174816448349,-1.7397321261673024,-3.0433550886730054,-1.1186870691015545
-1.223219115982044,-10.286230194992427,-7.848788919270166,-12.393956447447296,-4.0320755651266165,0.7246412926919553
17.56679009016177,14.097319937868992,7.100488343378215,19.69410302555068,-13.077704168940551,3.5991655055106673
14.606816765790564,6.3832667124506886,-5.70918066744393,2.5861880722489343,-0.8508108356817781,1.245056253679601
0.8147418174998273,3.2976741696553176,2.8625879747652716,7.937226380410083,0.9661886460230402,-2.232006623053423
2.3623020800421077,2.3919166004946324,0.9361377861966693,5.806483953743088,5.835488851869986,-5.077856099562854
8.682394214247768,3.52020030336378,0.047773528325303016,14.077732999488108,-1.7273338328095207,3.5220986443120936
5.696669437351552,0.5637655128363925,-5.100348529259534,-5.460791449583209,5.509277996650377,-3.3667533723437786
-4.3065766047358895,-2.314897538755436,-2.8528950237757913,-5.5277176300811846,-0.6833020825702023,0.6322746281735844
-2.9945498129772905,-0.9550001650473314,-1.966600951256659,-2.343592906605498,3.1957467747835766,-1.1307725852772987
5.589379034012409,5.105620650494353,-0.22707460998149487,5.208177094027462,-7.790873489372954,1.3093317036771022
-15.237637046017714,-8.118831511748024,2.4000866611351888,-8.111527500438195,5.360469089377626,0.6205652392765297
-11.337403127230884,-2.62615213026971,6.4751178186095615,0.49913876651153366,-1.9216974353033665,3.8717988928719356
-4.383892301116489,-3.2118222162844616,1.759057436608368,-2.0420373656488593,-1.50231452202735,2.1095979056060656
-8.634467358271596,-1.8089283738584419,1.5201317778820895,-0.9506889849039837,-2.7110607451534303,4.201772497497494
-1.5159361837485485,-3.0703335210216043,0.8555616567167246,-7.671494795235434,-8.394629807112343,5.521606386110795
-1.0480977086461496,0.4636568430520932,1.8650419536456924,7.37956510153383,-0.08532648557365549,0.6312157356746615
1.3466676287619486,-0.5065625713978534,-0.13351678739755968,2.994464552011692,6.401468494389044,-2.95641353872916
2.572879994459563,1.224140130921666,0.5530617569790671,0.31248604490352094,-0.5823163726842558,0.9553964874872394
-2.0314593668529213,-2.5733780685405323,5.6814137227634784,-0.6384324719192089,5.318988897320106,-3.0346428352319563
3.4225016744351677,-2.7794706521729107,-10.26558363660802,-0.2967729482210131,4.991450559539361,-5.037791605177735
-1.780216679170115,-6.898584253217525,-2.1377638732930855,-4.815016469052956,4.936682676941913,-4.468486832827864
-0.8551365857501798,-0.9224900829012121,-1.4887442993167548,-1.7417113253710959,1.1467353828766262,0.724212056262758
4.560690522612321,-2.861270321766885,-0.9252943154522835,-6.404225971738872,-1.476722860648695,2.1766462113769904
-0.10281794997642413,3.6984746176360668,-1.56377249514173,3.34405433130782,7.382901519139922,-7.9142370582237564
-3.8008756885246413,-3.3487056327183606,3.3005503859966843,-6.00454389898558,-2.8829194298326932,3.0925001595502266
-1.7577279819662972,1.9535121612351487,0.49600403072742505,2.5448619187781953,-0.9766200272917605,1.8121509585967346
0.8591958106022436,-3.195309365478288,2.369111779517834,0.472864843128435,-0.8565268901862301,0.831447427573765
3.7290621453670796,-6.707090862813089,-5.421889494713717,-3.5532623619830144,-2.2892577966417296,1.6654010141873574
1.2975997191391992,5.554850527291394,-0.26762385739769423,8.061168807385434,-4.5717412346823645,0.7598425361361867
2.743548350749056,0.15196488365443894,-5.6174590055054185,2.3096460527926523,-1.7527790662024068,-0.3775060470285796
-0.9089260802694334,-0.06959895729190842,1.007182684894718,1.7757860661047746,0.03593647126605823,-1.9003851579677733
0.873125022304688,1.8706931544212355,-1.3172171421496692,5.860014745369959,2.475991935110099,-4.445104862955072
0.5140147179365142,0.29557793039139346,1.4962499483809497,0.8016717590033342,1.2692562666450495,2.0068299935403378
2.8782914783224154,-1.4053686533411125,-2.805445696528322,0.04005905740557325,-0.4285674306390046,-2.2300179807463456
0.6312697549688946,-2.092148593104108,0.46987906888767883,-5.332626766863591,-3.884378898292809,3.9973818732327095
0.4215639328545494,-1.7340125479917334,-0.8663685340957062,-2.029462967873652,0.7755493190479239,0.37150267410699434
-0.4376653149906895,0.43891788048494806,1.2997941689688235,4.300670708761082,-2.600675443420286,0.4646189420542465
-4.283619889224687,-0.8545539735433545,4.770607454690553,-2.297169531206553,4.6098436154382005,1.440538310761495
-3.5370279414657126,1.5771611803333259,1.5968739600608748,3.3063345353835265,-1.393524412453167,1.3281002580543677
0.7616538138529279,-4.013974236075909,-0.33392274163548175,-2.4589020095414673,0.0375541578716625,0.0016516298570086532
2.1645665438413983,-4.267968524619376,2.1389345094446504,-2.087274568963155,-1.5774361433867865,3.2135333046658587
-3.1435134418919395,-4.3298111238205665,-0.4217200945987564,-3.3337128401545613,-5.157103449583646,1.9355169233905718
0.1601294925771004,-0.4159168285814141,1.6920780079748714,2.643483366612452,2.35857459310004,-0.5893300121743205
-0.5622161598447756,-0.6798625134476943,-0.7740139547238449,1.4620953005784734,2.323197169009357,-3.216662067443007
0.5791265197614719,-1.0620603802218729,-1.5193466123479382,1.1099975748521071,-2.0533752476565033,-0.5940093728933296
-0.567337768971125,2.5950211096983864,0.5403296710932053,-1.9067885649152339,2.691288018984813,-0.3561473136488794
2.7031693726465917,-3.4340197885175296,-2.3931385143335966,-5.0777159678868635,-1.7165930615483191,1.2319535802795392
-0.10370438481809452,0.40488842029112015,0.35685494170747156,-4.1334856340996,1.5081130171774861,0.7416607422617497
-1.4679504654728488,0.033368716353763705,0.31427758619019197,2.720736403534703,0.8498804569060573,-0.5044440100155592
-2.3431306317792213,-1.6804918401574251,-2.7757436769789985,-1.6205031299098955,-0.6429014795719128,-0.3344643453361593
-2.1415263237371964,0.8670858784661447,-0.2684353125242296,3.8056757924056246,3.8388854098169505,-2.8003414287788906
-2.6788207546828353,-2.478772488998963,-0.32841949262537495,-2.295043999081676,-1.4648105877543205,1.2676027255644673
1.5400817310689086,-1.9827560483507551,1.418657186671204,2.315385604154905,0.3648371699317834,-0.02475636595308628
0.32946670766167396,0.29657620286794323,2.377029172608348,0.8165063206200842,1.170313270836545,-0.32103567210401895
3.975024573808388,-3.485134546366057,-1.2999520773243505,-1.384635472941695,-2.508583565454991,0.039768092971164015
-1.0437400815278612,-1.4950353678453807,-0.05919787704871493,4.039629875091491,-0.6004232081295886,-2.684170981178962
3.245857849615158,-2.718981358598978,-0.7782727496516951,0.6975731834081312,-1.7601674809662353,-0.42393363345928026
1.101592325792165,1.5103309225305117,0.33384590507650097,-1.5081868139468957,-0.29854881259247085,1.3571289157909443
0.8518977172825225,1.3032719358944658,0.32891307251655033,2.6984183784785367,1.8491520729327802,-1.3842513600156643
2.0029403529919154,-1.766265862831621,0.01382432012110213,-1.9231365490692438,-1.5551342662805716,0.9320935282990488
1.4812387381995666,-0.48787401089753946,-0.8489272180415476,0.5324279513799786,-0.33582206304890705,-0.30042601996841134
-2.513478668157773,-1.7219473430064864,-1.2491309573915348,-3.20010708514151,-1.8514792067771237,1.2707929053530709
1.371081811789512,-2.141183363884756,-0.414965905667242,-0.9955392900561816,-0.6984442601900631,0.8839005889664959
-1.6009287781002268,-0.8915523090973254,0.42071544023040564,2.378137058921022,1.0484017433119721,-1.2639424057535107
-0.8239207151254718,-0.5177797196206636,0.4966061549426457,-0.7367162282871396,1.3139109173000523,1.5623771204703591
-1.9142223715377056,-1.7513719274670296,0.2665547900809791,1.433696123532028,-0.040185855437789075,-1.2520199385657746
1.227015500627552,-2.6231621127024747,0.23522059549128987,-1.0758118429678674,-0.47870839179495234,0.26747241987500275
0.2865478364268598,-1.8319107900932465,0.7175987739556473,-2.0013692359710267,-1.1715448529996246,1.6920485092578657
-0.48968480487825417,-1.1347558349138178,-0.13598483141177703,-0.29469478044718367,0.1250420996914718,-0.0936058962224885
-1.437763334107877,-1.2669655808012419,-0.2731931741423875,0.3926532927041162,1.1603073086247049,-0.46795191601595637
