Gx,Gy,Gz,Ax,Ay,Az
-21.917811999999998,-7.121398999999994,-2.923010000000003,37.562,-559.982,40.48
-8.88598418114712,5.096921327227804,-1.1089056789734824,0.9994305370341343,0.8187741738089054,-0.052207604791812134
3.955793490359414,1.510675094087721,-0.4019326065659282,-1.005264067349025,1.1543459125463915,-2.750756562727724
3.098113398180143,-9.140776852866107,6.215209023000658,0.9217799415688377,1.0630284343280945,-3.3879841388021914
2.145713273071796,-2.8073432977437465,14.061854412429515,-1.12240788154743,0.6755430687461457,-2.397566521624815
2.259974140558461,-3.9045952841925042,25.054215700533515,0.19395190286266364,1.364318389317339,-4.169485485858909
-4.0570620943939275,10.94049137197388,-61.72201736883475,1.975531046344772,2.0403818867831713,0.2886996994228701
3.9545642460881067,-2.3096115674328876,-5.624159240259537,0.9744623606177094,0.43314181111781136,-3.1671480901418727
9.900579982237087,-5.426387135496741,4.157089549691481,-3.712725723129838,3.362994834390718,-2.1310040202691503
14.477522118362849,0.6755868881836031,2.907010469333249,-0.9428854421413732,12.07729250122086,-5.372259938318627
15.455938272017807,-12.343667735674353,3.054535900455935,-4.798150496390516,16.575715206807832,1.2911929809659224
35.87788296403184,16.16499059167078,-5.400000198706259,-1.250524038471515,65.95608181688839,-8.393321077588237
-25.201962944197025,0.2633607260336177,-11.01775706617676,-0.3567396160594787,-38.179050592285606,3.162856046871756
-13.7538252849605,2.7599712884183,-1.4591200623575586,-1.841440293873386,-4.292674699156148,-5.094746891003357
3.943543054409732,5.858996679039982,-5.144015780580184,-1.7659811961318925,-1.7848250118304676,4.199450471331188
-10.64690019819871,6.199065109994694,14.097246624157252,0.18891869305849562,0.2297886208878156,-1.626403595872422
0.6913084251423397,9.542186493329778,-6.103876768479412,2.3613726393156163,-5.62899549756432,-0.8825549364800056
-5.408980682293334,29.981897202176267,60.525340605938034,14.391213714089163,0.2109254092314624,3.643923405454413
-7.410170640620678,-24.405193326881022,-6.247538912573947,-7.903079908386913,-5.637828820853587,-0.8666443675083412
-1.5497458956971104,-0.3169470690441667,18.142028251492775,-2.533500464473817,-5.77127607117187,-3.2353184067798857
4.419421096258726,7.715263040099911,-0.6415495286918942,4.074371971335877,-5.7789544870840235,3.780127921660777
-2.2411086918082956,-4.969367853205867,8.216657709657888,1.657766638189786,-8.388897279468756,-3.395910417489129
5.852707126078208,2.485928258653078,0.4937856603584059,2.642742836874174,-4.177814998402454,4.283125236185951
7.043051231919808,-8.968119787999164,4.786010503678427,-6.498419112938387,11.746661478674199,6.450727297512155
7.700578280057427,-8.558108559081543,1.4062174376651133,0.20307151959135883,0.8010772433019957,4.769681475968164
-9.86732719277691,-1.37487457714382,5.952501761460086,-2.637295673206131,1.5494737200903765,-10.038367538046591
0.1682350919620079,6.263816355525041,-5.132439415927502,-14.16674251658164,-3.11874617481675,2.567241373640024
2.1698992756747284,11.7334737209786,2.456221087173793,-2.2196765135242913,1.6353178091207532,-1.8794188405283099
-7.115181121634599,-17.508469309002777,3.67591301636946,-21.38516357833604,0.09023903799490984,2.1587040863799203
0.012852506655153957,0.2871422408065225,-10.003624940706205,21.548321400050725,3.350390177466002,2.352584347352621
3.45139428344424,11.564123574832054,-11.409623125953773,-0.7341458785159681,3.856284940480401,3.6713631452224904
-8.832193892197,-7.275880589760145,9.736169596180321,0.6442232767703852,3.897989800920608,-1.326362995452592
6.626102896822156,8.787550962547769,-2.2357132624102922,1.9309363298468907,-4.29094615275617,1.4862684073481471
-6.144225519017796,-5.463821833190474,1.5545962887477907,-0.3226899733757801,-5.087490671485184,-2.220676619418761
1.1716809199246292,-6.686701502146511,4.993274231072407,5.6649689032374235,-32.26803552388511,-13.870641350907514
5.067565735804445,16.183035162195868,-1.0581921577781714,9.326877072497913,9.61307617567505,6.855892363460922
-1.5519518768983007,-31.66155052676354,1.3482563563522263,-18.884584838127232,4.276248824419383,5.947367407249271
0.16229798960132674,-1.7526098136823924,-1.2208828409867594,1.475442457307116,-4.987991445595982,-3.6732591859146604
3.9193581717024912,7.764078292211678,-1.2800019768717195,3.164456307422576,-3.82692978633384,3.649479124753711
-7.321620533829861,-12.199572949614627,5.8442210038743845,-1.195962784125117,2.5915085470144854,-1.3271120068117441
10.770325444980529,29.5888675870939,0.4565564985010746,25.618252933332084,-2.545902479987725,-2.383910282779468
-6.901860100455563,-10.090609621006283,0.15377161340238354,-8.52316834415709,8.353022103195743,-1.8545663840889846
0.47064153484371984,-6.771969048683424,-1.553689874712649,-13.611207396290638,-2.226402107693996,3.479836741937903
-0.5261161900087592,6.834786571629842,-0.2344151557352156,8.575094464937704,10.401316603992122,-2.176821462300331
-3.1211539100974157,-4.359310665672859,0.33230613402105336,-1.965819791138716,1.047910493304238,5.496919986229018
-2.1150737462508085,5.770884090886181,-1.5350662523890475,3.1311215684924667,8.767352874826631,-0.37679777094019773
12.294712177968007,10.946334773350717,-5.904630064576711,9.821043693275396,-10.42800583421946,-5.2950581920436335
-10.602303187360594,-9.968301789755328,6.984413091814099,0.5909005228580683,7.151385868212123,-1.0802706973431448
7.821855517920923,7.51992292049462,-6.868841427883232,-0.8200420229709532,-6.7507707614104895,1.9275223920650364
-5.493517017370722,-4.800576940841917,3.808730886033061,-2.1742220793290623,3.494831021452895,-1.5864437343413158
1.449574468674252,7.523196936668129,-6.584902213396756,-0.42689771847732294,-2.653039471885873,1.3615058026636406
-0.24321281933807315,0.1776256019697824,2.3435148654227334,0.5591311074033378,-4.902019226029072,-0.5336326505365893
-3.2376819628488125,-5.6802624499501775,9.155419686464015,0.4825168539233864,1.718431745778831,5.150758380874936
-1.891314084413937,-4.409893695293102,5.827009859689206,-3.903026852682835,9.575884196245529,-8.374466880050907
7.2974816708107415,4.212168601776859,-4.4502336066131765,5.443923389168644,-13.093169252822957,3.056710959909847
-5.637355745307426,-3.2731368278902755,3.3870689916088788,-2.59236604096849,8.217680503926614,-1.868069399446805
4.235086142557304,4.715865611821206,-2.2226629210057745,-2.3629058470682405,-12.652383231097831,1.4673214382021946
-8.85032514023393,-11.292961390762255,3.3630405615419487,-4.355601410023878,-8.840532857488377,6.127285765876145
0.8597269182033789,2.210804895168705,-1.7161597512438331,-1.8646626544675597,6.718240922627292,-0.5094010314292735
7.131501878753624,-1.2989037384997029,4.31762090900246,5.977438127500062,10.685933070662102,-7.777449589829764
-4.3878525612670645,-6.044804328026003,1.0745231319009156,1.7561571752180414,-5.39194636339817,4.839884464851722
0.5330320812605414,3.461264528565619,1.5036441043331177,-0.6333122784065794,0.1700906957698316,-1.608682168802615
3.2273880331315716,-0.4095467876189115,-3.3721073614028074,4.764566988814716,-3.215219978101886,1.7561056703965912
-4.951656929521723,2.3625494076490607,-9.419020130510747,-4.384402808039708,-0.6105451762666891,1.2474202576559636
7.537858572934682,11.779001831650099,-4.645132404330674,3.5272596231777325,-12.399413612364212,2.562762280357434
-3.3999094762932787,-11.430230426634054,12.232789149265438,-0.2832177384071286,8.830065799784126,-2.53165367683662
0.1087013523243906,7.398028705746286,-3.2544235852053656,1.048409466873104,2.920255953007913,2.6858969222087543
2.4352144096483883,-1.221049692147265,0.7877093168116982,2.8367446801247476,6.117577860292559,-3.352893086393
-2.751903995171575,-4.477559106671386,0.26207528804471036,-1.1637842112881345,7.731459616247383,-0.7465518171645681
0.14973636588071215,9.740252854033528,-4.639977018316623,-0.4721897629875066,-15.364367764193911,3.8395097337329256
3.9774308382924657,-4.0643768844841635,-1.4318632648964897,-2.9755274987196807,-3.5049879816723886,2.982249311965722
-3.9207616996084536,-4.9365607791755055,4.338490505389959,-3.2676043311632217,9.566344151826547,-2.1185125247204906
2.9409123201598995,1.1670391697444864,-1.7913343845233565,2.960194784031043,-1.1499929192318907,-0.247078987158582
-4.161709464727311,-7.962146861039611,7.9445345235502645,-2.1045991714672194,3.8902133728713277,-0.9213260220364043
-0.24126211429527444,-0.21464695316022597,4.464367229634074,1.2242419743622355,0.7485168535515689,-0.795049853007264
2.219785741048594,1.63002570249408,-6.248419261071643,0.720931936219007,1.890763310332656,-2.342873833656089
-4.700603469676744,-1.42067535501024,-0.8064948689533038,-0.5527149515468333,-2.8280386734229417,5.904983671842459
0.22168134674368734,0.5158826982013679,3.0750993707495273,0.8203870506989721,-2.878627754593223,-2.752384709967547
0.39153693140465284,-2.097204156577186,-0.31943683361941033,0.5316209229557562,-2.237954909563107,0.16425090025412545
-2.824892287934766,0.30730154491270806,2.859486912759462,1.9249286110905524,-0.18081687085316833,-1.0582032768559908
4.216291212512739,1.2771759333883204,-0.37122468053914,2.2594817866754737,4.6428707801902185,-4.3290646647968805
-3.1966825683515356,-2.9539748824879224,1.1972098305608028,-0.4763142109086126,-2.7226514846288925,1.6891386959629375
0.2249885911186586,2.89944086829106,-2.373555025430983,-0.4244555025001398,-1.1458712973721688,4.032925059151173
1.670745128840978,0.9231764871044869,-2.2208106828455727,0.12352440544782803,-0.7522181155638198,-2.366644324498469
-1.3008312898465348,0.631273411802284,-2.4149256594354602,-0.14540402475980924,-1.2275601155213605,3.074771650592244
0.3933212242084954,1.0571674454801596,-0.5325894265297682,-0.45679740038591377,1.499746958806429,-1.773198102832646
0.8383527591025746,-1.9284031500514065,3.0670596550024616,-1.2479034401356421,-0.9261216951054212,0.44194880547031445
-3.386839017222852,-0.18667784024827727,1.6867185933172917,-1.4376393447547822,4.5140359013338704,-1.2888105312685094
1.1405969279131956,-0.11881926820895337,-2.783187753935064,1.6255673181374395,0.08418241662766612,1.533212765376084
-1.8670928631643482,-1.9006255461098767,2.8234722774505308,-0.9258791925001815,1.0763174266646334,0.7421183777802903
-1.0918123724572002,0.6288467905226853,0.4413374006653456,-0.9186664823412355,-1.6770790924853367,1.7762233293281644
0.8134191014584711,-1.99524351917557,1.353113377474347,-0.4144727200999588,-1.3257012128277974,0.0829916963438345
-1.2193685511228123,-0.26907302224312774,1.6046042822330322,0.042456412943041255,1.8930848614212197,-0.8764334508523679
1.1199382002587175,1.109002850702845,-0.49168528409939627,0.12166609798104278,1.1129670861681635,-1.983834286160161
0.8937570816541025,-1.0954341989237784,3.1669942479973394,0.07882146786471864,-2.2486042708043557,0.4724761061850358
-1.2475517395935456,1.1023745705396015,0.5154151932435654,0.6326426003709978,-0.025497879035856236,1.0709205774303232
1.180512503842727,-0.6599324390092631,-0.592815086926679,0.7745986260313075,-0.8914947619730715,2.0884702986594705
-1.6693399355933214,-0.053400114487777615,-0.13880073430757994,1.1227782297832056,0.6460520537219893,0.7126890426415878
-0.5827248171991504,0.7713345133867922,-0.2990706290937622,-1.2208221547536302,-0.9296988335347478,0.6386448266587446
2.6182262784198396,1.2960397172151714,-1.3955837343246227,0.5937756667839976,0.12479416276604804,-1.6939059618955126
-1.497222056439739,-0.39225227798177686,0.034948252519159596,0.9401523921647748,0.8939164128081143,0.3046335542204124
2.030045135012914,-0.9607718948669282,-0.4810622472142131,-0.550975332074801,1.9914224009391333,-0.2577993429517397
-0.06797000254920316,-0.5319108062649602,-0.4329330118826274,0.4376852391468087,-1.0118382859281483,-0.9402371118802517
-2.5345404026195424,-0.626356663044287,2.034357061153348,-0.9714251549035102,0.42101385643524364,1.1845783993690115
1.3049808682539576,-0.21070717171280828,-0.9411184492223974,1.4381143800099951,0.45254714828728715,-0.1748511249138344
3.0748558684759106,-0.30733627852899226,-0.5830092515189176,0.253365730774235,-1.2750487713405287,-0.8295628262022212
-3.2670964419873583,-0.07426445512292257,1.4073762753910657,-1.3906402810872178,0.9106086452502117,-0.4735681330151572
1.6861043513413856,-0.9790434373640056,-0.7686866558039996,0.6186853490056009,0.4697456237383094,-1.1197022969510155
-0.21169779087109847,-1.5457704681455557,0.807349986078996,-0.9895130452892498,-1.6086080366263018,0.730216196754238
-2.6020186901087627,0.6378323777130874,0.2550660090634649,0.8646094392433159,2.354220189774719,1.3710081675671728
1.239230075188531,-1.0392487979070877,1.103407977465096,0.09136735351334531,-0.833344115276669,-0.9786198774419042
-2.7209606951099294,-0.5973728045365264,0.4740555325972616,-0.5022580181778064,-0.9140389179601686,1.4407655688626784
-0.7653024765213593,-0.8108786063085736,0.3165547258608057,0.177545743133348,-0.1469190545766018,1.0427961453128742
2.0235903974615894,-1.6879462620713492,1.2338158099250476,0.11068980032139467,-1.1476264042924058,-0.7434689446906568
-2.8958552446803507,0.08582317580057904,-0.3930481080728101,-0.8706387906201751,0.7586498329740302,0.7266749608318736
2.2686825329962503,-0.7713584527985148,0.8999891744699329,-0.014864654783731637,-0.5414726698283432,-0.6246625281786969
-3.160710725105908,0.18882587369254983,0.7359145812263801,-0.004089546198945915,1.3056441295549879,0.14231329356720623
2.251521262241562,-0.5987084300455108,0.3492321529316506,-0.2832389020214309,0.4491850781090184,1.2875211234933905
0.5135256647063616,-0.045215153927474605,0.05366335287587527,-0.029925404584477622,-1.1411403527104838,-0.460328310232508
-2.9020376541935344,0.08541174575717053,-0.7811475642836702,0.2075352344241876,1.307676519826355,-0.3503067914988499
3.5463132225111536,0.6128923417470292,-1.217060560617485,0.12899429313129623,-1.1459908027540602,0.4446190107150924
-0.12347622614711129,-0.024651779730534368,0.6081034334598306,0.39746824186385105,-0.4264203430098398,0.47455373304959586
-2.191822554507322,-0.9801421020733752,1.305108990721549,-1.0597478354157837,2.179737747727051,-0.209907919245252
1.6817043118360775,0.21762979036717311,-0.661816106698184,1.0619658921736712,0.6105295130002415,0.050381295680866356
-3.355351086519957,0.16487546587059035,0.5436615437252261,0.5593313472315741,0.8869947547488086,-0.7799997969392877
-0.2783199842997559,0.15860962807057838,0.19705663502367074,-0.35095523669681233,0.04845127831089698,1.7945463193947466
1.2914805307907198,0.26501232376908873,0.5649704022416242,0.5060941267759351,-1.5809494296143616,0.3423793359514441
-1.3793345438534637,0.1577891155007964,0.5997435723340456,-0.6493779298514297,-0.2709313089783146,-0.07236792825198554
-1.9930286473484524,-0.4658922118628804,0.03886905434138266,0.29405358947261945,1.0451272615347007,0.6189277098598303
2.300364205446651,-1.9339496393776812,0.8760379257196356,0.21222214585839397,-1.225448158478731,-0.6892841876456003
-0.880049388949457,-0.6297806743821789,0.49881388307962865,-1.104936038491317,0.43267392332727644,-0.5802889955080636
1.8037988192295886,-0.4552329301406123,-0.24358936252897134,0.7228062017876625,-0.6153166918954452,1.0233714532290097
0.37721033085442734,0.10394842174067294,0.4616998148559215,0.07081843219715751,-0.2528557663822568,-1.3167758159490315
0.4051483982118133,0.5343832198213632,-0.6271456633912338,-0.07499509567733492,-0.44759089696396065,1.2517343862801047
0.5327500472668303,-1.384721856337869,1.2326844359967222,0.058894467545191564,-0.7823779999138354,-0.904914954944887
-1.0539696299176398,-0.7365467398578494,-0.5771347123183205,-0.532786706151664,0.3844132312393826,-0.08694457052933617
0.42010855490908766,0.1171142180708008,0.012804550839138965,0.11806637258938102,1.3574711998067732,-0.715265537981352
0.31926793003607706,-1.4294994216793784,0.1889494832609271,-0.2842163217898656,0.014602805766125965,0.23097385975527815
