Gx,Gy,Gz,Ax,Ay,Az
5.416713999999999,16.113812000000003,10.08669,6.333999999999999,326.856,59.24399999999999
4.306955859005941,5.572015773057597,6.8581006754607605,2.6946859290182323,6.781758216819001,0.7872870635824494
4.2385129629990965,8.642114151000422,13.426686878096113,3.1352982291671108,7.602254159248059,0.25156441021611364
6.13895504779882,27.26680220450303,13.59553762404161,4.558685772131799,8.893437649636008,2.3818811907909865
16.836734948675517,49.524035144864186,26.605076176734332,6.77956009600632,10.549640540448333,0.7905737200184104
4.466237123844842,23.89073047631606,8.164526734768216,5.721433962646619,12.001959373095847,3.9534807772200606
7.630609858377993,10.381630352745573,2.9137967075960547,5.554497925226372,19.29957692137439,7.987450254893637
8.669483899873876,5.612076903250438,4.457995449036143,11.67322451384782,56.99867374493044,26.8893199664404
16.034870788181934,20.580692422947884,6.68988408338456,7.21255307778276,34.18626467137928,25.229245735380598
9.836567211535101,4.525418208400066,4.614754385246678,1.986229956080718,8.589012399904407,6.55114492130092
5.465987618716849,27.155275400600672,11.812270196507487,7.862590126617916,6.611839591074547,5.486780185899402
16.259985285706723,109.98939304647912,63.514535261378875,39.68067003668411,12.002452006458752,4.0149475310119165
11.762237978231076,25.20287141566224,22.284478124049034,11.566305009578459,3.7159934932878653,4.620651245634159
6.41944779001925,4.211230787021207,6.8712468506127875,3.685450941746729,4.6067752806714655,5.010409762153213
11.46946133586074,23.793325548732028,9.868771819429352,4.074374649027578,4.8421488613601555,6.588297716953085
52.604271829158144,19.691789899710546,14.669637301442906,19.303309329111308,25.3583003942949,33.26727940293769
6.185540473150124,6.749741016867972,8.572230241406507,3.9407060014707347,4.537450660475267,1.9958761330721522
15.587701517236791,16.306435007818333,8.515293552692453,10.011322880473191,4.174158662683418,3.3348132895764944
23.208600600238135,17.720086916192937,6.571144251142668,12.136787062496358,7.882778983133045,2.82563477624137
26.480514229764523,65.77086634821474,5.661581150883889,27.834583313232475,12.261321557786912,1.507935591660691
2.285240120056495,8.564328830100417,12.02702594325217,4.160245837283897,1.8724747712160166,0.9606271799576513
10.671184464919206,17.947003452714128,9.679171618038819,10.196383441644748,7.978732835474592,2.4289111876097373
47.675101177794275,24.07707424822259,22.202953563117696,14.83761512129567,47.12027735061425,11.732323608215712
22.73538836918645,8.362939833159095,14.550808578310852,8.061921379929688,27.864790319621925,5.47088675580123
11.578276013708011,11.136399008509134,4.644839045614983,7.794746422619791,11.537845681515572,1.1251033427245132
12.699267315964994,13.626574898205405,1.8512146866129853,4.401293296261173,12.653594016360628,2.7171038426205656
23.676924314335473,39.35982620166954,20.504924284016962,12.975504885762179,33.298264385323954,8.23757603824197
9.64442091573992,18.23609439071331,11.306398077125657,6.632168388825912,3.330778760223327,1.520943320503336
10.738448032685694,2.3256019479440235,6.098097383349887,2.8474315668022827,10.464963971608395,2.9203007152607525
14.42310318700282,7.722839030650981,2.7129495099654948,0.6591157185829133,12.163787102133982,1.7661238457663848
41.74659228313745,8.454319037719475,13.188299972007117,6.951213330799099,43.62009844667019,15.318916387275811
4.605301650742477,8.817677011924523,1.4533414150840946,6.081730658663649,7.183378549625278,2.6014898638161594
16.678326414866856,10.617135496147897,3.8167116903163203,8.861631746967886,14.214119767759628,5.306365122515201
10.40078998312104,12.926949242929306,5.7645094165636985,12.509284780065128,8.0665474619607,6.661254444869912
19.31887280591584,11.59488459637361,5.931790719544443,11.092387034857065,17.835687835478094,7.270863406899836
8.021489607080232,1.934515530174043,3.1147507516259845,0.946088262496936,9.539903670832132,0.9956833694100726
8.691186153065212,10.000599304474473,2.507347021090976,1.2900217777997187,14.979676701208044,5.669993572394283
8.164183556309132,14.031052144737762,2.154845516931479,1.2119298367395939,29.326061250703695,17.050623913161676
10.94924753942125,11.500636499020192,2.9926916910410237,3.9930731750018515,14.463201777940244,8.611437780363824
2.691493490590911,4.114706612638818,2.1887096943709587,0.9921374765080657,2.7191679590334683,0.8308028777707627
8.153870178598275,5.051266678658339,0.27588998681026206,3.620672037459051,7.791400597109438,5.851682863845181
8.151868768347157,7.504912664214403,6.165638674627458,10.761075182217443,19.315948456475915,10.533027192376618
7.883848131379136,8.472479804397263,1.7412158572864578,1.394717879186674,9.338821762236188,3.1125071885762114
3.6738046902837347,3.693294428513944,1.3549022061326774,2.1061585824392517,5.426057389090701,5.7834268395107316
3.8515524914503168,3.968924362756949,1.7317378399546084,1.6555940851146842,0.5714008556336119,2.8753130116059116
14.23017175379631,16.348780540811173,5.161769923347285,2.37582524198851,22.073053520640872,11.854240899481143
6.987814241462159,3.264815026255672,2.01482542012276,1.5909861355059955,2.4341021336033193,0.4054926886428082
4.295356822199243,1.5778389263490946,4.153423741829257,3.787580325297193,5.513919989451188,2.3325876847637694
6.402221267664996,2.3554945874899222,1.9247677340681297,4.133225097263283,5.132334700252942,3.0298289307548836
13.977059186337964,7.435715545095551,4.046000528320512,6.909063736115151,7.863240749664146,2.621263135882343
2.0174704021882413,3.8322631006154024,1.745162773774729,1.2841666610743816,5.7565542137243275,1.8385943006130034
3.663539490801683,4.139469726552449,1.5815319741539073,2.1161080062143003,6.738570775660807,4.308730554962358
4.288046824063012,5.6295567619130695,4.734157191200067,3.0334142264793353,8.436252419119208,8.284159357856609
7.122533053741211,10.850585843981447,2.905236079511499,3.775584573778426,4.828388328583421,2.871076709635458
0.8562854900566169,2.9958299275206914,1.625628249764596,4.236674362470889,1.0993709979849653,1.0309505844915177
1.849123901180616,4.083560734439845,2.1768164110167603,0.40991631179280785,3.0220987707275175,0.8298221340858862
3.109762238991758,10.43597015226678,6.183720813318689,6.6121108733714005,6.552327662557428,5.3657786460604875
2.2402872499618818,6.899120393396453,1.26923860206149,2.3593605550953085,4.685802054575043,2.330321458352785
3.742560547547181,4.604790438998526,0.643265116743914,1.0564975354535424,2.007808476368297,3.290546985284571
2.074974557508522,1.6552338621352198,2.0514514554389804,0.3730723188822771,2.0675624993824275,0.9401583105608937
3.3572667349611667,4.575094648048033,0.5242829335225164,0.9593081055409662,5.0121681493683115,4.312860011783281
1.2126546477276525,3.7904677423591595,1.0521285103460416,1.5630694322931271,2.495852670637279,1.4724743629381583
1.633010733343096,2.609440259154423,2.549003145844426,2.305545625577697,1.8749663948624427,1.727560701385395
2.464792965945333,4.739460435168328,2.523312281847188,2.4554672821812398,2.020761619728212,3.3917426913347075
3.568684968830734,5.568550247278342,3.783095971569538,3.156565925297172,3.407966295515923,3.4690592770799986
3.0149931890258577,2.5664362518231276,0.7021167996084681,1.565755445962142,2.420467430400545,2.1658178794463363
1.5222044388731393,4.769410238080137,1.9393976010798244,1.5120774909839803,2.501823249198337,2.8004009024184136
3.9504369261889494,3.562220638279339,1.0630441021547157,1.219262086617787,4.5413524432479155,3.3108723478684396
4.4441086660621565,1.1943058699158617,0.6368782756325704,1.5547788231166804,2.8481515387469494,0.5435840634285438
2.2910983083919776,1.6459702475722844,1.8146350001968594,1.3084283797508596,1.5451853070845425,1.3256685356985585
0.5936447224222361,1.3371959792044716,0.9795186426408313,0.5229911360498882,1.728503634853482,0.3170002352411565
1.5449386589035499,4.235980589471394,3.434268697701162,1.2464653632621627,2.6416778596099357,2.9730693524667395
3.7360992936870976,2.2706652345941665,1.547739861146551,0.8698996831999234,2.6044504573731224,1.8009377000595714
1.8196449718106198,4.590780988868726,1.6176065216660716,1.3142169179823906,2.856346820229069,2.6690867630760944
3.142683095073143,1.3260368776103912,0.6177298966045518,0.780133550807553,0.6592982148693073,0.4280949572886761
3.797098794280052,2.5031902761542266,0.6511748347078774,1.499173552456302,3.8344694263895276,1.6372679977350668
0.9572743382250725,1.7250320355187412,0.6623594862411861,0.520379904707251,1.7696839085573721,0.7555980743726375
1.2169521789330322,4.098416757400029,1.2715725605647714,0.4067753076495344,1.7137178172443337,1.643219955923354
0.9818747350264193,4.064186674586263,1.3720174990921257,1.1460727724017392,1.6391932983509108,2.9657348027751196
1.2510024320739737,1.967236162077613,1.4992329786329401,1.35346690748161,1.6648063820185077,1.575295225976179
1.89179667222876,1.2316227637814403,0.265231023274354,0.6476397021668662,2.092077887985684,1.5876413560031086
0.7718024490457739,2.2876851567865675,1.3487682340602674,0.2243984299963408,2.010787111083779,1.6960735441466628
2.903600342851451,1.8531331930257304,0.6301154722552239,0.3302788770069547,2.640722555742673,1.818819337583024
2.126141817860633,0.8026737245068571,1.2088005801385866,0.4069671782169343,1.4925607564791685,0.3958518019967703
0.0,0.0,0.0,0.0,0.0,0.0
0.0,0.0,0.0,0.0,0.0,0.0
0.0,0.0,0.0,0.0,0.0,0.0
0.0,0.0,0.0,0.0,0.0,0.0
0.0,0.0,0.0,0.0,0.0,0.0
0.0,0.0,0.0,0.0,0.0,0.0
0.0,0.0,0.0,0.0,0.0,0.0
0.0,0.0,0.0,0.0,0.0,0.0
0.0,0.0,0.0,0.0,0.0,0.0
0.0,0.0,0.0,0.0,0.0,0.0
0.0,0.0,0.0,0.0,0.0,0.0
0.0,0.0,0.0,0.0,0.0,0.0
0.0,0.0,0.0,0.0,0.0,0.0
0.0,0.0,0.0,0.0,0.0,0.0
0.0,0.0,0.0,0.0,0.0,0.0
0.0,0.0,0.0,0.0,0.0,0.0
0.0,0.0,0.0,0.0,0.0,0.0
0.0,0.0,0.0,0.0,0.0,0.0
0.0,0.0,0.0,0.0,0.0,0.0
0.0,0.0,0.0,0.0,0.0,0.0
0.0,0.0,0.0,0.0,0.0,0.0
0.0,0.0,0.0,0.0,0.0,0.0
0.0,0.0,0.0,0.0,0.0,0.0
0.0,0.0,0.0,0.0,0.0,0.0
0.0,0.0,0.0,0.0,0.0,0.0
0.0,0.0,0.0,0.0,0.0,0.0
0.0,0.0,0.0,0.0,0.0,0.0
0.0,0.0,0.0,0.0,0.0,0.0
0.0,0.0,0.0,0.0,0.0,0.0
0.0,0.0,0.0,0.0,0.0,0.0
0.0,0.0,0.0,0.0,0.0,0.0
0.0,0.0,0.0,0.0,0.0,0.0
0.0,0.0,0.0,0.0,0.0,0.0
0.0,0.0,0.0,0.0,0.0,0.0
0.0,0.0,0.0,0.0,0.0,0.0
0.0,0.0,0.0,0.0,0.0,0.0
