Gx,Gy,Gz,Ax,Ay,Az
-12.525072999999999,8.019120000000001,-0.48494099999999857,41.07599999999999,-515.5339999999999,-48.327999999999996
-5.751452193178099,20.81473302908271,4.99747878389014,1.0424923769769676,0.9800013343401699,0.729500614803373
2.8296132089102093,13.855169964253204,6.722498896573965,2.2375459348278337,1.2850019896458502,-3.108244590332812
2.862862700044285,17.292216217726768,9.423387311986803,1.5990388623858882,0.3892307781491988,-3.6288150997756827
-4.379910618553008,30.77507900764683,-2.516458849878102,2.721506457564764,2.0231047825021897,-0.9383195514374312
9.205053096663601,-21.483306406660493,-10.572255642624766,-4.8637059954016495,1.0193296635340046,0.4889590861591395
1.3355039801917221,-1.1660703754980162,-3.8894332913535155,0.13238821898766517,2.6503146024803463,-2.301092254796334
4.790214328064803,5.36754856431005,-7.457926217860562,-0.5073910268406765,4.201325990671599,-3.0641719353900267
-1.831192685592682,-10.642603093005903,-1.7093167876671314,-0.2761631245407712,9.896598092758008,-1.9996834518799513
-54.75812907506104,7.442327703079513,-3.568291077862943,1.9798613370714333,34.25790883942205,-46.169986381420614
0.03365386338380283,15.287102292101514,0.8362703018084017,1.1830216953534132,7.204073460790434,18.373916908018057
6.210501300712802,-0.9420224896136422,-2.8591276465172957,4.229166782906379,-5.14844685977113,9.478576511734534
9.204772319648772,-4.966837509875216,-8.115453308323723,1.779369517240716,0.5308061147160248,3.7322258349554533
-10.085540854316976,19.280304596986145,2.6570959324946632,4.589745082873831,5.99187046343283,2.490805738961519
-5.427842703616383,-50.82976890161031,39.6300519569358,-30.774990115547205,-2.458498004813732,-3.6676836914171083
-1.9724863172825464,-0.4880753004740539,6.3425526282943485,-9.025788497051954,-5.98929723260399,3.528102187419595
1.8839435858466524,0.6593573432965293,8.892559868891855,0.3477845763800021,1.1152278967231277,6.061849757857887
4.153291577569775,-3.6816307460791324,2.622223637429808,-0.7054256436136731,4.636876435058119,10.095248786608916
-22.412900505119307,-11.671211981395622,-0.7461253348364956,-6.153592374682136,0.26328714255265595,7.126131142492043
12.07189119043918,4.538058086334171,10.673424410102998,-2.9652099689156417,5.894265198237061,-1.1486470314787862
0.9523126939695687,-11.4033097695966,-4.754689162071418,-1.0929844069438475,-4.711057500609502,-5.3737839698840775
0.21301600217368133,-0.45468520287252545,0.9031803725381271,-4.699564462332038,-4.560675330804986,-5.545640844472036
3.210468289554759,-6.78121422479648,-7.964274766810443,-2.4443188479600764,0.7015407174984692,-0.756768698531182
4.219049608798046,46.99509792365785,-14.364744016045742,14.744096314845153,1.710634633034624,3.6274051063410404
-0.19956216087013656,2.9654636140895643,0.6477643361753458,4.871906477865852,0.6729366051424327,-1.323356267931902
-0.4251676890942693,-1.5680876291071169,1.3790924014154093,-5.358040458798162,-1.9597297163370442,-2.2800500338258387
5.72416097493422,-10.66298093631114,3.0499895875019876,-8.130811904314063,-4.575099146371331,-1.6986186479620629
-0.8521998127034143,-6.398282869027167,0.7504783633251315,-2.36617886411309,-0.02808355505081772,7.864019043366388
6.278645172106096,13.089222977899686,2.03528731838477,7.348050302661574,-2.153378053274981,-6.301046505861772
2.073502554691196,-0.4649398809956553,2.828535021896591,2.6186094679557823,4.2081340208044224,1.8694356285500462
2.851360757226094,-3.315983432696624,5.989100739074823,0.8968412486946618,0.820004461073468,5.1000737233788564
-3.6033053702527824,4.199176487587634,6.205418460390973,1.6957287354214587,0.37544567936057804,-2.6408662408094425
7.932711733700107,9.738321892006384,-2.2930732463630648,5.645854174359296,-0.5895903033666124,2.3751686621879706
-5.555274141146813,3.5502970015949282,8.223517399626504,7.726641414686356,4.243704030071759,-5.566471453560319
-1.3767799025264407,5.154020009022176,-0.4558032839081142,2.987951939070357,-0.5931210063500685,0.03872904068871641
2.853074064242239,0.776223293761614,-0.09088427056255494,2.016272536693803,2.200052619428465,-0.22551136416892012
2.640844139221358,0.6775703930332273,4.272832437919685,3.41585915262895,-1.7635900424762236,2.1768487416739166
1.1941990512600764,-9.209364900383514,3.403892808006693,-5.2589469465228085,9.102097319868488,4.818846401151138
0.38778942697477525,1.2582973175569316,0.6927277924784696,2.0080037067665555,-2.6917158717177228,2.7838508544376372
0.018197128472916616,1.4292587528200649,-4.841043987264994,2.7571798170302815,-2.285036751117324,-1.5135791868556494
-0.8823612482321708,-1.8755144072141772,1.510735625091909,6.408515873263906,3.683716756097447,-4.261366155368012
-0.6078081829504687,-7.404742366197935,-4.687721997224172,-3.4526773621113547,2.609097426494509,3.8125361638395816
-2.998785764029428,1.4211202681155717,5.195862588525728,1.6508373117522857,2.1721819422494546,-2.0025054448208657
0.9996248223955279,3.0514465744595842,-0.19348317756298206,-3.4405625635678776,1.099268659788199,-2.2563954790627863
-1.8157533589315196,0.6492893592538508,-2.201471058757432,-0.33495554322505006,-0.8079654662669938,-2.0134155360758035
0.7906606392084428,-0.521371696800685,2.7477750003479837,-1.5392512353430012,-0.3661671097785519,-2.31104641694118
5.01465682654699,-1.9610110507358574,-0.5965876745255977,2.1583567767529908,-6.641094425189346,1.4594477560718202
-5.041573345476027,-0.14230210960247708,-2.102064335406966,-1.7411917980099918,3.1324468113077044,-7.398989817464921
0.1478238919386533,1.2575570417909898,-2.113846557659612,0.055502113471997405,5.812457548573901,-1.8808542532724173
4.724937698691927,2.7382332328677297,-2.91870770253263,-0.63575381416175,-3.9336300359885663,2.072606457965687
-3.778544544023662,-6.657255576704104,6.603722921937892,-0.6120490981416398,4.521066024137352,-0.34133835613001073
-1.7407836247062756,-0.5574571930317666,-0.038543014371685946,-2.7392706091362733,0.2107539322259333,0.36785576280499943
-6.653431518330561,-0.7568386295783138,-1.5551673736787701,0.18532081335884332,2.1014218235703526,0.7092083585572073
-0.23411016267614254,-5.274860188744842,0.536921797631513,1.0721068237700946,0.07296718540488098,0.5835415005123519
0.2695559232706821,1.269928505741695,-0.5183666619228758,0.6256307072913572,5.460711463204017,-0.0750861844741641
0.9013616333113867,0.7826444071478864,0.4777703664375822,0.5008796510661031,0.27194823225932274,0.32821429991790885
-5.575156586733017,0.9034718762851909,0.03576900565256813,1.0946378150379312,5.723861682033788,-0.9615434085665671
-4.02768305179608,-2.0174389659188496,4.100936826410452,-0.9831702212179533,-1.6419910408496345,1.2583307790331428
2.0817616014846037,0.6750584385628493,1.0206382441151276,0.44884158197092217,-1.3505398515599139,0.023399203051380213
1.6130990446854503,0.41731604612593465,-1.0691896385069848,1.2663405024534033,0.1381494076001184,0.3197620643979501
0.6904395612970519,-4.059097219264601,-2.2442135897556144,-0.5297905139598891,-1.2888713454473946,2.5740706983804684
0.44378107992740645,-0.31110107600904646,-2.731010707693454,-0.016952782718630655,-2.994081085318461,1.712840445811248
2.9839819622433343,2.071956064355045,1.2652010201076163,0.6663574375275545,-6.082649106212767,-0.156853992277478
-1.515927350971972,-3.040730600770159,2.5744471946935876,1.5437764412762673,-1.409374198240213,-3.1724988574433315
-1.7187983048012738,-2.5360493220237963,-2.481039206796654,0.18983123014426478,4.018562860680557,0.14932235443936326
0.8313145726017231,-2.268489340975823,-0.2033273410377554,0.9513655434217132,-2.357268232211287,0.9974657058491841
1.9988954317059215,-0.27241509079603266,-1.4312800672773274,-1.1682023687770526,-1.3787958032460783,3.1766381053324717
0.26285597370175817,-1.5577865805751916,-1.6301914705793916,-1.887434475497764,2.053865592996622,1.6802435154538418
-0.4755181628757924,3.224575754776472,4.037108122198376,-0.35238227095234254,-0.6430212713597081,-0.8999555397302493
2.0645118914074425,0.10963188059255002,0.4782545849335965,-0.26336663686230455,-1.6119602048836656,0.7544749801212614
-0.849539703995394,2.0478528100047897,4.089550432260423,0.0857718698829625,1.6166741237158122,0.12280002160769136
-1.2938152175551998,-1.9692402426276308,-3.9315006814341342,-0.6890661084723313,1.346026263827074,2.286414597303919
-1.5047443168212484,-2.4326541782936424,-1.683077461933511,-1.9864297985117223,-2.2394064262824114,3.58164163565224
-0.05478562354560934,1.850162365186316,0.2726923328133358,-0.6018028464487916,-0.03150741641632593,-3.567890019372529
1.3404983638525834,-1.8215085869575693,0.3785225442601729,-0.9961099512062819,1.0372026879759735,-0.7727850340782534
2.2040554617849457,-1.8224805759795104,-0.6013316926895631,0.34808501722567914,2.1549841882510443,-0.6747161544802908
-0.7909797628870464,0.28998803427457087,-2.6202561372077886,0.7727097245681673,-1.9298510439039804,-0.2520398027850258
-6.549329244460079,0.627028573967863,-4.8720806000645975,0.058254377452994166,-0.24711190477053793,-1.8148988519111604
0.6920156747194415,1.4584319967088768,0.5404500223641446,0.05431309011637664,-0.3561300892844768,2.3956430388797267
-0.25102472807578896,-2.345402692870857,-1.8537916442848226,-0.04059981933241319,0.2248055863077656,-1.0639924657118958
2.1471953561239525,-1.4865568824223026,1.6032363308310862,-0.5894976471274311,1.6272314032124149,-1.1774577456017203
2.1583828687942983,0.22772237281355645,0.8374771384895962,0.7019352480753264,0.9133337667922521,1.2746249951935216
-2.962724662178375,3.2993321503144077,-0.4768065592019477,2.3279331595558967,-0.04890847595346037,-0.1432954116179388
-0.09015717902544759,0.5978200334602818,-0.26024243246573037,0.3407776994724826,-0.06623598104939857,-0.960325817182492
-2.7788049777215713,0.3008894023095805,2.217470340932873,-0.11211208006121914,-0.3753685250999526,1.5596005763644318
4.602463306264173,-1.0556096620576991,3.733956057894227,0.6011725349414533,-1.3114262992344934,4.626734084522429
3.14117938894047,-4.146322793769976,2.2847291108382217,0.2430277187243871,0.5353304897074975,3.8527310674123045
-0.2889342669721813,-0.14592172674122394,-1.5613291287009792,1.3014381360809204,-0.34848772199893263,-1.0500172192763149
-0.3534080238031835,-1.0189853011222725,1.6708136155866966,1.05059839216149,0.7920632272838354,-1.5074854974314111
-1.3207962195429788,2.3493708549572747,0.3137217692127092,1.4533098943679383,0.9504548537046305,0.21160607587352342
1.380181626017049,-1.9809973771441483,-2.180237654418501,0.24322841442258086,0.6462817619564516,-1.4056690743738562
0.08287106142254186,-3.36971572383922,-2.107440519050535,-3.129812062012633,-0.07565754059919427,2.5574590713437706
0.7998372851526362,-2.5271371059333134,-0.017084023004700567,0.47603452306173344,0.6217222551021094,-0.7990744949708712
-1.1729020904896938,-0.8596052388300722,-2.264663766812753,-0.560302459799222,0.8661989100416394,1.2711547731287025
1.4175357123829997,-1.196949994711723,-2.011912961798194,0.11779992081378804,1.2999677710775526,-2.5780795161019987
0.9129411291410461,-0.3221130918971432,0.8387437142407499,0.5123942524966937,1.0476056556866058,-1.4606539027366738
-3.3191240596880354,0.11031931616666402,-0.9015643504364832,-2.152895761714683,-0.7821528655429668,2.1840346530582506
0.08431246465891029,-1.4679780120363597,1.0349024351945935,0.4599869260096553,0.4830538983246833,2.5200639374257223
-1.628401210683469,-0.02723490550330493,-0.6489564498447047,-0.32906785495133395,-1.383823024565833,1.7406665319577528
1.7323353174256582,-1.9398555869115264,2.564555969936874,-0.002085732581199602,-0.36512794935586323,-1.2735574497871966
4.159599477868434,0.4144773506120858,2.452420542552954,1.9666502362260039,0.4715015895102389,-3.9971911274621523
-2.213418675248512,1.4218495385275771,-0.71123740348203,-0.9674018115829408,0.06691560753683984,3.8989411170539645
0.04435344964315591,-1.012244786873923,0.6937353344836183,-0.4912473492561985,0.5758664567808293,1.0223024682188182
-2.561280978932545,0.797866634743385,0.3814488683116884,-0.3198512554242672,-0.7956809644114635,1.021236535431211
0.23402335412806147,0.022613809119161832,-0.5589939431985309,-0.12283079133909103,-0.9842262229925913,0.90590510684719
3.894578469285034,-4.326610662190695,0.1382289808432263,0.03346323128739931,-0.24388985350706432,0.2069706042512387
0.06917796034512957,-0.08265230348519059,-1.2389250324230652,0.006716590108311937,0.39537146897048026,-0.8841347695860646
1.1644253696798155,-1.5098772942617873,0.3239715576764546,-0.4020275128402227,0.7355805732593236,-0.6723824666124548
-3.442548559037668,1.394085239496297,-1.1127998359533666,0.2052352484656841,0.6573053700392996,2.065204270095295
-1.793855664597698,0.719170991149203,-1.6109600955762695,-0.14399766360286276,1.3060239710085682,-0.10152745375566558
0.4972359342108453,-2.41959081300493,-0.12317981488111142,-0.39065825092942585,-1.0969673048287536,0.21492326559789554
1.8046971829285228,-1.2235014209826733,0.3774994095253167,0.35176326432984023,0.05623162277087644,-1.064066843435662
1.2306789239295282,-2.2858170740699704,0.15939111664672853,-0.3925138090696785,-0.5100781886241051,0.2195626546291086
0.7848445567087521,0.2518295801983318,-0.24768456073170117,0.27440315072481314,0.4164885297823212,-0.3927031495525896
-0.3724126897264566,0.46582354296865613,-0.20321134329588367,0.8030158847591375,1.7327874938047891,-1.5029254063323219
-2.3142042206114444,0.3237301306433923,0.0025826522130721896,-0.7877426696110313,-0.5534965109009302,1.1054166890985895
0.8200160659923178,-1.2770132621192816,0.3778572560708291,-0.3129171812017854,-0.3293381287523407,0.12397209018689073
1.1458876385861358,-0.5177591954816902,-0.03471729029093229,0.01664192558313045,-1.653871240065333,0.21164047654611445
-0.8400113614019691,-2.772365897468284,-0.04375052124978385,-0.12239715285094485,0.3992101030897897,0.1468248957255614
1.4843143641853596,-0.4697710688068992,0.6285220972620111,0.7733737562860218,0.8501450167847837,-0.5099512122232355
-2.1489006388295797,-0.06488740051227726,-0.5507281135832192,0.06841867186869045,0.6284434688326234,1.3230696247386098
-0.6515987049084462,-0.2924523948366612,-0.1932091996137996,0.19410691023203513,1.0804868469899322,0.501917269270899
-1.3700908373439138,-2.869882817561945,0.06080595990582606,-0.85779170931012,0.8535172918832209,-0.24304828373151016
-1.9012203454854872,-0.16667559658890688,-0.07542306117716506,0.5179478067246213,-0.4016897687703865,1.0301780014680268
2.103008149308487,-2.1759221950797594,0.45643216939913894,0.5150931443130322,0.8285396494565301,-0.35772252002032895
-0.4665499093593699,-0.34191906198489713,-0.0029600045667545344,-0.2574408409426918,1.0767060089358502,0.9031072329811503
0.6146981621073001,-1.248589569153899,0.1877478041617961,-0.4953856198228617,1.29530835722347,0.4011783094074888
-1.4816332809159736,1.1709333418212649,0.22156012159147603,-0.04100544323320633,-0.4955403056606678,1.0749685752561997
