Gx,Gy,Gz,Ax,Ay,Az
-9.402045000000001,1.7723330000000035,-4.8952509999999965,25.68399999999999,-434.25399999999996,40.059999999999995
-4.313686715136458,8.96772347420672,-1.6351496161522048,0.22684183293132026,-1.426070266113375,1.4934033624922978
-6.17025914022378,1.3496436988335985,-0.4036859606605688,1.512468869956124,-0.5715853804589798,3.3942500100878843
-4.958436600858058,11.96673418710941,4.673765737410266,1.7664277982294556,-1.662549557728289,3.1155519496129833
15.170873501101799,38.380195501904936,-34.02982625502244,3.4845319368604506,-0.62141067934544,6.262176505046282
-0.39703368544725937,3.9030336811993793,3.217600982358616,1.2315100044965974,-1.335350060490563,5.880053300384975
9.252303519021513,-3.5827242322074824,-5.61153738757276,-0.4894703927881245,1.7498878517599512,7.797140585820417
10.596738449930731,10.453910969261406,-3.3370644468265533,4.558569780138272,9.79969092162457,3.8399189299571765
-27.760754001950996,1.8080550443961823,-14.417802992487257,2.688608355664783,-16.519500690793155,-21.23740763430393
3.8626003936643274,2.7715056040254287,-9.662533010505651,1.8329457379742253,8.196860948186885,-4.1627772898038
-5.678889626674598,-1.5686772450019486,-9.536804453123615,6.26239498760076,4.959142687000432,-3.5788905408152676
-11.518325384435107,19.371978633624472,2.6885577713904496,7.248049694296132,9.35116864077749,-5.844610498870903
4.491204898149845,-49.53736996207727,9.995405430342887,-20.061673263240376,-3.1824684558424936,5.528814534027641
1.359019831911863,8.121752069710892,6.785849616543486,0.4824200283539122,-0.6665370279696616,2.739548318083805
-0.4382403926698818,-6.646467861913852,4.355331059996935,-1.7525708599156715,-2.9669188609179784,8.196551940798873
-0.8694183916547138,3.710737969919119,5.400830076153872,-1.4243042050401957,2.4851079252979043,12.367700703521459
-9.459521476051064,-8.555821686579218,-4.138109723740964,-0.9499730365963557,-4.119212345640772,-15.976010096955953
6.95354437197072,-12.826493215957292,-0.7462230754732778,-3.8134134485814917,-0.5325794869459481,-0.5841768580684141
3.8833791092120187,-16.7901456970373,-2.661713242613347,-4.74218233198906,-0.9599898279682892,-0.9810864280908618
-3.6483143140184775,-26.778538218014262,3.176850157141146,1.4227937476245383,1.8295062123329928,-6.149750106928658
-6.148395815987755,9.625408042668575,-4.387558598379534,-5.665495283245535,-0.15869741634037365,1.8945323070497593
-1.1595247197412697,0.8243568666167747,-0.1553848428486304,0.2742696808318257,-2.4189538399850172,-5.054331141177795
0.7556738815321642,-6.181457053376412,2.219862728873975,-0.062265079534291834,-2.7012174484598055,-3.9245673116633273
-7.634259277306918,-2.281552016799805,3.7416820677324223,4.513699832556445,0.7343038817869862,0.3685932746693936
-2.2553849820501872,-1.9352121454733695,-0.9082607655990201,-0.48651163348303395,-4.525478217170557,-4.955980238906407
-3.068669725103985,2.300400110665442,1.231549652017979,2.2716703743715265,-1.9844457224863563,0.9545896314616098
3.6460790884567293,4.96612631297034,0.012319343161046659,-1.1796471333501555,-2.6371297921869425,3.7246536475191165
-1.9381823903696769,-11.547015718649796,-2.3869786952009378,-10.064094786194914,3.8877787284775294,1.9556837139756844
-4.400657079586482,7.026662455675261,-3.8484083144984362,1.6413319988392177,1.5564162406089448,4.795685325859431
-1.14358322670688,3.4649633331318066,-2.508805868212235,1.2124811765135988,0.9366401955278099,-1.2248474828586393
4.326555241850373,3.5692639483518738,-1.815765874394816,0.5242613919298821,-0.5906139174171228,-3.253904077434853
5.2600979544164925,-2.5785659592013483,-5.939684613598888,-8.158480716029821,-5.864517171822878,-2.4920080974526964
2.5976485963504143,-11.571624023667791,-0.6853539119795756,-8.456749305109785,5.351849372522989,-4.231144878940492
-2.76977387506143,-8.963694034162717,-2.9765412057237794,-5.59647888667803,3.330076458586758,-2.7364978715832216
-7.5234143693765905,-2.276056607522654,4.559950540153141,1.5261929699573022,-0.630825170894405,-1.076749505480543
2.449467666146322,7.867125221431429,1.0542864366485947,-1.7670281442017146,-9.54119077262094,2.512325813216494
-1.1394016814010757,-2.167143966665015,1.0654998817361219,-0.0957632904391194,-4.739586520538535,0.12281073079431293
2.235651491160956,-1.9731603238725903,2.100531924921655,0.1335968532826719,-5.6028484411494075,2.7408370592769216
-1.3908705578217728,-1.5109481025168372,4.8491936692152375,4.507278196278831,0.7696065345830142,1.0541402852412312
3.1683356676396763,1.453766862140287,-2.156030505841532,-1.9077629048663838,-5.666455281512886,-1.5818920455796623
4.943399887498171,0.24219119660114963,0.47204972717494753,-1.4318543301356013,0.656788711964932,1.7003105221678008
2.12340022306559,2.426075713502155,-2.7045123120185153,-3.760623124493189,3.21003503465609,-0.5019955778850923
-7.9978488720855525,-4.581955867088917,2.5918149591258315,-2.0359032486368487,11.742293828844424,-2.7157284417242327
-3.970989893075345,2.9011920334741075,5.020414589895426,3.686004520443382,-3.446173427352277,1.514688897607944
-0.7268291284316487,-2.850960505308268,-4.960308178973878,-1.9768214966083077,2.061592677676241,-2.5930962593861913
2.2267540668224273,-1.0453419484592479,-1.9288417607755861,-2.662587899602184,-8.998168591723296,0.3803332727290284
-4.274509656764629,-3.2687383458062995,1.6579546890257746,-1.451517226115913,1.206624709778343,-0.8756323319584323
-6.536832073589457,-3.0951515256498454,-2.0545905035193286,-1.325041055571744,9.28655462348667,-1.6418512862602201
2.895689958392012,0.4362885978420561,1.8396000460729187,-0.22546427208964967,-6.534938918562191,1.1949740974388101
2.320792701072478,1.5561531084709186,-0.2914360044032831,-0.8542694824367505,-5.541776632667684,2.1666816644146243
-1.2973571690713293,0.2213387933580413,0.9060595653332553,0.3102014709911329,0.3743086398398696,0.40451063290435496
0.1270621120542474,-0.3320517499617016,1.3636770122883308,3.4746174385849304,-1.0295629135656903,1.7425807839298277
1.8668153396993812,-0.6895319364273877,-1.635011410317741,-0.3306278277422201,0.5060958980519326,-0.6795140982582641
-0.3042592863234618,-0.7867944835224948,-3.159472706994029,-1.4518605611351947,-2.3245537016876336,1.4213335343105853
-1.4940534091887603,0.2479888216162025,-0.18864768898494394,-1.2989927115526843,0.01038256668506533,-0.5635293225545428
2.4321428619015837,-3.759135256653091,-0.6555181672203219,-1.817140704919931,9.64238491576046,-2.8073572477325097
0.2645033503535298,-0.8249413344088596,-0.20068775217705415,-0.102723081936209,-1.1857635082471703,-0.027408323343393715
1.4477569350759982,1.8994686493516348,-2.88831808709202,-1.3224693047434672,-2.3301470456686215,2.6769482961260938
1.1085575426554422,-0.313528163303078,-0.496716745765558,0.5791346709679915,-4.275048773921302,-0.19248347604418942
-2.6057124916271284,-0.5887268796996477,-1.1458611699021586,3.553599796319914,3.32868727645373,1.3802550152345883
-0.3657642107535932,-1.499688407594848,0.5949834723284229,-1.7769448300265986,-1.2292596316661537,-1.320449840709387
1.0958115819231804,0.5696303278903353,-2.4334604248097853,-0.7900842263654997,-2.0658807985195295,2.634803079785201
1.5696119776183572,-0.49339817058489416,-0.9077305955917082,-1.6390294528823444,-2.248056638935967,0.4699731136094455
4.35077276484065,-2.867835510838774,0.7523031172838377,0.15874740678867427,2.2982923779962534,-2.2193266161947793
-0.9220497497222035,-0.30407651193654606,-0.34900565931725835,0.17217172008944753,-0.006503709361935506,0.8386215066330542
-0.9816865154499517,0.4328724780411741,-2.6287437126769992,0.7666126892576919,-2.7988411163717686,2.1301088134750708
2.189381575517288,-1.3888276472339227,-0.28782102650165725,-1.5036320196775044,-2.9343238237458005,-0.8986831034449664
-3.380331051002343,-2.099011655832647,1.4103973869788344,0.1574690922298245,5.231124248365792,-0.4066223632270286
1.159019248184368,-1.538690006130133,-0.2656413199776223,-1.5985018014634795,0.28438889210348506,-1.3152662744204573
0.06843441174817544,0.19306822367341664,-2.17537954942151,1.1332529101466244,0.5978537758203786,1.5136463522241814
-0.8862270699407412,-0.40422415379952614,-2.300006572970316,-1.3287418898254826,-0.10516423412008802,0.11026534354864856
2.844609821341702,-2.6511799436311616,0.9587761772430464,0.9267760021650661,0.575989861286952,-0.7145848680837781
-1.072426026280711,-1.167355136731046,-0.208699750895182,-0.6429816495876877,-0.5806965775625546,0.511951031707385
-1.0034881949379482,0.7463049279399677,-1.0879674960043961,2.9762006882326477,-0.793740282004509,2.3255453806140287
0.9577276641030772,0.06649059704477911,-0.5945104418705986,1.4654262441371377,-1.0636256484191449,1.1265518506784662
-0.8803463923068362,-1.6608320276024988,1.1098126191024942,-1.9508072156876333,1.8614892224237234,-1.0040845218794323
0.6277506439158107,-1.7608704789179337,-0.18453867956997602,-1.5138978292351597,-0.3948104594936483,-0.5086649484808087
0.45157485327957303,-1.2028967078681514,-1.195741573179878,0.03454648228205412,1.3653993126806165,0.0352752038287798
-0.7817370253659556,-0.4824417042897025,-0.8505720412062173,-0.6204659206014687,1.0660311374800877,0.21557583411640002
1.7345426120224121,-0.6499431075328254,-0.17170490345479164,-0.10063310314417216,0.015477016280811606,-0.21428430105508403
0.9260094083722206,-0.7369145838649869,-0.21815958794261153,-1.1234413021251108,-0.7027524259816051,0.010696222442492846
-0.8427410705295546,-0.9786603590252824,-0.46355910347503937,0.773659511475104,1.550996904872184,-0.4310327346344984
0.4945459648362164,-0.11228279783821837,-1.9725322551396585,1.1081984519282928,1.1674477390333327,0.735221050639808
0.06785529611794544,-1.2347649542433095,0.37198586628358554,-1.869480302846717,-0.018363353708821487,-0.7069329266064577
0.2743576116345497,-0.8637394948393282,-0.5901148149142685,-0.47759700591691046,0.019668244049774165,0.472743266376912
-2.2664626036301843,-0.5574954677035017,-0.31127706323118015,-0.07750027225818092,2.0753998897594697,-0.6957842088136998
-1.084097438921218,-1.5021539697277926,0.36177752202486824,0.11249147007286156,2.096510525309978,0.493305889643506
0.5720505920526004,-0.3452600084625256,-0.18882164893136377,1.0914736447534075,-0.8264823696469368,0.6869056444541723
0.9628493138433616,-1.2212334779128269,-0.05140969382844261,-0.37054851107419395,-0.581441112455424,0.6427240738724194
-2.191616408336508,-0.8715683625873928,0.3156821167617914,-0.5151164344514451,1.6465738852851195,-1.5035039359987028
-1.8482458583454258,-0.8102665601526329,-0.9480158977105071,-0.39925066252825964,2.9156210503717674,-0.7649335254900804
-0.17217997937859322,-1.353746057647554,0.3892126389446336,-1.5764856397966605,0.501385013374586,-0.8790070023162944
1.1860109915582782,0.1349000633526357,-0.9067805172122516,0.42261922815046166,0.07076474522251874,0.961208553985792
-0.11819433040065175,-0.6454069360067581,-0.09714081124946938,-0.3290346506169958,0.3775991616521955,-1.04620318627097
-0.787141367034635,-1.5918605994490147,-0.5352261571457388,-0.526705799525708,2.1014085229029025,-0.25543434465574405
1.3910940488961108,-0.755030728372479,-0.7046670496599822,0.5402515464215955,-0.9137903765679488,0.022594041907606027
0.36995187735690166,-0.6913415097956941,-1.1491848928094308,-0.07917118756512061,0.5685914619117435,0.5466002431992336
-1.218394778712262,-0.8732907312496601,-0.11872516340386867,-0.2906322195928887,0.2772369761710766,-0.24604319007041972
-2.5375029147305983,-0.7517457925952108,0.1241023433686122,-0.409200494595622,1.7664654170572454,-0.2079649649257518
-0.6765075923101294,-1.2362946883058956,0.017418455655960122,-0.8414386094518164,1.1321807119288283,-0.0034467992474196546
-1.1234768431885702,-0.898787321849233,-0.4832099180402544,-0.21185172292660012,1.4985517115468177,0.649625214072144
-0.1596367720100858,-0.5324273940308795,-0.05345543202386166,-0.4530955201275193,0.3328117093908419,-0.41171703630565293
0.21867511388538474,-0.8727501795670047,0.21334049851166512,-0.6513284629533347,0.9705010466202586,-0.43259869556943126
0.2507850321910259,-0.324452258026119,-0.6225713389946582,-0.5207724861431093,0.5597307628592986,-0.5152427917556612
-0.5907570516920195,-0.4358881783086951,-0.6885554607994059,-0.24930732919675153,1.3289184124977602,-0.24302515164179564
0.4294255136150857,-0.9181784986077671,-0.60365296997669,-0.3596321235192726,0.5293133914895528,-0.22174506939457822
-0.8513286145900469,-1.0785889202044463,0.40444381561723164,-0.854283881813227,0.22524267792081118,-0.5474823231805919
