Gx,Gy,Gz,Ax,Ay,Az
0.7610460000000012,-9.238368,-0.4953619999999983,-10.792,-464.04,26.672
-8.034528100861216,-9.19068879838423,-0.7380126896794983,-1.637916519112692,4.572505454130001,0.8011765411485992
-3.993044503872431,-11.177731814362208,-4.86059157442988,0.06477194742288139,4.707435199208672,0.6175115542786292
5.106223115067299,-2.448867699202122,6.248236850656774,1.0096592053836049,5.304554632394289,-0.9463803372783264
-14.317701163277693,-77.52850750001156,23.215980686086233,5.536388511010287,8.578057881392544,-0.5764867844580758
-9.132735094613873,34.81602522944979,-5.57306017724022,-4.408370238187805,8.227139415204975,-1.5754639529720407
12.715435353109795,2.982611589884541,1.7592138349910507,1.7849813123517446,7.53841553568118,-0.6503214685200649
6.026905215277006,5.4083581219689725,-11.185727621414507,-0.7907845983467847,18.282769782120127,-9.092931965107628
-5.071245230508084,4.865493445407848,-21.578710029278753,6.878493358399945,56.875938516453715,-13.219211924224904
7.031095713421789,-9.43682319012866,5.097475092457579,-11.128018816777447,-36.75711712745088,10.427462957065838
7.107343550773685,-11.996140966031367,4.643351259477585,-5.399005291641969,-18.696700414845367,8.914096379566132
-0.12225968295343692,-12.060847260437738,-9.629781853109986,-4.693583684646022,-14.599785227051253,3.598849971862017
-14.619955619726404,4.239792551619217,11.486404385570522,-15.844796986204488,-18.274841959106475,-5.021048537438152
2.770537921402624,5.185757438444832,-7.203784252975239,19.906184356969142,8.198700878421713,4.599000755657816
2.8968103710776685,18.301889213837317,4.348182296297364,6.040722990423271,6.632344229064806,1.7346082276118986
1.7481262122244003,-7.779493726139442,3.075902801671721,0.12484257091544301,-5.5579446300620265,8.025400039381516
-2.2817762389866214,11.858839642493532,-17.32329620854383,9.925642439059478,-13.125296098678653,-3.127620606246277
-7.289294400907347,-8.236865432957337,6.921438197622491,-3.269834372334066,23.205377290547144,-20.062137485646964
-4.803482755600035,10.52960549436444,-0.044685907725759755,1.9037275406766248,1.665370372554761,-4.148235192564951
-3.3932841594587364,-8.935707053778925,-4.2784367480952925,-0.5769034509864326,1.3091466669315954,4.362878453000814
-5.024714887688056,-2.9782963644401406,2.11899260936605,-6.875652800858666,0.36022939520418257,1.7097165181850706
20.378069383105572,70.40082262913535,-0.09578794197837581,2.583845609468416,0.6367230951275175,0.33922238123834536
3.9788714599894504,-13.916864350597809,-10.120379705664279,-12.447601684847083,-2.6403512030887963,2.4311013464209448
-3.4408462852484574,2.2892879647481035,-0.6871888413180542,8.994132686870246,-4.01637689397024,-3.2903576795678675
-11.325537925607538,-2.3462853614415975,-9.309568064506024,-1.1154566341831227,-1.0493090766690572,3.4816205453128393
20.571891707605555,2.5105782074798197,19.775860489960046,-0.7828347219045837,-26.134655032024064,4.0470886480944035
-3.75490902130908,-4.136234937125591,-13.68899874862367,-10.641949955266593,7.222056965252985,-0.8504383665247692
-4.143170938652714,-1.245328285723948,14.24508397581648,8.97724755046571,4.150306107521576,-7.070443617253002
2.1089058612651135,-6.45195042963479,-8.506877529456917,0.7540899566761414,1.1886530917083427,0.7285618057921962
4.85362211655415,-9.837771643804576,-14.665851128751035,-11.090639718192445,2.2983651291970597,1.724986870582949
-10.253875965466166,6.987548586472711,12.848090543522499,9.085871540855628,6.8573931618697,2.4145883113913054
-1.3950097091019917,1.3705663160565855,-4.43618719964622,-3.5417468731145556,-3.823373862679739,0.7896982864660842
-6.557444928028942,-4.0714215190685135,4.956211470550411,-3.378542261428714,10.200287849402184,-3.0060906297611263
13.044877310758187,-0.4369041481388112,-3.3494546363418003,-7.757472940567467,-10.695241270148484,10.128815915747836
-8.299448958233649,6.214318563048758,13.757436274420984,9.644739769916098,8.370024168609069,-8.282598265137917
1.2207618956418564,-2.4767317375895157,-0.8651051375917886,-2.0391271645123266,0.2362434156485227,0.0440018976118437
-3.7889902407254517,6.954009714657258,11.015140448295668,12.49369316383496,3.1028249573130493,-0.9872193360638195
4.654560764397589,5.6240621927606025,-2.17257563434643,-3.301874142115068,-2.6535294861590764,-1.4711789698811564
10.226291831366062,-0.4920963254823083,-9.90886820371848,4.785379265935889,-1.9076254786202895,0.9130564099803435
1.0983973724206426,2.5236449088173725,-4.008473986862189,-1.546424693084593,-2.3291544827219157,1.106801477599065
-0.1402010816725272,3.764942709326916,-5.041415386788941,-0.8878507643221636,-8.88351177399459,4.292190677326191
-7.270136750765457,-3.7567484919812344,-0.672878641628178,-1.9581063687842413,8.618779719991167,-5.186915279957488
13.042381441763803,-0.9334617846922502,-2.6772825913247615,-2.196664133078967,-17.410098793437903,11.745457432754698
-7.632052379517306,2.3079744611431328,2.0305962804049846,1.9193534616177663,1.3498287131697317,-2.079677061601264
2.161001416979775,-0.941290740330083,1.6071869918498738,-6.37359542479795,1.4649862337071982,-1.6309429183096942
-5.40787148652129,8.13038821023111,6.663192587927587,1.8569806561767879,2.1141766249613947,-0.9694857214012436
-7.382328542328311,4.274514279460519,3.95772313477919,-13.160113547768372,9.06745012194752,-5.8922575476489945
4.140833768550681,-4.843680845950511,-0.8138588887452451,7.124816393415896,1.0803243272373906,1.2615222707827907
6.760142146135916,-3.843585670394332,-4.058291996292977,6.528515028660512,0.48330449975754597,-1.273231864687544
2.5003268056961194,-0.541252684422239,-0.2460238167703268,3.8435946299131913,1.8678140717576381,4.9565629026261515
-2.8118271433963744,-2.1772152869149974,2.655475650988565,7.22083012226976,7.051383063107274,-5.2298790713323395
10.513686959328739,-3.7865639276069203,-4.4416677818611845,0.818752132730787,-15.71914188349062,7.7309974421734635
1.0566139745258076,-1.690221700402058,-0.05264005002760053,2.213134069660936,-11.053806768248505,3.150029551730334
1.6589905824541686,-4.832867960401978,-4.126627831953719,0.1986109214046694,-2.6693346954920365,-2.657098644602099
0.7125466109186354,-1.4139893417583616,4.101842508318295,5.692585019987035,-4.601027307588921,5.900666754165553
-5.306846550440963,7.874386266846184,3.4572467408670176,-14.674793057581018,3.9927663364924273,-3.4408672744562043
-4.32912752214739,6.750523228786182,5.567742345649628,-9.38823092584704,7.154553293845697,-1.7763415526334239
2.9207393954009877,-0.9556716739362424,0.5976607871793086,-0.5137070991847607,-2.050677374640658,-1.2421703797120875
-2.7931629349579348,6.768325013379727,-3.5157012882035965,-0.3620629758466918,4.762898806889655,0.9990800730721352
-6.327874599209786,-5.856420178733311,0.6042150200195753,1.6198342302185653,15.882018591697197,-3.5536910020972137
0.021303073307034605,0.40736013545177396,-2.2930796158570756,1.4025729043112567,7.193205860959818,-0.36192694824688587
-0.6569633361848379,2.191790145015919,0.023070543547979216,2.5965694147916913,-6.183993563911486,4.106664454540342
5.239387836475268,-5.055115190526124,-4.614529141467992,2.2724101456442938,-4.439957052762374,-1.8138855805871645
8.804318424706036,-2.723023022075581,2.7175405413421587,13.479696972830684,-9.703441557790681,4.033570323413177
-0.09773824896118533,-1.9899854071124805,-2.2637282034975907,3.2296934071506884,-3.4648773985124155,1.2491669422966605
-0.9820385280412978,1.5033706186993268,3.557040500279649,-7.051532197037734,1.4210372261385336,-1.7138019664958335
6.172885680386395,2.079630769088288,1.4456440919484317,-2.7560703782993112,-11.858489148905736,1.2827163588311183
-5.00373084161007,4.590493894494914,0.11833860607364066,-3.546229875078195,-2.48783899938333,0.09329044873796999
-1.2226433687902354,-1.7495168396238028,1.3971274657167783,-2.5478014937258457,2.1234868312508706,-2.5302111467082415
-2.247310556110071,0.8280031699105896,2.755476360150221,-0.9177964904947418,14.647703324717632,-2.54447674976249
-8.791892313150699,0.6033584783312116,3.5421811227898834,-1.821101039387826,5.866932809989719,-0.19685819216905664
-4.7090102621030745,2.286724765783082,-6.323340112911002,-4.7342378225561035,4.3470217461596246,-2.05955709811912
4.517468211830867,-1.733298521577999,3.462663609377138,4.122214010390888,-2.7357760640069424,1.6472987454097006
4.176901849360581,-0.6302842440201515,-3.8569321643416608,7.190676479695937,-1.8638696944581752,3.5328040363698654
1.189447304787177,-0.6572314876007814,-0.9517774648138735,0.14960545857964025,5.891112991825542,-3.6317651291395916
5.525542481344672,-0.40592526328880085,0.20801206832290253,0.8944557616010751,-7.046436165265938,1.8294464086827127
0.8145660815933258,4.251907897515377,-0.7489945223977037,-0.40077613442740356,-5.128192517592602,3.218523481148111
2.0237468048702474,1.1733350036555583,-1.6603566764091915,1.386261836171276,-11.666455997889681,2.5473250714789755
2.82681720370638,1.0245657838390894,1.3646146549011289,-0.07051146057804347,2.354462054084286,-1.2497948137389925
-6.096887183535186,-1.4839787205295751,6.4008952734745055,0.5605185879642041,4.381500292241871,-1.0235215651729708
-6.5449099303256135,-1.91709337679712,-4.040997920976762,-5.545924278560269,4.811153446258033,-1.2938841646680315
-3.139779315224393,-1.0095884246733804,4.343687469986268,-3.440181201746444,1.4386935626237038,-1.8581953126515256
-0.0552722306766269,0.9920491528035258,0.021121662897237714,3.706189207791314,-1.3485326689328871,2.7501228885745617
3.0396115603653735,-1.4434614414543658,-0.6503337774115647,-0.2695813596591117,4.606483427354236,-3.430948647410611
2.8740486775760523,0.3873550601836361,0.258715863052713,1.8836657464449442,1.3440534836421518,-2.3775484404885514
2.8799512789658297,-1.1700470880140943,1.6820309054499962,-1.0479598771526923,4.472893084590236,-1.4812211045854324
2.782884939013476,1.0605723902987634,-1.5713391169674038,0.661034809579736,-8.08689526654431,4.4762504241578025
6.139500287789369,3.7688489171932362,-2.516533764719433,1.539156665049748,-5.054183283357616,3.689864975777963
1.084675026307555,0.594893278120153,4.543343583493034,3.873734650379232,-0.7492615386959764,1.3176083230523732
-0.7448514320818679,1.2400670465818948,-3.3976865101827443,0.5824405323443247,1.2265065207236132,1.9649271370149535
-3.5129530680373495,0.553448702295207,0.2684032090144597,-3.955398040050965,0.7356453921299995,-3.133915318825247
-2.782159212703115,0.7614765121473668,1.222252926289782,0.7623829466394201,-1.306091678782587,3.3485593696934437
-1.4810845951585623,0.307198203404103,0.06988842590440969,-2.0452082691872904,1.2273069717849778,1.164018028801755
-1.0232597430260955,-3.375691416070146,0.6458881918341954,1.0392197587748266,-0.10415153166089441,-1.45996887528369
-0.06419197238415375,-1.7307184831969322,2.4182303523392417,-1.9809660705400116,6.202447707586441,-4.226426765021951
2.1814395560915743,-0.4020347368965904,1.0688575306622699,-2.7002607398673497,-0.2079949750012613,-2.130590083408613
1.7439606726835448,-0.8084354890838408,-1.1795536418490973,-0.27458557756757074,-3.106210110208892,1.3785348193400337
4.951119522961305,2.6932091222249652,2.1519014804804923,3.22368556270054,-2.6115156627753624,0.547964552178865
1.538472310990779,-0.3446548528967077,-0.42101543435723926,3.4018193638966165,0.7924440051058559,3.0039149744432048
-2.7156142460460693,-0.37771306466621213,-0.5571822533008557,-0.41228041195420784,0.7443582505323452,-0.7099658355627576
-1.6133010198596782,0.6752043836203325,0.9252849515416055,-0.05150411677704839,0.5050637749623306,-1.254130448296092
-3.124715282996018,1.297704160030208,0.04100696295012468,-1.9306318759213261,0.8065499208280066,2.83639443461938
-1.1095723904761408,0.9094743334177364,-1.5076699324866205,3.4685359356051744,-1.8206343025818894,1.8686085187699826
-0.5503955319920442,1.0102588688081746,1.0333049693028873,0.6408072345167308,1.383179242066358,-0.5336091724775833
1.4445132422137457,-1.6680230187059448,1.8339758306476843,-1.7363547710112608,2.796259012176239,-1.690401970212621
-0.7660523410161689,-0.6432747046097333,-0.9882597896393912,-2.354107557967862,-0.6750668078242942,-1.2254838243321324
1.45570153124034,0.7309601883425272,0.8867765492155808,-1.756237709824722,-2.1673249052903802,-0.5316657062104064
4.653576323926034,-0.687966089504825,1.214794835064405,0.8599109711690849,-1.8112685503775903,0.8126534500578806
0.38635350342137176,1.2935748230288107,-0.7175231313014876,0.8639538717650626,-1.5426538308154871,2.622321962185797
1.356556726863423,-1.1049757434047751,1.215639358748803,-0.03713985385217922,-0.34856102981206205,-2.1532244321850333
-2.5954615818074136,1.6358548011674237,0.3642707356764531,-1.0679612358138337,1.9077279628595,-0.4743780909632773
-2.3384450302336535,1.2932639924079443,-0.6212752423058718,2.6345169858409245,1.0726628836563763,1.8230560632868462
-2.2934887618703694,0.19576216847157768,0.04005824619389786,1.1227280277810947,-0.7238160838735641,0.1610574577065378
1.1015339892241673,-1.5321371470421818,0.9164371500968634,1.7080219621573245,2.846696687051346,0.0911489769081073
-1.6651631961635949,-2.1395842078211946,0.36908262515196477,-0.6406803005510249,1.135703874712036,0.515423703309384
-2.4497947114631233,0.9600860872109439,0.2675584465222798,-1.3556429074148197,1.0640256406775488,-0.8542915506945996
2.5004939795239927,0.3505416726175287,0.2500360620902138,-0.3815998260763427,0.35455559641870765,-1.229461817982739
1.0953245855983176,1.2942115090245063,-1.2188302069096606,-0.5173547074896507,-2.6403605000966,3.8182774972872204
