Gx,Gy,Gz,Ax,Ay,Az
-2.449788999999999,3.739383999999999,-6.292907999999998,69.59,-597.736,-65.298
-3.5063139215241685,-0.1632851056224825,-6.517222149053531,-0.7926597402859995,-0.7830591512256305,1.5524618767929916
-3.132196598348164,11.86363105238506,-9.801072911306804,-5.120792718497661,-0.4064390200375773,0.02300239971584167
2.58578185475486,-4.940961967765941,-9.8311200938705,-1.9157722644246957,-0.6913398020269184,-0.34343115234077515
8.208944270147375,-7.654195740722733,-14.213518116417019,0.36626742019255,-0.30092450383242664,-0.6044912337490624
5.950995915713598,22.006434379784324,-47.272570426472626,-5.260092972021117,2.3310249032354977,-1.471914265363014
-11.583392896243469,-13.315623650724678,52.371156799828974,-0.03161624673704353,-2.141381314358564,0.8059615712750203
-7.147954454727483,-29.5588495086095,17.023818338684052,0.9130784034859648,-2.2937008391308438,2.0678016468213416
-3.9195083081782047,5.972823697542098,4.767657008351969,0.16466131331101533,-3.910593578508588,1.8494922816916701
-3.3920290775984037,-12.353007865147168,6.790713445111585,-3.971204635952831,-6.054372248373654,1.928718906398647
-13.407020871980293,18.969460434981876,9.894769476972728,-0.15874054022458872,-2.2960615833872495,-5.581699296591722
-47.13661113202981,-9.315405946571506,15.277607525891941,-1.6017341819842454,65.1981878759329,-28.029217439987356
5.93334654692511,4.545145377024509,14.73344073392171,0.4996906855195483,-6.900009288492335,-2.1619504317565648
4.899509115329177,-8.328249230462587,11.194046973291421,-1.953467141542436,1.2352376509566614,0.6921686679404349
-10.703647179314492,-16.793485048672917,14.254679741118794,-0.7295050623162418,1.142171636177175,-0.2145669456952698
-7.272021653823894,-21.319129433195112,31.275102867126648,-8.456313902208334,-4.852355028233166,-0.6534395249023852
-0.062123639449819246,-44.67230234031374,64.23895500802568,-24.634004145186623,-4.8528830634549225,1.9306227608245963
14.14681914253276,15.442634454248624,-51.06930915240359,15.904676757197615,-2.0449914325291116,-4.626600221162278
1.0413557926896568,15.348913463263994,-11.724086473930832,4.394210200136037,2.7896939888432124,-0.9254290438162309
1.9181654502485583,8.609403473729069,-13.577138557012525,3.9989187734710945,0.6891082570512339,-1.7620576008345408
-7.598422269631077,-0.38963701035138554,-7.119337623857435,-0.8858074091958428,-3.365262439735391,-5.18518630189563
-0.7617168310067646,-1.8137920097228324,1.3052246544350075,-2.9627861240517004,3.8804738362666886,8.117830091278151
19.971021163047595,-4.249614216455823,0.4525307112617025,-4.1383053603006115,-1.41563556439518,20.884607386351142
-4.1880363573272525,8.607709973127616,-3.736539616700997,6.572679393781699,4.321771647989611,0.44332021860289594
3.8543357397433557,6.789403951857496,0.15564751509870792,7.634207935940607,3.2584507933236693,3.7518994521581486
-4.470878219961889,5.3047869749180965,-11.59608853822912,7.736576380249387,2.3110241828416926,3.18331888503747
0.4670261205359365,3.126936023928483,-12.391706918558127,10.804219687113513,-0.14909071288180153,0.6980086535885865
-3.7055419405985983,-10.484715884877101,0.19299950202320737,-2.6431487926558646,0.7283147454055723,-0.7634764170700716
-27.89323987631125,31.74277778932835,-10.901933672591483,18.537899309564942,2.750263519453033,5.515526391361869
-19.047421850435732,7.78420423956468,1.9946314844676167,-2.280062978380809,3.940398098705549,1.932671396946322
-9.660945413649708,-1.1285870111258802,2.930053537424972,-2.926647728438975,-1.4294657673679034,3.140176385016205
-11.980506736600136,0.1071963644841123,-2.0777492185449415,-1.9726627834932662,8.275639278693522,2.9089123096918006
3.7784405227185367,5.293544447966973,-0.21916800545692294,5.835741047993785,9.2391572891021,-2.9396754229230884
29.85041860329839,-1.8186184880535623,1.2852976545491488,2.1538542188757894,-35.752179584927276,-15.774945336734948
44.34477582111598,-0.24985799532102526,3.511573450835888,0.9605400060480666,-1.0634411962567065,0.8304859555109796
16.577791158742038,-4.232669334662879,0.5746167053786548,-2.3606849979668114,0.62135644512277,0.525653532529162
1.8496648518721686,-4.955048656928481,2.7062270816845535,-4.918945642164899,1.8000547342968867,-0.7640705857993628
-3.5430315631789826,-6.07992065607818,4.995969567260407,5.809776888515311,8.155888944218988,0.01039347954856007
16.54846607403555,-2.8689353581461305,2.4030371003090236,0.8774908325278781,0.227595988879169,1.9927563304766198
2.4062162709793826,-5.817998775524062,4.27480903504184,-7.0319860323043395,-4.714512037646542,-0.692782073796403
18.015522206236135,5.023817931480196,-3.7111878068436677,1.7828842813050305,-10.57446020143959,-0.5519210375264364
4.826263749856826,0.6110422062521372,0.28252805890820165,-3.646499528459407,-9.189058673452172,-1.6491530104308703
-1.2891570644967119,-1.764331781320083,1.1657348179429572,0.5647359593579888,-3.3017634293950007,-4.001476816406431
-8.920215882747868,-1.4838757903795499,-1.3906678149160618,0.2610201159213212,10.49547048600015,-1.5464140180907628
18.014677777323953,4.196099860344863,-1.5921953856252644,2.329784936837439,7.625332779170043,7.370522771117134
-25.162802422049232,-1.7006713033936722,-4.1839714653300595,-3.479536849734257,10.776766250669457,-4.7844848030518135
-4.39217083294864,0.5784858075233301,3.0262950123588688,3.6873054133311807,3.3501569496360872,-1.149096060073927
-5.931426125554319,1.7328906369920514,9.241369097662414,1.5995089296266825,1.1810871889493404,-0.23847805942063
6.782908577169188,-2.8061443446914804,7.546618981771271,-3.34975846243025,-2.9164009053650997,0.8834556836828393
5.852478712464554,-11.79614006238221,-2.6925248703899767,-3.2705519291547986,-2.4369317291024215,-0.6382693504539023
-19.706989710293218,10.907044430657335,8.333237114454743,3.810451182951014,8.64480790321127,-0.7511839925167105
-5.488790213750864,1.5063787970980826,-3.8492603749355085,-0.5451111033939362,5.889726399373328,-1.6678180158365759
-5.678922818042151,-1.7757469442261196,-1.4091404862855241,3.0543942666654096,6.8877754804710225,-1.6009564963063299
-6.087626558666088,4.0403485166488595,-2.819558274081629,1.2207146877459705,1.1140208015314292,1.876376287430809
-0.6445107661254605,4.5629491674949785,4.977430127843333,-1.4532958231862894,-2.6657612869032157,1.3504545774462544
1.4037886976795408,-1.2761679820615393,4.449094121627501,0.1340913572926063,-2.7384600539785984,-1.0069815429201137
9.058507462943224,4.523136966777359,2.440790798422137,2.069806665655154,-1.3935111481587947,0.9660382638290465
-2.392142065355068,1.5918546877109252,-4.459608842930161,-1.6661771922790778,4.439443661612238,0.2681538000848377
3.292326171818069,-0.6447500742950478,-5.177831199057374,-0.64686575342885,-2.547683810389443,-0.2193687623634369
-4.5600420551955185,2.8772310137091814,-7.136906028825962,1.8958702992312724,2.3999924341488805,-0.9534394198433028
-2.944368613692941,3.2548071863566044,1.4819955119460149,0.43741927325011704,4.98302016383938,0.8036589458788549
12.290073094068372,-3.485173190616836,-5.630093462632617,-1.299703466986132,-5.000111234249473,-0.28993025711375486
4.066492362132841,3.987035265655403,4.465630615117013,0.9470699751313295,-0.20026055662146547,0.629997072709701
14.384640405920756,1.9830682302548495,1.7907804738302415,0.471699106410993,-4.431055417925871,-0.38245846660484484
-0.4856774915222111,2.2399110506467976,2.6721392420288415,-0.47739627810234625,-2.2499379251922025,-0.03840028130253241
-7.649019211326646,-2.270664266568221,-0.8975870311152722,-2.180843102515876,2.2202156599719953,-0.35648545555691774
10.24753618347774,-2.0566725898197893,-1.1831893917188907,-1.5860148851788138,-0.2125929767306427,-0.48460283761823875
-1.090307305089786,0.4073269443983709,-0.3720481922309137,-1.2203403111620816,2.347517415048053,1.0933870268999024
-0.9626223597898922,1.7341232137760385,1.1641159206504217,0.766469236849138,-2.834053922719733,0.43509871705507797
-4.75697487012459,1.639004317540319,1.009510934826632,-0.32566088447894015,2.352788882218581,-0.752655771153755
0.6180236606028175,0.4118849782912751,1.3302135917901172,-0.12457555697157219,0.15597654892643842,-1.2027365302134845
3.375076557084201,1.4990850420210107,-0.12483948787604116,-0.9880982444642497,-2.3319528059270995,0.7292962695736208
0.08586760352104422,2.04708698925958,-1.7984191471341449,-0.6630478566948204,3.0130229191688085,-0.5643944150809446
3.469503865394071,-2.3293309751218985,-2.4109415548704805,0.4050834865517666,2.4007652998356828,0.24290048544982695
4.692517341523316,-0.6321991596416869,-0.6049426465913476,0.051545746832706185,1.1191881029284518,-0.07802208926509809
4.781096634306624,-0.03849109444742287,-0.6535025166526266,-0.23890385059759411,-2.1719670952521577,0.9359702225078317
-2.505086514155675,2.692673544549773,-0.2657658068977749,-0.738069921648594,1.6123475730806565,-0.9397523959792613
1.3266306575920719,1.0461134567827564,1.0140033575495904,0.3019330400427622,0.042539684794950405,0.4674734218522324
-12.468316449618492,-0.42156065736305975,-0.46423565668404254,0.06094419523281558,-0.884534887407163,-1.9054839711297746
-0.6582589744708839,-1.166402792902792,-0.9124667758346311,-0.45179658344257945,-0.11619322705858653,-0.4803002144450783
1.7676756635502004,-2.2788493634007785,-1.6630004069596749,2.075548796851614,-1.6943961119522453,0.8011580885692035
5.297822421086286,0.7953526415148205,-0.9042388495908161,1.7024621795961046,0.19443609811033385,1.4926191995609694
-2.32251249508669,0.9533547254026783,0.21835107982956664,-0.9487335878975303,1.1857975888231542,-0.8273148148069737
-1.3681219731620051,-3.368363788812929,-2.324057060295841,2.018723279175121,0.31094794982187335,-0.724698752660535
-5.472663578912461,3.800330689644792,1.779833785264523,-1.4831990592141286,-2.4227637771324697,0.26035077528908274
-5.400473428375557,1.6766748353362044,0.17143402258680573,-0.6042671564555799,-0.6321206731601475,0.16015654411352234
-1.76310441897005,0.31110194951961134,0.7433880181631222,-1.15137371274903,2.3448840653284067,-1.218099388026333
5.0744909034270576,-0.4757391157319757,-1.0793406237429788,1.627194414547438,-1.048543565456166,0.3707459459065037
-2.8052420810157344,0.10963030655561398,-0.7988559805509527,0.0914009589387163,0.39269280960718234,0.22538139146891212
13.592650510391511,-1.385145926709922,-2.0511941817553225,0.13099592764418658,2.9687411962458214,0.4017785776656687
1.388002819037958,2.4537467042630166,0.4792206596737828,-0.3440061711912361,0.8034707379859327,-0.047575957292319115
-1.9664851845978164,3.108988143892942,1.4397480161117755,-0.522677269509698,0.1807738752362163,-0.6260701291813052
-6.58464974261325,0.9074407437082503,0.225297706647279,-1.1711629765600369,0.4164771126035997,-1.2731746507469777
2.5610837259853834,-1.039062060008752,0.044344750510444675,-0.12837577650147114,-0.25784354563008594,1.2246803685472458
1.1027246221173805,3.0362479040550743,1.0696580604839865,-1.2497863575119743,1.2507427093474752,-0.20023399351089202
4.900798658345657,-2.097106517801759,-1.101253971619126,-0.0024925300262786942,2.317362196690533,0.368352769981007
3.6642709910925877,-1.8867582418300046,-0.5417742432289414,-0.21535763570673006,0.7068826873083893,-0.833674051937983
-2.2525357308301643,1.9647080597102715,-0.01607642440949359,1.533995179896378,-0.608881479298525,0.6251632911178931
-0.906934329029609,1.0569432738733786,0.9114660596557265,-0.6032124269233766,0.768801279679942,0.8698395907218215
2.683820343106725,1.5625379472332301,0.4846414825409998,-0.3034450491931201,-0.4602274092411606,-0.1485126338740417
-9.223999396268542,-0.06490019302589974,2.581617877270615,0.18510205047608846,-2.2082877988312912,0.06065845789034306
-1.6969761723868417,0.3298571851393991,0.0028706918581644647,0.2733720164297788,-0.23794369153496459,-0.49867495580775995
1.0045648377674403,1.1034080348913247,-0.7158712098455166,0.09484682602654784,0.9084495483889385,-0.12866755798444862
5.428446499825327,2.093032340261306,-0.7217129382052097,0.039446933943097826,0.019539675240025034,0.4241773713476258
-1.595694347204928,0.32326971172466545,-0.14232069702301084,-0.9740329291919737,0.6256277696761804,-1.6568907774563673
-1.267964916639492,1.0016515889309996,-1.1631304623672936,-0.054128145236252645,-0.18948487547601212,-0.4836814977415321
-4.162148225135945,0.6592500679905439,0.23644787955877303,-0.06717991820714453,-1.2970155095592213,-0.5857978697501159
-1.2289533158825021,0.2543365209312044,-0.03172317048394054,0.6726869846422253,-0.7119776393349296,0.4889273041564325
2.4086147453239946,1.0158927931065755,0.17947419690195288,-1.5213424476972564,0.22939494097757895,-0.19056229371400135
-1.2282790791277185,2.0312856940693096,0.14575320746549472,-0.2010097135791935,-0.17816525252750465,-1.429888511017542
-0.7909341710602641,-0.7030365170600468,0.14591971369052625,-0.8141370470552344,0.8861578512693581,-0.629802016111766
5.850531357272142,-2.368237624294803,-0.546595376617153,-1.2689588858778085,2.1689820621521854,-0.66605135632281
0.38510851283781633,0.06588727757382584,-0.366824235357559,-0.15106600884672602,0.34194836951188345,0.8775692991084251
-1.5891755146472,-1.3183207328199296,0.7926307468480055,0.17766183062758814,-0.537000663252881,-0.11872063830395957
-4.1248476782798456,0.37821497200951487,-0.19460718617122635,0.011636747260081959,0.09442031032249047,-1.006515977557527
1.0502320514062453,0.9552398795232693,-0.19864518449060267,0.8700306406261724,-0.5647095189616839,0.49672960233759217
-0.77546556053993,-0.5306046924876734,1.4974715912141932,0.2909056342762842,0.38513044163590493,0.34621422770485044
1.2748781105027813,0.06865934321554948,-0.32941244573278106,-0.8973046871794361,0.914074920510257,-0.0484817611963467
-0.0869511304757078,1.3831729095376595,-0.14845295782428214,-1.103497282684134,0.23147747774282504,-0.05250266615482506
-0.48669127977020876,1.2098866842689175,-0.9194599963589047,0.9776831741943361,0.05813002411751822,0.7206918423238755
0.9614234927566696,0.007460832478684676,0.06537097684414489,0.29701321416761883,-0.3665132148193169,0.9564858471210792
1.2751044914837315,0.2094436737984363,-1.106909056131143,0.8291526061336312,-0.2775746679325777,0.5267579677818104
-3.733734664180439,2.7015641366856613,-0.8186597941164656,1.1481901891228001,-2.0461673902219912,0.410353039176372
-0.5454255336907275,-0.5510052149561261,0.22699213333401255,-0.6421419463620861,0.3006287630958979,-1.2664226753134664
0.8817413845858868,0.6178462143118677,-0.2582802318106051,-0.7496385785795705,0.49016033013273586,-0.24232694956240963
2.015832850734958,-0.18730548172932743,0.1252081600536774,-0.13882384813852158,0.1686540800250998,0.9159452615120335
-0.8034323994804359,0.8898017507298339,0.3014532957435859,-0.8036507000369432,-0.25434648421385,-0.12761534920150813
-0.12095919859905704,0.9291870597613067,-0.5153193433699466,-0.8876049822427149,-0.1764101208831128,-1.0129869960612607
-0.16952048247227425,0.4197819835371647,0.03594223033209687,1.084262933465209,0.16691720260418627,0.5908532934447186
-0.1249893980798799,-0.41018907172813646,0.13796326064110864,0.9914722394779086,0.18086527979705058,0.22416274769557865
0.36921374861478895,0.566942707486193,-0.1820115336735399,-0.4404501810692054,0.22585151246001417,-0.03706092977023778
-0.15012478359554216,0.5784374991866047,-0.12519308853088512,0.25157508945022267,0.22720117279833194,-0.00044415379422091394
-0.8271516465567778,0.6459625449945309,0.5100834795858398,-0.819389619094231,0.19106380674062506,-0.21237728490907432
1.0557865161545652,-0.2300322712715026,0.35371279269079065,-1.3642438515330837,0.8164081878252136,-0.40877359471608854
-0.9975218594901095,1.3980417613345082,-0.26190921444551973,0.6503628304289383,-0.4594631188108381,0.6891339304193269
-0.46318407501326075,0.2618811561834269,0.2564054543647021,0.6739123832680183,-0.15915813521142827,0.19618217329395896
-0.8627774710983764,1.3626164195005446,-0.15935978620771346,-0.28841440469266005,-0.14767386211583322,-0.8662288912664671
0.03259614335789598,0.34375930738739807,0.23790718311953118,0.06837384544789037,0.6736422241913862,-0.08024018672987923
-0.20412626533077732,0.9350192518485879,-0.04882356984768323,0.1039461996831463,-0.3424941606633572,0.7888148729205163
-1.2476095949759114,0.8818377559755202,0.36770999014744077,-1.3921916070763536,-0.2936031704416955,-1.1759434567247484
0.2347471479539222,1.248751056525053,0.4344388185782054,-0.73725725545291,-0.3819276621050479,-0.3704687230228427
-0.6945615235853396,0.20309080685221365,0.6135462181842772,-0.02447548809997835,-0.16856261410407236,-0.002265326637743925
-0.17866468949752012,1.1682151174847322,-0.4242964810126466,-0.3237867611986569,-0.05657344319092741,-0.3847725959030177
0.11982785519575713,0.7109859242302806,-0.36620007920331843,-0.2025005802471841,0.14809244640803104,0.442396394552151
-0.06809589708004593,-0.38000519971914726,0.33020854682952533,0.12770945169071712,0.2706437944514846,0.06727370977649333
-0.3401729089101504,-0.18339117759111345,0.21411692114684142,-0.7749745003549688,0.2802615874492704,-0.5711862168228758
