Gx,Gy,Gz,Ax,Ay,Az
-2.2274340000000015,-2.7703950000000033,7.0892389999999965,39.756,-600.5119999999998,14.046
-1.0983227592170104,1.751040562775716,12.870969056242037,-25.52641041582896,-0.5538395039698144,-3.7448390138977747
-3.2249372724253034,7.054567776851279,21.941829301492564,-7.504708757518428,2.1557528401319663,-5.1506611167479335
17.867914582023065,-6.325397392107288,27.886096145168292,-9.474172083607561,-0.543903250895946,-3.188987981955359
-28.01618706462392,-27.8197699751172,-0.5300467208909033,-0.662935900635408,-0.2288483658108677,-2.3483864722615126
4.907857810135732,-50.210144053094325,-3.255457992738271,-5.805743517120269,-0.2527195151155568,-4.359975318544734
16.402425542495568,-19.913877593658803,-6.803048936054582,14.181587472251836,-4.953700511911628,-0.9331361253962112
-17.449900037752336,8.059156853698106,7.20291089989942,0.5604796012851714,-2.039080391547515,-4.061553227509297
3.380024842253266,61.066145528908905,-41.414960077761364,7.388455851033003,-1.051992939110761,-4.300052254782887
1.3849579097066798,14.239876430254762,-19.65885716816591,2.3321504425044037,-1.3793947394260886,-0.39438569488218866
-29.85528649170776,-26.293639095753438,-17.2874582901107,4.130526506144869,-2.056934805255386,-14.57321367144268
-13.044918488576428,-27.409036596698208,42.16638365151273,2.1423898591185857,82.0617763857067,-5.660589496315841
-1.3330157612803877,-14.01974967330343,-25.451114870998126,-16.760639798718174,-1.559482190106082,-19.87213194845768
-9.193314791963285,-41.91199251145463,11.331299740103017,-10.849259518257243,-12.613370493356722,-6.840566004641025
8.042776337800108,-4.307019359651417,-14.411016405673381,3.6511630766723226,-2.8356564364858965,4.97356252015234
-5.452133750384972,-11.201068240768851,30.816486726739395,-22.43245956302195,-2.537540885421497,-2.1844919037967157
-3.197134692188559,51.26963489394807,27.644047397583776,16.46539535437828,-12.45056153807807,4.19222578040806
-9.750060379540137,-50.212304324428075,-8.018519655380311,-1.5180349554356969,15.441905714648968,-0.9075709406111296
-5.3470509613983035,-9.633464544741733,-49.480381162543125,21.477663346327965,5.883463984075991,8.711959741820783
10.003560492175085,-17.69236431372582,-13.62432280780107,2.9349263567924986,1.0154702596635419,7.790251913064553
5.560510645753652,72.19474240587444,14.73675175046889,2.6985346977343,10.893069924524696,4.262839867007151
2.8047221379897307,-63.04061912877934,-7.192247007589266,0.9346643005191693,-10.394277192205934,16.61672993960456
13.0172350521294,32.429276211452645,4.536982456018123,-6.146153434220028,-15.717868448184637,9.065365810399804
-3.102518269024828,5.042146465703696,-2.922753754107994,17.311717699427348,-5.824671355003295,9.648141523617564
-6.750692219424412,37.12558764460883,-0.38511529667507993,6.1233240980362265,7.811575798002075,-2.540328439878939
-9.251802011935712,18.24195814605545,12.384595425511515,-2.292880530797209,-1.1226581050843554,-6.774384694391436
-9.068453567066348,-11.975861008590318,-11.823592178235808,-8.023829047547476,6.803738639984088,2.7546284025750403
2.3485650273207073,8.503236071898325,47.25613596356074,-13.684358221392817,2.319472377480576,-2.019395239092452
7.404154323711087,-9.035367845254367,-26.90017630247603,1.438539123370893,-9.897363493580555,2.0142666299031022
6.683468244498413,70.7902892186533,13.358362429982275,3.5296833395906533,-4.599582086964838,-6.898348314886935
-10.08806890494038,18.79808778942853,2.2210813955478947,5.069736541516505,-0.26019408251527976,1.533589897401356
16.251387905520335,-12.649311448655208,-17.208137248053443,-12.796992273387268,-8.794819619085047,-3.683492966706985
-6.722812425654334,42.096790013140904,-17.043425145625406,6.752137853367254,-12.384876818626722,-19.0575436734017
-3.078925660249606,-8.598475762669445,18.182709500005814,-10.491497407254368,9.848062243059898,-1.192496126580886
0.34405769353914906,32.72018678610124,-2.3500177017543216,9.04020637689815,-12.356380412890509,-5.795135467311244
-9.094847274237562,21.325769044257992,7.243208617011298,-2.5131154780822222,-0.9370521308900595,0.8204944965166456
-8.92975083863914,28.882260475329044,9.87499396201475,10.7389963926713,14.4744103835929,5.445697376055097
-9.148732597645576,13.29092674663418,11.557424124699207,16.303817975605472,8.357833903611386,-2.7156647469502033
0.32995820770347173,-49.153914280500324,-29.55917755588184,-4.568180120006185,-4.2899780170107,4.725622383690493
-11.115696363035074,31.617349261421868,18.318285413866054,1.7291039300128288,4.223509130147283,-5.435945082140618
0.39044150158660607,-21.221879162524065,-1.1593768876746857,-14.024810704751088,-1.1659524592915744,1.2207217707593316
6.2561774522453,-27.97864574407987,0.17166677824785026,-8.803160264237382,5.58065022159696,4.754168921254708
1.0678686287212473,-6.119224134311196,1.308744666620889,-0.5047055405702432,4.803720320529434,-1.519912016402799
-11.113713346640811,25.853252811791954,9.090600779029401,2.2070753110101506,3.1115981190250217,8.621656796055676
17.005035503547475,-20.111544115182905,-2.9634520527717143,5.998106020308789,-7.265595993791962,0.07707676632493188
-14.66476674863096,7.494449008740412,-0.5403191162749259,-4.545965303296036,10.18704252952433,2.2453411813430693
-5.89383514528379,13.416229875577436,-6.409339524797192,-10.167254351104036,-4.399678662645095,-3.6248643891018912
2.2934843237939364,-5.635008506960711,1.2760093274780573,-1.6547645536168254,-8.436941272136842,-1.566023651987256
5.5940651364716665,2.351606912145351,11.743286514834928,0.1386150909490702,-11.540697663459895,1.1736895650827044
-12.151785896413134,16.17991820567483,-6.980706608197561,7.018253877009281,13.575776039021093,-6.040834304119332
4.2205166678924915,-7.028750215144884,7.113768225626892,-6.306145781186469,-13.211062656720387,5.384242330535416
-3.8773921035178924,-1.7547485293839413,0.02878074040963763,4.955304007590807,-1.7234633098269274,-1.5480981857103684
-3.798780226483281,3.3521511922393064,-8.56751723629391,5.084450249615594,5.442254646704348,-2.424194511259817
0.4465307385142143,3.834432141660333,-2.499892705683518,0.7057506555173503,-10.557214775269847,2.381849503356543
13.325322163444277,-22.409037534487744,2.741542350009966,-3.9295567910691336,0.33583029471953285,0.5030943816462051
-6.6324467111110685,4.474560903276339,3.6890577160315567,4.778856031621848,0.5976062091959307,1.22422463802971
9.226075676898589,-3.567243286510381,-3.9193933419082025,-1.647960035801507,-3.8814199237657085,-0.16884648957644754
-7.701280984994465,-2.617148705438095,-9.519013594370637,6.981782088020708,-3.4756462927090674,-0.4030491456647681
-10.483712531800684,1.0482758881131193,7.139673294984954,-2.0788481822870173,5.688552130134484,-2.5494792106781574
1.4578435123332492,15.945175804822188,-2.418466974760885,1.9822299949642805,9.098108576935045,-4.343165271234218
9.155536437461292,-12.83802891633475,5.34175540904297,-4.266976260939713,-7.33109785882688,6.829484421225609
-2.513455560561218,5.365196044251342,-0.5346769616630525,2.4886160097947787,9.175890138927794,-4.239737546628726
4.604857990067055,5.134154421374723,-7.966818759240949,0.28359913938779435,1.578616073580661,3.103107766272887
10.043267231227233,-8.320568981547734,4.071926443293476,-2.0863558378424156,-8.685440546501441,2.0034459246370067
-7.818994899858634,0.022032006017990158,0.751658298932095,3.154776045366215,8.761206243072664,-5.853806663056566
-2.168436744387047,10.70677881067606,1.3351660809976795,6.905918520288209,-0.5510257716492912,2.3924422487767076
1.2741867612832476,-1.6274870809680975,-1.7917371417383667,-0.7642191397572387,2.215592466016128,-0.7319808640422361
-2.1631348292275527,1.71448440597787,-5.881623472191571,0.4957670250187738,1.652605294826082,3.9845692190037245
3.8621584654433896,2.784231000936546,5.175713939285583,-6.603418082078139,1.027229960549617,2.1110591498141185
3.5003953276604918,-1.0633432614007257,-3.979556445322646,-1.721494281646795,-4.995977565926884,1.6121318422144566
7.677916145036395,-3.195813809969799,2.287807007441148,1.5268025566743888,0.5879872408797375,0.6418602759522529
-13.589512680888364,-1.5488742258409052,2.406625972205127,-1.5891370265967257,0.7246266412038778,-2.57203510354159
-0.34703024118696213,2.6223271342165564,-2.5609524533701027,-0.01707688225077808,-2.100931117133225,1.8768280723713464
-7.448216199191085,6.818546845438482,4.312582425709157,1.311574818618083,3.6842593770155436,-3.656692926561674
-7.358857324845884,1.5293850036441823,-1.108366274122182,-0.17873700612451826,0.7537777465345754,-1.4319329692749236
3.6475698799915857,-1.4273928704695507,2.9369461434760082,-1.7261262677418858,-4.060753211319453,2.3874253780495076
2.0806487292823994,5.2292651833657136,-1.8158143066861503,-2.2174166546777374,2.2661338031423535,-2.484185457594101
-5.309763174000964,1.8865002283348793,1.3718404834704376,1.8513571964590172,0.9838812276050377,0.6451594771843872
1.1794165801209893,2.5142057609178563,-1.456643119094443,2.1529741088943806,1.8643701348110653,-0.8767069905029662
-2.361206098719089,-0.8468583612130756,-0.24749340672914866,1.9371452431858844,-1.5402160091828798,1.1257516194835293
-0.2729771570042374,3.684708339771359,5.634832405179191,0.7363686453731662,5.730980624998093,-3.057296303636817
-10.782544886704486,1.1553729482930586,0.9405571696579567,-1.5093889309228095,0.6684446284806638,-1.1000049938020995
17.351012156182087,3.4588431464173435,0.6496596659988785,3.212964689882189,-3.718898414449751,1.6609126152899476
-0.9345843467482844,-0.08186151002107556,-2.320822485570787,0.5895529120197628,0.2507285495416327,0.860765302640526
1.7979327363124324,-1.534805656331499,-1.1536408179028856,-2.1980834088174896,-2.834062303925155,2.8606069237433136
3.9316246759991733,3.683826564050861,1.4513762558150434,-0.1900077706155091,-1.5636052403312448,1.3478859529599703
-5.8278511122554395,-0.6717229506130784,1.2796826123431344,-2.7251922711230576,2.910031259352701,-0.5353977589692137
-1.5690132269699566,0.839058202669511,1.0498308770617633,2.8491180036502635,-0.395674697166696,-1.1051214795729973
2.255441290797108,3.167744733941092,-1.9490692294864176,-0.26357268922654953,-0.22098346826361137,-0.7822111542269053
-0.2863126348319074,-0.08652967307047943,0.5635731628854184,0.4168296087159593,-2.9769856334375815,1.364417601295777
2.698504229741215,2.3671709793016786,-0.6768455123269044,-0.4427600955027309,-0.8946205423054749,-1.1653642017949917
-1.398916915888123,-4.830406180868145,-1.6695926957813307,-1.5105869240882932,-1.9370059158974235,2.9318577929174734
6.531838896955946,5.241382746544696,0.2701005605813585,1.4886348795487716,1.5491173358036177,-1.797453676461125
-11.885531718087869,-0.9141490315263412,-1.0247093835790821,-1.5225573832115185,3.145934337556067,0.4906831038111187
4.207705442168247,4.604824281301197,-0.1043098252064622,-0.06934428879465271,0.49035696302176746,-0.9859741966304654
2.4461412503664564,6.3336908513984085,1.3042634071108106,0.8003986993215011,-1.229550198378468,-0.9874530569613217
-3.642658032731055,-3.1616979069596356,3.4026047973581703,-0.9166015761240751,1.7676032454920865,0.2133128729364222
4.860042429305326,-2.281338502660818,1.826413248643315,-0.3254923383916054,-2.7124591840138823,0.1458734636482183
-0.5252924101638143,-0.18095733000349146,-1.1534932642419877,-1.0845910321515453,1.0317166803580564,1.2574775317733198
-2.8790375420771257,-0.07726937766174036,1.870761020588732,0.27157850427997343,1.8113893821243598,1.006640906061631
-1.6926469044261205,1.5927314238232775,0.23292885213309072,-0.153073135021486,0.7509498547803029,0.20531917762047858
-2.9283517622218085,0.4417589908319939,-0.6554803126763096,0.46189561309498905,0.3173470755477439,1.0519850527986374
1.7394132086572724,3.6062143980855477,-0.11854226386583733,0.5001623690219001,-0.5981882620230492,-0.240250583190599
-7.6579679659573765,0.13798843107886205,-0.28467944439147047,-0.1885285609214934,0.41742891919800473,0.5187242942935409
3.7979746833397208,0.2303943841439653,0.00011038692926801374,0.3828153282378235,-1.9366469925413536,-0.29761208284577056
-3.6089532168185756,0.7803834989768894,-0.02834030785361341,-0.07379288468566614,-0.7201715507189708,-0.03736602959214097
-2.105355607949189,2.555697892956858,-0.17013520829137396,0.3861415186767718,1.0079051741006388,0.30047900929975385
1.5121017806844965,0.19864163869933682,-0.34242578346972463,-0.9816614050179003,-0.553471842382752,0.6321462207546525
-1.146082345089351,1.994521481218884,0.2979838531857662,0.6722731448031689,0.8232611909115465,0.05752573729056587
-1.6084554372319846,1.8859627975792106,1.065580538386782,-0.7544158982264932,0.891217367601439,-1.0220056674459959
3.743375741470291,1.1081183885357009,-0.3309085948321002,0.06776571942804466,-1.1190998166885961,-0.26455135872837254
-0.8429001278580386,1.013821595329588,-0.06684822879603203,-0.08824933165900972,-1.177849799206095,0.7633480943319344
4.531382636281839,-0.7693735341083818,1.3845099880166973,-1.1122542469588281,-0.39136682754595675,0.24060220910845087
-0.03220856564576979,0.2826639696541742,-0.14123652049748336,-0.4617101222533496,-0.18830294750271503,-0.6307590253081203
5.155499552693922,-1.1676521307164884,1.495850390756091,-0.11626333544024806,-0.600226187624547,0.6459067205283893
-2.174614259540607,2.7097692071011,-0.3220739264412248,0.23342938044749972,1.040831643225224,-0.7727307689579371
2.617084785292202,2.8047815310616384,0.5992641136456355,0.10875485459584366,-0.28295162297942544,0.6152484383540072
-0.777268404985646,-0.34525938241236354,0.04984236481060078,-0.3764346807069418,-0.17671581799393,-0.09303172538931326
0.3943049265817521,1.3875278052080422,0.7446084867086831,0.0568040133833696,-0.6429640913848425,-0.13292099427055115
-1.221999235948729,0.44356565728437125,0.8667703150530653,-0.4113673629633878,0.8945469725508557,0.5224400522187922
-1.3109544637409276,-0.3069070716062716,-0.15899277749207474,0.22584446309977824,0.18912488200977862,-0.6702606767549117
-2.6292332565964984,0.7388462911009799,-0.4439580222491916,-0.05464978267053422,0.7925887059901165,0.6820356591467507
1.0509705290199096,3.0784880832145705,0.271634291183325,0.002940172234313143,0.9249289828226523,-0.34630431135303796
-2.1850233692106116,0.658206279644248,0.18882662776817716,-0.22782356583699281,-1.51366575436403,0.1810635297808154
-2.603606260983614,0.8343470361709735,-0.11180842949354738,0.5570741180204352,1.5803062540361903,0.5197224571895611
-3.3622014949764645,1.3415475441274758,-0.7852760535811054,-0.12554414202206615,0.613712182597757,-0.3097192132307065
0.17110194204484097,0.7550085826766182,0.6855357824488357,-0.011461890281795895,0.07889615932504418,0.11446786971357786
-2.804180070158921,0.3755411289425974,-0.4897712049526625,-0.17055952346463238,0.5788332302842212,-0.11614915355759636
2.1277829080357096,2.3298340812772667,0.5702291221263824,0.7779058285639908,-0.642290110785444,-0.552147859154074
-1.0290491894248688,-1.251803997039926,-0.9705217184044286,-0.11757281998795788,0.7779453132689976,0.37768677383209204
2.1165755440283256,2.2301911575408075,0.8055919179993923,0.18062904531307397,-1.1943331804890183,-0.494222498887299
-1.2198787579892911,0.9831715909472123,0.24333380706385488,-0.37276255707639117,0.23178462832938007,0.7227844658863882
0.19634258282355566,1.4958905955768818,0.3357225767276489,-0.4137374733851132,0.3968619255934648,-0.44680226221020236
-0.2860175442059587,0.027570603318880726,0.463553390119426,-1.0453385741670027,-1.4524853181560733,0.15209259303427336
0.4280076406068135,1.474752415452326,0.10458352855634884,0.8637081479869764,0.8367873609999047,-0.21703626063154946
2.6615266626385226,0.8394905765024564,1.5219283057098412,-0.9226203563501143,-1.1740303014931743,-0.3596079608500203
2.357658980880418,2.007440198442224,0.1366571994618857,0.5949534617233934,-0.480850099394047,0.07446812081386883
-1.3504003396290423,1.3480211284685077,1.2070485380335718,-0.4691860009015174,-0.8338867259356029,0.3629151499639094
3.2308479078995074,2.147197284139974,0.6120508713779989,-0.27133058817626526,-1.3402871747938185,-0.3256779434262508
-3.289111613069597,-0.5489365875529968,0.059007326170819274,-1.0400444237824509,0.8371980211105412,0.07135942097594883
2.568456792492092,2.2556783329055734,1.4090850021199193,0.5240751804783839,-0.7380995957471123,-0.3767612702491034
-1.054687061246647,-0.21246624510599066,-0.15269710676888104,0.1034356325800884,1.029539479463373,0.11129705445712323
-0.032427123617664755,1.5322133806756015,0.33359433119088033,0.7588809286848412,0.4524745195391712,-0.07148334623899899
0.9937643852985216,1.027072118421384,-0.44060788736711387,0.3550994878313123,-0.4719826035336225,-0.1456287391818652
-1.1644222652452878,1.1796384484083522,-0.16194153871144534,0.7558904859066353,0.7777427609563361,0.3688953335607704
0.9836931091375436,-0.058538244254843885,-0.17040780686934265,-0.42347301906134016,0.008002235245235717,0.35297134320927165
