Gx,Gy,Gz,Ax,Ay,Az
8.950591,11.868723,-3.0774060000000034,-1.1319999999999997,-578.742,77.52799999999999
-0.155049403329666,19.667873281721825,5.023127263810096,6.279669432692635,0.312505090682239,-3.680498262321109
0.08866539981386198,-1.956013015903138,6.491298779713566,3.9161498202368836,0.6863624201724517,-5.783096159317778
6.284971229919432,2.075164500018206,-2.085805674302626,5.321845541490473,0.7486304386771576,2.2788971120906116
9.405802523591015,16.626104676058333,11.354185056248372,6.837559878193126,-0.9800659077449755,-1.723351549540679
16.441341844035605,38.89269128306319,4.299346210212037,8.784890451574155,-1.5715043772279904,-1.3965841080190122
-34.157970189077936,0.896338464582012,-36.97919605006677,-14.958636697694935,4.240340899342758,-3.4219985832870785
13.51543615748582,-38.00197929197643,-5.431433855233339,2.346655872888756,0.7770459420679072,-0.9562567466311296
2.7429788201555345,21.601946472101993,15.800762015478655,1.32684049710746,5.552219755609307,1.0527501580814
-19.430846234380244,8.798113221510409,-4.143322626099623,3.1107795781194314,5.658305287392125,-4.210294826956415
-9.550477556796322,15.310428217444118,-23.440690289936164,0.5403755411753335,17.208816124361825,-15.318289193895328
1.843178967172813,-0.08052570931678638,-6.077630436875728,3.279965515637989,63.06273856766603,-41.24557874042686
-11.992789209637586,4.111374911658771,-2.80545127598162,-7.552178587152847,-32.0834675800756,12.016072305647445
-7.281347814208094,-1.3151117860957378,-4.648075708696684,-0.5445983669815846,-4.47644753645402,2.722712746618795
-1.0200914853967793,14.845895078254038,-20.393030304413827,1.1230487464204693,-1.0551322029607495,-2.188889315392467
4.1466268042391885,31.68596923481673,-16.39844029163627,4.824801326214926,1.0744734417047548,0.13417894791971596
2.234131020961387,27.847001399930573,9.319162624864536,-0.2807946157390695,1.344009855352067,2.128445174566333
62.566780603741734,-27.935778586899954,117.04623734564375,-2.645472472166607,-12.608123728464767,5.07512099446285
-7.456791021656495,15.20761050702837,-10.901896126746792,0.9088166563078961,0.8329077757927763,5.940840008452106
9.0004852454424,-0.7560227819515859,-1.8777229557142312,-3.8079238873404804,-10.010104619987546,3.216161726363967
11.064718388070899,2.7037964674978627,8.952228295615537,5.354896112404025,-6.113655667380687,15.597291272569757
12.508711867844228,-1.9586645604608153,14.466791279828746,1.489698338037161,-5.271027866909803,14.751743158173358
1.080205885401793,5.956840140567257,4.399850979800019,2.4985144299447835,-4.440121667533293,17.446716234300332
-15.371239389380314,13.076235761323574,9.712445608690027,1.3021494661043538,3.5774861864054825,-25.769425769861165
1.7609650752269408,-8.10543830214631,5.136543320502551,-0.9903721068957719,-4.0956094534855305,5.2054717392536745
15.575928393807466,-2.2200854430299914,0.2602363218511945,-10.118715071585743,-3.049237273516579,3.1738358060368954
-9.54868347015585,-19.572500143411922,-12.800272522043182,-0.7926124528335259,2.974056665487957,-4.167427744984006
-7.099534617766106,-10.618776522937853,-4.798871898636768,3.3973385892750403,1.842656754386823,1.2178112843842515
-29.901620930385,-52.62610488372748,-7.696641559624627,-10.857806442203833,2.7295738988372693,-1.3868808323592758
10.164633018910802,5.741598653703148,-2.108686296762783,8.541272824315866,-7.528595846434189,-12.944944807344493
-1.8479019424756262,-10.884239904828197,14.077576892674578,-1.996851305039451,3.590606096151579,-6.955281046630611
-11.451396945341,-8.893768490560849,4.888280171830035,-20.837016274436547,-2.151753995885139,-14.987954650411572
4.9645159129184355,6.064304002713697,-8.031424864491688,8.118575200630712,-7.941337129988072,-7.062713653347392
-0.5086850860269914,-28.898008841034773,3.4239358475184005,-1.2873606242248306,1.4478176324821526,-1.4223956932789974
13.395944891684984,-25.401208912678793,-7.669316807152641,-7.9142164119000045,9.572096072094531,15.680417672826858
-6.318124982419494,19.791592510932624,5.661752415905702,12.376214927403787,-4.682437228009701,-8.733699562935548
8.577631884037974,1.868240518009106,-1.0105149769029411,1.4671014069867894,-4.385867684809949,-2.5591719693853383
11.842705350639724,-1.956801436479414,-0.18417797823952498,10.6043557163266,-2.612364688561751,7.251779072784135
3.4323773809499127,0.461430310467133,6.362937621879916,6.47290350748647,1.6767182812887522,-0.03323210845660053
17.94215684300112,4.477615794544295,0.5852535244637131,7.783756077130238,-3.3739999498438515,4.882336404070283
-12.463061112286386,7.0760428735572525,-0.022140671790837674,-4.420260311786543,8.647517652864348,11.79684039585933
4.039984239781129,-7.900826061407827,-0.47651652379521003,8.371360595444324,-0.07312518623544761,5.636124368523192
5.182638875882989,5.656528423154802,15.518147861040978,14.52236950265188,2.275211746472712,9.255596946334261
-2.752474055951924,1.7372658045885438,11.421498002838739,-3.2138036185689156,2.7461306429409547,2.8818957493916595
1.5492586697299628,4.539163839684553,-3.9099285488097024,3.1204154985455532,-3.3585485963230703,-3.5007023604607364
-16.438121601318382,6.154815394654555,-14.539647740466458,-0.41429744945915314,12.05076795507833,-7.279659949745811
0.7164790557809071,-3.461395305106968,-4.060585694045534,-10.350380365578578,-0.7612335064829947,12.1930988366778
-14.376442551770404,10.640412917382724,-5.09605204431689,-4.087046377335584,5.650174537939797,-3.246229965081692
-4.385517219430012,15.491925288582724,-2.708812951867607,-4.262026861036865,9.410059220487874,-4.6541476553543
-0.01454678632590456,-2.090471668747035,-8.077521979163388,-1.092365400765928,-3.948838291012445,-1.007155447017659
-9.86746070951306,-2.7410854235819664,-2.1855958150895645,1.8149938590868662,7.4747967530729,-4.992440922932076
6.430816543828077,-20.80412363054224,0.3012865622246531,-10.397198855042687,-5.470661658216339,-8.83514148257304
-1.6871336046445027,10.071200157463393,-2.29461886638123,6.216515872815755,1.0597707588091243,-2.55084223123776
2.744604132794053,-6.120143987975226,4.053678110529071,-12.670952921336163,-1.754564544203189,-1.2866711967177924
1.5017261846465675,1.4591674394782574,0.34093875013589436,3.7960532793249553,-2.231683419968887,1.448814438992025
1.6623825372580612,-5.183600668991115,9.41726482978857,5.30034546610645,-2.9397811370993194,2.6312647909204188
6.3083486321878395,-10.586542063415026,8.00035881349839,0.714362989929939,-8.62777968362343,0.8400405530766617
-3.5544928270564884,-2.737508668727546,1.3037969943611074,3.4575575475028115,-0.0363673577399576,-8.462411240834673
5.320863735293069,-15.361781671698182,4.475986388810061,4.241808096679693,-7.733696128173433,5.892726463795334
-4.55145781357159,-0.8954448769366503,-0.6489447832647852,3.474933227688292,-3.2215295391776135,0.8027673860855177
-2.3034940570681433,6.502793095063752,3.1918577002974233,2.286071460590968,2.031026106357837,-0.14634204905263526
3.908912103482021,-1.4167593784763606,-1.5653764520745492,1.061617276280771,-2.9672163142087427,3.15363577761761
-5.196688378333703,0.23474805963263676,-3.5084224040109238,2.1231834442919726,5.032550588261838,2.570952523348534
-2.0772858036388513,-8.269697416005455,4.636324435791268,-4.3559166492538255,2.64417396659858,-1.017241304279158
0.33546426734535284,-5.798248691769089,-4.632807062056852,4.0069235917321695,1.5160138544972557,-1.343981889597767
3.2418545497624605,4.621088044285281,-1.7547825942358037,-4.091612184158297,1.6294074355568648,0.028169009230172348
2.575945984243747,0.8674602978591763,-7.466110638009959,-3.2061048149077624,-0.14048769692206753,0.4243135388629178
-5.123056277701841,6.056370781736113,-5.486468534941175,2.1892865682078226,7.726961158490089,1.1539311316264114
6.691802598232533,-5.106691630078238,5.326125211244027,-4.248950461625081,-2.8342132748008693,2.9742196996162944
-0.7580717427014243,6.299165852542848,-3.302665234362589,-2.850141492798116,6.4469663770297725,-4.022436105081653
3.7681960675857353,-4.258219865649334,2.182724127864942,-0.44190652169791844,-1.8800487884717978,1.5238391006689591
0.4826166447558681,-2.759864128474542,0.7334691336685242,-0.18347117157205073,-4.1518193228202875,-0.08561157690158905
-2.2557010832424655,2.9944981425522323,0.9297047319158058,0.6769219435412642,2.7776479465421438,-2.0471942682160646
3.515383714680546,1.441928762647688,2.5916475660121376,0.12224748398302471,-7.021319178378008,0.8057537682842798
1.1928810180273894,2.3287231394182624,-0.7077761322385206,3.769086795377507,-3.3363259015373337,1.209025533743802
-3.60796358843227,-1.7897202058272121,1.2208804635734696,-1.7298649012375147,1.5399765196450452,-2.3797939940067185
-4.357256559635763,-6.563313948690404,0.999560834853233,2.8522670429251002,-1.5567292017634173,-0.7753963520753197
-0.5267721449355413,2.6904664230643727,-0.338496111162076,2.1924059507681273,0.861955746779722,-1.2087162981695894
1.7639629008953959,-4.016442113584437,2.1701549038929975,-2.501924137580834,-2.7435535820849672,0.9218151060355798
-6.7929617521581145,-0.9035870180155959,-1.4489047747350903,1.2625027807259293,2.0991850770413794,-1.1563648081931208
-0.8696417548467392,-6.528680981865824,3.340688370128843,0.4368834258715433,-3.8938628678700673,3.147148190016254
-1.8587168976694748,2.3598333329902954,-1.8560686693551962,-0.5390440514464808,4.359570989621888,-1.8723829759378172
2.7733920430643866,-5.087841930006658,3.641677584499117,-1.025893352041134,-0.4102237850117,0.4876089267779333
0.44656887431537773,-3.84712309183136,-0.6512533281853339,-0.8942548424482367,0.46515357178370925,1.801574454107063
-1.2620430595709615,0.9848134876091597,-3.6388802472457007,-0.975895463498506,3.3582673846067794,-1.4643156498112304
1.6920313104475522,0.3778458558857605,-2.772692254856988,-2.3625119766878546,0.6788544579496467,-0.4935139142617319
2.4282643614882624,-1.0296867577686186,1.2007154119939711,1.2994025125712003,-0.7876910115298335,1.672132792176212
4.452500272304078,1.4897077695484184,2.2368004174371956,-1.9985732622394279,4.228530711088368,-1.3695200583198757
2.0425621566205,-1.1685202807856465,-0.6568376448132269,-0.17028742943995992,-0.5911282025288744,-0.05660917673156329
0.057619954382602756,0.26409978231633247,-0.6312988900697348,1.0845755814576887,0.9201813866046282,-2.238519065096303
8.092943068812595,0.6609417497768988,-0.5787894036804762,-1.0942223012305918,-1.382150727590814,-1.3293728525972452
-0.8111013778632643,0.444643237297743,-2.044035581470376,0.27343939067833956,0.038649720087400904,-1.1638967248368248
-1.6289811817067772,-2.8584321251040166,0.8175078940658936,0.13339916043046976,-2.2192564460288673,1.3188154545370645
-2.1159966396584236,0.2903771241886312,0.7844286751534447,0.8058065449708072,1.3698974933384696,-1.1769930243986246
-0.8526126740885407,-0.2197729653862016,1.4867688209847079,1.0087577198815088,-1.3024180351126176,-1.2190979771935826
-0.1377315048792883,-3.0301977857554183,3.246543749678548,-0.12795497279333717,-2.5231162062653687,1.533318205561045
-4.819429226918625,-2.825598187081459,0.4532691207650501,1.1359795910632275,0.7342894074356596,0.2503927074324023
-3.351880698007971,-1.116735980735687,0.05701552066547655,-0.3192092323609117,-0.18144838119054452,-0.8195054659918116
-5.270643061467127,-2.5870414246513875,-3.0634127597131524,2.168307341459184,-0.8755452818320204,1.5542195391058637
-0.9715087561823348,-0.5329275307328167,3.1675654511141547,0.059574436380292674,0.9651111393712122,0.1215667820178391
-1.5646850364742066,-2.527076438461612,0.32707625209407176,-0.7542038647848119,-0.32501298455359284,1.491251474169894
-2.791900308996583,-1.806005063591443,0.7718701167349473,1.6665708886019903,0.8988413994704947,0.417552523981413
5.748683201454333,0.038732916025287056,0.716595644867126,-0.8879923201016555,-0.308392795183816,-0.5036722229151297
0.40444926832407746,-0.27541117175419827,-1.947996108838583,0.013174658413472082,0.007925041060092008,-0.23652815105020658
0.31769728935511865,-1.4901723857891511,-2.4898009410930033,-0.24686999043189428,0.9519198525484258,0.9392567220512898
2.2121444685792735,-1.0636599908083277,0.02639000740581184,-1.1434183762540253,0.9691026521037165,0.8151691091301287
1.1964542769439144,-0.48603561427279796,0.20914283611451623,-0.9512190852171679,0.7552964008729808,-0.8726418058179228
6.407964673058777,0.6305342026801128,1.4547968975671337,-1.463094019704125,-0.9487220728751455,0.12847707088015844
0.7630518584788057,-1.5758924847941695,1.2721496178870964,-0.11717782145773706,-0.00672305315436772,0.3575873642753846
1.7784640701422914,-0.7062957030793156,1.0159891450929883,-1.4256519127816034,-0.4557155735014603,-0.9528204115147737
-1.9302672244444141,-0.5251447443345467,-1.2828810196458353,0.5854749609474547,0.4761598602136022,0.48738659147499974
1.138577529211097,-0.1319093983477857,2.480507285069003,1.007882888257016,-0.5024788479750353,-0.670783293794583
1.1186267400806784,-0.6565669102397762,-0.6311713973715973,-0.8420510044189048,-0.3501972774361713,-0.4498886656888696
-5.054227717084061,-2.525910586304323,1.9180310498883069,0.8987152934896603,0.15178803490122372,0.6925500963730402
2.687938456572423,-1.8063328900769782,2.3078642775356046,0.4156988541695836,-1.0593071729929102,-0.391707342689361
-1.034439062133512,-1.9097506208400317,1.3638031780408981,0.610368034842001,-0.9208483198243153,-1.5709813208276129
-0.4703781897273842,-0.08190191106938494,-1.5375258501321658,2.20305895255736,0.07738745584573994,-0.273553053053085
-1.2630238753950855,-2.434313127952965,0.056779009936171354,0.8323340158253205,0.19853175699608552,0.7380646201413078
-4.989857175836907,-1.8850774104373549,-0.15338936907088535,0.8557463492897421,1.6391938783395408,-1.0339923555118715
1.4781550085434638,-1.2351231698687941,0.404418835037881,-0.6469259199223318,-0.18068912507509044,-0.05392162099913775
-0.3916959826371924,-0.5691162475163483,-1.040609287475994,1.5463611667871102,0.7366183310709834,0.675768573645221
0.911566174495825,-1.0500421650543927,1.2623404080894856,-0.5877140576363873,0.1170518835861925,-0.8944152999656134
-0.8461216181873676,0.5352048339529976,-3.1772860098842837,0.7056111772706601,1.0074301696070789,0.24379990710531502
-1.0678456823887659,-0.6396176800893386,0.6970323588194399,0.70867308224807,1.0693341611233018,0.25720275661281466
6.004600374788849,-0.5374287194620001,-1.63747198492111,-0.9058890283055253,-0.5641818697192711,-0.31733127380872617
-1.6898202724534395,-1.093431811867505,-0.7834666787541267,-0.12748537440767505,0.31790121862878695,0.7940175014348729
2.101801220845776,0.3325936758477656,-0.214555853073987,0.5714484134894791,0.05626117135858616,1.3566919788479863
0.4747788826555565,-1.3526463451324648,0.47690740908370194,-1.170185108940112,-0.5427046868225014,-0.08846364451381819
1.7887004873126882,0.21130951009729915,-0.3293049783240958,0.011001534766132484,-0.22505763924820982,-1.1573088146384807
2.526858216429025,-1.0511481960254927,0.047801311827926185,0.05171498084984741,-1.0395010891756635,1.3256365647095154
-2.339089664307176,-0.8182002887237676,-0.31594462533022655,0.7128430490957312,0.9248770070185145,-0.5098015701115892
-0.07948372369234417,-1.8659259970092021,0.30146852008012914,-0.6864786785729178,-0.30241905873057023,-0.7222603493223847
-0.6417916283248704,-1.1104505637300497,0.5650269308166553,0.7810185312546423,0.10765491574459007,0.5281370238091919
0.49740765452008884,-1.786951016220054,2.084341275324942,-0.004635866500606878,0.005056121319685303,-0.3343479741694765
-2.091326512420798,-1.1996549218607648,-0.4521755482902362,-0.4097094346081278,0.005594259105949906,-1.1469052449949826
-4.310197909774872,-0.5105504584831008,0.5757809361238224,1.3341894932382035,1.879010882874715,-0.6652702773753044
2.82126009758439,-0.13434546699710156,1.1995291374181576,0.6063425388358842,-0.6734959469433992,-0.2588604993172648
-1.5130387717307765,-1.257885228655222,0.4868950755290286,-0.14021421086678085,0.8883139813592572,-0.6459533829775203
-0.5614094691982269,-0.6491141959883483,-0.4707727072574856,1.3438787746027865,0.6525841253984268,0.9054959337445518
-1.3957724466201957,-1.951310961185736,-0.18759034148977732,0.33879579325213616,0.955356676662343,0.43255982968393236
-0.1463205627730941,-0.4615639343204801,0.03070192693002645,0.32433118543527073,-0.16136800950019273,-0.9468811680299204
2.3557240269776667,-0.7788691266624777,-0.32785490404549367,-0.03438860645749996,-0.7372475430530308,0.7508189090953161
0.26500104471509295,0.43904220596114196,-0.30051489715771235,0.7838285485025183,0.10597254526574096,0.45688862930488244
0.1762059255754534,-0.7316825522463078,-0.9577756766678763,-0.4464266561599541,-0.41456923637261267,-0.47352131299536404
0.34587500395057014,-0.5820299675042746,-0.4444993424419329,0.22228438999135042,-0.7880294419636588,1.4474695748134696
1.4297051259118403,-1.0525450952566426,0.87377469398052,0.301516249906851,-0.0692422916171707,0.9479153418763785
