Gx,Gy,Gz,Ax,Ay,Az
-2.033086999999999,5.132888,0.30701199999999923,-20.403999999999996,-627.222,30.729999999999997
0.4452940646145447,3.3465335525653,2.977701871790883,-2.065756866039922,-0.058110764079417454,-6.192523069018268
3.478812752926114,-5.501826796309294,2.2770290333860053,-3.119970651828214,0.09903745761996302,3.8467254405551934
-4.295857458751734,0.6689966826041158,0.3457645045313633,-1.6943145353403017,-0.369462745315338,-3.365528531165765
-1.328838768328175,-11.623063027868564,1.0550923469751738,0.8725820570868246,0.13860815232812684,0.012867778319975098
2.8354050216780755,-18.031125857884508,-2.0669278850586457,-0.19771328941889688,-1.1756128402886297,-1.1909486086990866
15.800224386072776,-106.81416831484017,17.634307332455897,-0.5457752653245072,-0.5297776080090527,-2.0291667128236655
13.540700289048855,2.340913680464718,7.6781989993181785,1.054087493067696,-1.2001891835303047,-1.8696578153437793
-4.607936311427082,-5.345630168240799,-0.9923740460531745,-4.2106996788563995,0.511102863801382,-1.2033453424703173
-6.9712200189029625,-1.3745923881167288,1.831532802549078,2.082690081496824,5.952882470173542,-1.0528220019176748
-3.7904940939460006,-10.591386479061441,13.820718455238001,-0.695782004643966,-0.5405336171481779,-5.559214619798997
-4.444133663559594,10.795095064383897,-3.716388288995058,-5.360103749593783,7.075170112774173,-5.718038715652674
-11.741844347185868,-38.752912749194074,-0.05936117193085089,-14.874072101401708,61.05497859445697,-44.10499872255487
-6.442860464561659,13.77260865554554,0.14810852521992668,4.493644339417389,-15.320057648125633,6.415241514894286
-2.22057497372744,-5.897852052981901,4.69826876159372,2.5734760539193884,-6.194666876259371,2.724733900720576
5.21856937924748,-13.664389917642087,-3.141189821709317,-3.437822221005013,-0.055975515059155156,5.688064513254234
-9.26733134983779,25.980418534733055,1.5535284765676978,3.764995366622994,5.8187762047251335,4.809135168130572
-2.2512766256021473,-33.181202420543286,-8.529820037004072,2.388776896407615,3.0129548372180204,-0.6583270153419964
-4.200505226932916,-82.38781540954257,-6.74126523891294,-16.740684651929737,8.111907420836518,2.1483382444888304
16.398450353748384,24.4996550400675,-10.284383420777981,16.933194171759496,-8.327545538257347,7.443606257806312
8.781375428281665,-8.992534852901585,-5.079654399021709,8.390012530704016,-4.624497838201565,3.1463820735697507
3.743741780653959,11.44300769473537,8.449986368450958,6.600314452538316,-0.17262003392380293,6.146226429773511
2.2342235463644506,5.530871982817564,4.6392143625650135,8.050493611603349,-0.3040919267454001,9.674022823268704
9.51807381328819,16.262652208892487,-4.895642580918055,3.610197283432242,2.887575802238782,8.739678345153061
19.50449645935181,35.46026329426644,-15.379515410081689,18.433905459352903,-10.95536696978295,25.002135427497578
-11.992592993354357,2.364000867135454,13.437769595055096,-7.016766493332602,2.8971360381050393,-13.96948561006597
-17.934025016433115,11.499511276659003,6.624907458770021,-2.673541764507454,-0.9402741214770658,-10.941089072738736
-10.8564668967003,9.975541127972324,5.426948516230587,-3.305255164852197,3.3207893942956517,-9.568224409089597
-15.155822336079703,9.579931688103777,5.6761388039043235,-5.951913763519022,-9.046357430495345,-5.260607543182056
-6.4752984411820735,23.65903727321362,3.9234018276866296,0.7167495970420461,-5.229575604633208,0.27752689364016403
2.522988181055907,83.62372820909722,-15.36011523735833,40.185886503032485,-9.662964206203485,-3.814686853128831
12.272367099542546,-42.05951252226224,17.91342519902808,-29.125050560181894,0.8369021283709923,-0.5995642468631918
2.0498352801920428,-12.786398746735156,2.75775402058657,-11.501195839189585,-0.4370236963899427,1.5909220299078513
-0.43002208864648583,-3.463545375440651,-0.9587653958970304,-0.2006986306478944,-5.656715196769208,-3.1531139198315707
13.787638190980147,-11.73778209088233,-3.6716607262292364,-5.505357688910908,-12.536884456797026,-6.584465025866801
11.906857608121108,-2.510973267453757,-1.0266114306644676,2.478067346864976,-10.67334412324904,-4.6268513306373675
4.761459560703768,-15.66534543535894,7.745716297155965,-19.71297157318127,-25.127053966067812,-19.5644675169876
27.217867844022727,-8.319700583306892,-22.116377611336855,-4.266494617847368,11.405211583159893,17.79508412501964
6.845297695523168,-13.45375097725644,-9.160373988399488,-4.5750152504932275,6.955710585202693,12.114046895900845
-1.3378701572253515,-6.857754545752913,-2.299263769041411,-9.591034172770684,-3.5504969406675917,2.3259077974214697
-5.1602658139801445,0.6126587549186565,9.874325731438127,-6.897970155683572,9.671884448370783,0.5649778584172855
10.763874359407673,-12.317198635705992,3.504472624513531,-4.686269883729285,-3.1105264160960973,-3.4784439511479768
-24.128170313245214,29.909710327610394,-4.37235189349459,-0.7131833306514572,11.01611641581219,-2.2625096682093737
6.747769024669251,-24.89761475856609,-8.26093592839582,-11.627087162239286,5.340499997917973,-1.7732086655997756
3.8834271154360467,-12.777363568587965,-6.948967949746761,-1.9490994831170267,-4.083591461785698,-2.034111719503951
2.757581548264236,3.2661145226926838,-3.8751056942498665,0.20788379118244094,6.2798265077562085,-2.73546198469034
-16.879323638973844,12.947014798036232,-1.8528657916374627,13.356520415287827,8.701765765344447,-1.961965090523027
-11.968436852407814,4.523665468948769,2.5486194802711926,4.548870372556769,8.801523011256428,0.8647291114829694
-24.156189479160716,3.9982788085355114,-9.853287298261362,15.15126361224913,0.1553492966159169,0.5307548113401599
13.971236040740358,0.9274341811101552,7.507782290920742,-7.130676833002168,13.331035347218346,-10.542650431544482
-8.59440026303014,4.20985762875458,4.170229227627841,2.4107440763000914,-3.715029782805791,-3.650888276094722
-3.71087493364879,-0.9334088025129326,-4.601433902002899,7.636008416470466,-2.5179164246113763,-1.7379147785115678
-5.409260585284916,-7.120513173394531,-7.399406402873599,-2.5383859151218653,-3.955194282040985,4.924778850994235
-5.794802655740533,1.2858051620951871,3.125246475023552,4.750653355335395,-0.2651866938720703,3.1664894351563473
22.43373131327037,-13.83594410383433,-0.5176453807462829,-0.5801956115201774,-13.084219812689295,2.9258289670228597
-25.061981193980518,17.46285415648371,2.5727025487228787,3.9388151326080174,13.353331038357213,1.5992972159232903
-2.908832745150494,1.878395335708537,-0.43812700430977974,-2.0159492413243405,-1.7619810052190097,4.02611403704088
13.757093084557198,-8.575177420147687,1.7473649405270095,-5.416371623914105,-6.355481463247194,4.75789250952663
9.314581243811402,-5.319983967002445,1.3045949612868204,-4.463942337098051,-5.744172757757168,2.6224133243758008
-6.884857302843175,-0.9151701888587028,-0.9532658779237798,-1.9945853009325947,-0.057215510180984586,0.6003301493647338
15.999662064012057,2.7419244563459952,4.346488673452068,-2.4933699501934923,-3.0687112547932127,3.41983928373982
-27.213425304247888,-9.479166873852511,-9.028289238322685,4.028151130864956,0.8986871072842266,4.221462713795688
-3.884390408141741,-1.1502347981462884,2.163630009802299,-0.8358926277233143,7.071107955289194,-2.0804237442294427
12.18200291728625,5.036255981273477,1.2124201517723074,-2.2230430842051065,0.05770847701211945,-1.8626054881543543
6.363702442976156,-0.5980160721285026,-0.3731010666106917,-1.858231118306483,-0.758489683496897,-3.0714388722995056
10.673829436908818,-2.9246473005523077,6.880442729345655,1.38997999870743,-2.879073253650723,-2.401321590762251
-7.169721499310197,3.443776533918909,-4.3218525778560535,-4.625293173567668,3.56499286293983,1.4827344380945486
12.486418351971565,-6.831593569492835,14.970524396547118,3.601757302348323,-6.740523158783357,-1.0211661188699102
0.5374925583138515,3.3995877608294465,1.2872474529742435,1.6956283297966146,1.5965431444225207,-1.4526995399239293
-7.078311554755788,5.498619996406699,-4.765570170273685,0.054565136169273276,4.510000673582063,-0.05671023636033312
2.262205812532212,-0.13199581775470492,3.960712575363907,-0.5035490592881022,2.658777072239965,0.0557013875273226
-1.043031938097927,1.7514931527379494,-2.6284619941244753,1.264059467271133,1.9117929573881967,-1.6198652683908388
-4.6062805673326634,0.38356132573070756,-3.6016895032047977,0.1942496492784077,-0.07538121759048844,-3.166018207995001
17.997521098232077,-4.072539400227439,1.511046033638888,1.3156683470006,-11.724303919241565,5.157455098077729
-13.117535798746385,-2.1918575121384505,-10.531486760053347,2.5260801621509703,-1.0467022527911842,0.3701825073939289
-15.402483638971075,-3.8120685848308264,-5.923792962323284,1.2807552436997152,2.3693882247988265,0.26454562456682984
-4.312725272044918,1.7959581361800225,-1.2538854436472557,1.1981452302182707,3.0023980702520268,-1.28243061031001
-3.577837461526844,-1.833733641412152,-3.646422525548398,-0.9635470843447163,1.5056977112726746,0.9609279445499929
-1.8125863794075974,1.0568926968315486,2.427288599356361,3.7430957296137795,-0.7719210823320473,-1.104140296137122
10.58185983798321,-4.258078404253257,-0.6141326575335595,-3.499075094254271,-1.2491041743539508,2.572274208136667
-4.678904222188763,0.6357163959241614,-2.8339311631710045,1.3297760855486191,0.03758020590363165,-0.11961396438807625
2.9472143542318943,3.1789428530963773,2.9205419488329367,2.0628222306888624,-2.131552126136772,-1.8898357911807246
-3.124077998652789,0.2600371056870899,-2.7771781150950283,-0.44134488068454036,-1.8699211626631613,1.5908047718358358
-1.796673180001517,-0.7242730387414638,0.7876214018855161,0.41951500591544383,0.8481922698345803,-0.7079511373503415
3.8896286616419715,-0.7181405239162175,0.13476561939110163,-0.34179300854910477,-1.8832888523509719,1.0852014453521872
5.293506841759729,6.264851317275122,4.139930573088774,-2.0630695180255723,3.562850007577672,-2.485715624522329
5.781886476149349,-0.0026908086153216715,0.6349791351564695,-0.3959418498091629,-3.948112418805944,1.349753040950107
5.633222556213163,1.0558480384511364,-0.03980332508513176,0.7028698581033141,-2.7646340379115784,1.317007807544871
3.687254813233863,-1.2234509287078401,1.5028996775339927,-0.9000658793200649,-1.2714259399332182,0.5252979454105059
5.070597439449745,1.1730052597651004,0.2670723399925475,1.1223452163160845,-2.8683162939687787,1.3630779841187395
3.938072934687958,-0.01941811508943192,-0.6679362211203096,-1.8795563846369445,-0.16138639930354115,1.1490534769144278
-9.52597584555502,2.9930946605270723,-0.16108702818173581,2.697310353199311,2.645887064869597,-4.110998239337793
9.577342525108039,-1.0378049346437541,0.7885788756902491,-2.1963696241197805,-3.2148234632741173,3.6705901272652808
-0.31003629287188383,-4.000237816512932,-1.0258997984164253,-2.630079033622151,2.6564520740872464,1.9729383685688595
1.6920100381028405,1.245443014040295,1.414630808170983,0.26868645885608894,-0.7914086569528297,-0.5604309451426606
-2.28918236681345,0.5719151188510914,-0.6644816749402853,-0.36121683863258236,0.4266118645890792,0.16505043516550705
-4.912271464445043,1.0090211088067738,-1.3231490277533102,0.8995334750777437,3.2030815016366723,-2.58372256931413
-5.413016708402101,-3.8599758568762783,0.6774659069947914,0.8900552098749221,-2.016385329769696,0.6583284766826897
2.367954250025657,1.4111196036962312,2.9293196781148665,-1.224154442577601,2.1785181209423143,-0.42707395392518555
-1.0927502158348943,1.658969140086416,0.9904170570271517,-0.006126345397022883,0.3296566684834038,-0.46904895346148584
-2.6602219004672385,0.8758003573268619,-1.575645702773899,0.9875897481602217,1.3130459927817646,-1.3365393048714342
-3.5891247478512454,0.17954499559181303,-1.9489630181738038,-0.06814114356795908,1.0984627706982468,-0.9193764664445696
-3.0140276668281127,1.7782150974847142,-1.311186785404701,1.8861616596438355,-0.8568865710224827,-1.2202426041945327
4.195706909523578,-0.9274001603209159,0.9675143684327663,-1.3473779425043884,-2.1137979902196635,2.8887755236335924
-1.8105687132795167,4.15895623901098,0.6118051205515426,0.10401698375018265,0.39936577036060794,-2.330554899027423
0.7549506254141891,0.8293675083601278,1.1521518576321388,1.0656810210583512,-1.5985342981731583,-0.44860283303080045
-1.7223698822176805,-1.4284743023952717,0.7396363426413208,-0.07050336222509568,0.8523531777453539,-0.1707908238955722
1.78092552224257,1.2970060315445968,-1.6205602671825308,0.08917853251441343,-0.8984598492873201,0.1225167461905074
1.729405787660857,-0.9916563633254322,0.08389540478772357,-0.7698901819626732,-0.615226062775051,1.7944881814447848
3.227790203312385,0.04672269493125891,0.4901328510984909,-0.5185011627976781,0.24404140728984458,-0.23471244418519815
-4.465752659455943,-0.01643567795500067,0.1450147978971217,0.772957576269014,0.7929505285877189,-0.911671305931003
-1.6315233734987684,-1.7418611480024,-0.012518923341881052,-0.8417765891403769,1.1053898801482454,-0.038793892335985666
0.7247210645845186,-0.302371906878806,0.1057662756093791,-0.7988376437316124,0.20709606484226017,1.4149207334713902
0.4703553501812941,-0.489379395268146,0.9838828765486707,-0.5282870003634487,-0.5526015362153043,0.7100335097562978
-0.8380901172186086,-1.463861567075558,-2.0195532796268805,-0.2445894306995805,1.024404819182368,0.5451207069438514
-1.769860968924966,1.1754140004468996,-0.5793254534677218,0.5341730452966105,1.36118364523113,-2.63438087139997
-3.7605938089722297,-3.7426350497566823,-1.0907377914777447,0.9684388550942604,1.3402691389267414,0.20808850801513434
-1.4449274335962725,0.5928691909252077,-0.6044805557420221,-0.15418611014524067,1.4087655239935033,-0.9873775508496415
0.7641951860069318,1.4938642687905461,-0.23126996520155485,-0.049102298259331184,-0.34646573842721634,0.5620497662091322
0.7167548445236442,-0.7225435258777461,1.104746422873906,-0.25041138388083417,-0.1377853545568024,0.12194923873567198
1.8455551527630023,1.4196654167457756,-0.4615769395683202,-0.05000534512943691,-0.930216549939239,-0.2332109634550285
-1.0439471121502562,-0.4299984903781264,-0.2999247957591564,0.9193033506254457,-1.0923264314884378,0.2119497389044602
0.800778794505764,-0.23236917194971574,-1.6695274916030727,0.004656845142652938,0.6550979228822887,-0.6220681848051319
0.6446191235287639,1.885316065072996,-0.2416466829234696,0.9379175019512964,-0.7861949283878298,-0.5091569826375903
-0.6370938667498335,1.518247699789359,-0.7069412366785186,0.595897456319149,-0.21223065067645352,-0.569926582694212
-0.67163614391782,-0.088839118929114,-0.5605366289426873,0.15427941634612582,-0.0017973083718196836,0.3984856704420697
0.6887693497142364,0.9725905696640175,0.30022658520506074,-0.12183993119188877,-1.4019927087136639,0.7011672625787245
0.028114405382408947,-0.9465482216813317,-0.10896166616895439,-0.5592443518740178,-1.2389803552754581,1.2583469935335436
0.4769292829321926,0.5035551051149487,0.19028191603811787,-0.32292440968142255,-0.01960323003124285,-0.4202733400425704
-0.42550659897900567,0.6887576217929671,-0.005472009577094511,0.1416197111760906,-0.9741531038217447,0.3962958952745306
-1.988052138591707,-0.4449533514334219,-0.029126309897653357,0.2629388051739469,0.027878774620920088,-0.4763834486665037
0.6766101559111651,0.2446687840719092,0.45184625337827794,0.14247799898325145,-0.4752233538634011,0.49063600652789086
-2.035604381503013,-0.025854275879873517,0.665896264002207,-0.2689994074968065,1.1376826139752632,0.4676958215368867
-0.05072551183262594,0.7017655602626166,-1.0200308036650654,-0.7587668455886928,0.7175035976556631,-0.8896856496511413
-1.6098875633339995,0.7553649863555144,0.2249384322488524,0.29238026575147913,-0.4331362118855195,0.5347034607862517
-1.4697691540722135,-1.2619207066277223,0.3190906137082531,-0.5243690804813913,0.2000816692974169,0.28642008389117685
1.9118911649070907,-0.6407336853801867,0.45233497147348684,-0.9984183623280336,-0.6834474460687266,0.9294256320620949
0.1246705675032603,0.6594717106064419,-0.08934900628406015,0.2828251793262983,0.45081838651717143,-0.8733201073395026
-0.8660377572179977,1.5314723307061775,-0.7455030976749428,0.5293218625964695,1.5057406915077949,-0.9566185465375201
1.1372001417980941,1.8530833268172981,0.1859555530004442,0.8748657526519306,0.07013011292158804,-0.7201797980873406
-0.7220012913058794,-0.06574041451545734,0.4893248706688358,-0.6209802584680183,-0.22864373889610365,0.984748191939907
0.814991781720823,0.4227766328208303,-0.2678357487154995,0.2649841521981588,0.45326226926874674,-0.8745982622720936
1.3952923103329786,1.960541893974413,0.06977283642452228,-0.3481331900197702,0.03088878165320459,0.2282261583621645
-0.05146123105715387,-0.3074776966876078,-0.5753921041834322,0.09746353837836946,-0.00658942538646512,-0.1960505924926427
-0.29555088853925715,0.34401613622902083,-1.0423864680154036,0.5403355557371208,-0.8932979529511496,-0.4758203886900223
-2.5305363488182935,-0.912271814149932,0.1322393208351561,0.3702774698813548,0.3340894804949371,0.0010736291622904168
0.9194919046773702,0.36881856360971066,0.4200417203078543,0.194906050944636,0.5742577227565981,-0.3867898246959515
-0.3682217962029493,0.12184063561641388,-0.16081837573423105,0.5676596016895611,0.07188752620210248,-0.31463402941623
-1.1617754119426091,-0.22571465575401817,-0.4818719892839812,0.8907645238456732,0.43429857768318086,-0.6735617518866648
0.11663979297071506,-0.5133451537888445,-0.42949676992373087,-0.4407663481461018,0.08620845728198008,0.43818641563319044
0.11544786203929325,-1.7982197902008754,0.28018053534007753,-0.16303908672632791,-0.9831083156584015,1.0715520973248913
-1.9271249480475057,-0.6063661137497145,-0.5169792938827428,0.02471767759488011,-0.20630238808372225,0.010976023261222823
0.7886573287393802,-0.36869589567357486,-0.058082925698774365,0.6509156646330411,-0.03725901661870858,-0.6019755033320096
0.3973278299965517,-0.1429128824474996,-0.6643267317565524,-0.14312443077847703,-0.8391397637971838,0.593844495879203
-0.8794884582348899,0.3064127413211132,-0.07925703062975846,0.12858043071083983,0.5217774262493193,-0.48062778028951814
0.7012176855186156,1.2158027509285323,0.11081806953690959,0.23210491345398293,-0.437490649808134,0.2000090661833533
1.5886723211193456,0.3165626960834629,0.9154132246438075,-0.1130344614302842,0.09113625947166734,-0.04935809229865962
