Gx,Gy,Gz,Ax,Ay,Az
-0.8347789999999935,10.780704999999996,-1.6715399999999934,19.453999999999994,-722.4160000000004,-70.49600000000001
-5.688584361542259,10.888909173970795,4.266833627091779,5.536793441604947,1.8941743085959906,4.612351875611703
-12.393913724168337,18.75024599887065,20.11093697116501,-3.7425986243324822,0.5671674281630357,3.3962200391245236
0.8609846207647374,-9.976541446340274,-11.118916712398168,5.9374398573276,1.451090431011089,2.7071835439094305
-16.43729472002814,21.666752698386855,2.209624590555963,-1.747309171790003,3.020463861354287,-3.7166558600923207
-24.196579598564746,-5.356968740387874,-9.9785741603653,-1.8770856102078488,1.4501232683173733,-3.9366868050728607
-8.208042600240871,56.36800672381471,-13.25761557763399,-5.395240045279729,5.436357546606896,0.11224144423483517
78.22734732950474,-157.6097921734568,35.19177434746012,10.555197821890653,-1.06656380484511,-1.6957545805832632
28.298746393483256,38.73199518371746,9.531921168565688,5.193208504526697,-1.0419888887658293,7.566467266890958
-4.5256414189577825,19.360339537354964,-4.245274028069176,-2.112723782201657,6.768935016806087,1.4131343595322274
-6.346958433994308,3.0282189481329986,-2.468914937403759,2.8097119952543013,6.015728076509407,4.3922913101314585
9.02519857172424,34.85996418590232,-9.28005684535561,-1.9012055328121802,14.43899703812701,-2.645729046934379
22.659014366770926,3.8943466249623366,-28.836312952820123,4.041222597478674,9.619944690565564,2.51592943733314
38.6720663289666,29.982275399657112,-53.362129717770046,20.00291429963997,16.487211772931538,41.92136238419636
-3.8881215196692507,25.94847389404584,16.033150838003504,-15.944196663273939,19.9786731751846,-36.94904002066454
-3.6974376737439485,1.42047130900648,20.99003485569503,-2.901247276966881,-22.33134481965579,1.3762341034584296
0.9656110665232926,-8.090631535567605,3.7773358655229554,-4.814797393645858,5.011593542535602,-4.770443067264925
4.830822367843179,0.2027153145103675,13.738608954493348,-3.4761897518278135,-2.1342762570376337,-2.0801704091349755
-0.6788574001984169,0.28661091713404296,-21.473367767052707,-3.7949642609375704,0.5505827590536563,-5.394570480512905
-25.72108462564001,-5.792006485842145,-4.770080344851723,2.7544752080599366,5.828943720447908,-4.611220836211888
-3.180693188232244,-68.07873718507156,34.40649293008584,-11.858953319604153,0.4165550815702632,2.026189349115459
-33.00452889189974,-21.38272226494903,-18.761068447123645,13.816748800718049,2.742105036670015,-0.9773272160191881
10.125535953220243,23.665397362532666,9.498395093760204,2.84378139443597,0.15483200472686895,0.32321393786883645
5.207141452037721,-33.04928941815336,0.9793271857893684,-13.012485025239044,-4.4498932959979545,-1.0713744556434281
3.6033848076803805,-17.365213777331768,-1.4275123315501457,-0.9684889670259635,-1.897834285009163,2.029029788142918
-2.309316321331327,-11.159266459000488,2.021433650887352,0.7554075002951457,3.9448921125994096,-9.856455790699094
-0.4710211836841365,22.20409902503065,-2.4183250849871514,1.220230746068304,10.111779880714971,-3.432733138352406
0.7053761325207439,-6.427173494954633,-3.2046419462538385,-1.946887523902541,-5.211644259902405,15.318623706120032
-10.54452348796371,-41.086265295193684,-5.442901371953594,2.2263612640745647,-12.645768622899944,10.80484339058304
-2.4603266887346065,-27.10690361145761,-7.323126861182769,-0.4618365990972917,6.529931732617779,0.0076186224044878514
-2.6353338977381853,0.6534292333831928,6.689251048112265,-1.3614373037036136,-0.8301153408890061,-2.808262694648084
14.239608908027739,55.345660060396355,-10.105848306289804,13.851035370463812,-2.619434601893879,6.28810105334451
0.7782937532329677,10.637977743109753,-19.823901613358846,20.718101697375907,2.4678957002036874,0.2845423007190052
-15.97023959445833,-13.597968227139239,2.8378455237266738,-3.2034683262803973,4.133018634764222,-0.6352010105187715
0.32562404668716827,42.378681237714844,-23.186644973443876,22.809153969255508,0.2793331510728544,-1.3984663604771628
4.497605337540083,-10.332335198318143,7.29072984235231,-7.660085708493955,-4.8493591046963544,0.1818899390560076
2.62705093103368,-28.913873137501902,3.930228613263612,-0.4264806714476084,-5.806423947648669,3.023895479610591
4.282318824948741,-3.5646340884503385,6.295345770608399,-2.98151603296153,3.0566778093281246,6.311161354277326
7.502001051152548,3.1845183091840945,4.998906458932378,-5.556809953121513,-7.1311325584924585,1.6866774203270625
-4.52126584643363,28.18952920255425,2.332673399890753,4.277138319405386,-7.22302835826876,-9.39927653665395
-15.758288130678391,9.41815319045972,1.08519620739968,2.2737218377817943,3.6176688452983474,-9.17550593383102
-3.3894875010124963,20.67823843283693,2.888206875148403,-4.512700576635134,-21.627655903157045,-18.19694457517911
9.095945768724684,0.9094010569505144,-3.734064674719317,-4.501160461861221,-4.234443232863512,8.45118688880511
-3.7485367235969997,-19.80888617246499,-1.54300365131155,-10.19822464507457,4.3108775013579805,0.32167636735785266
-13.573129310758052,19.675055269978287,15.359318999309522,-7.119167462396692,-1.8699965872078517,-2.4623798434374367
2.659846658745624,5.467445632261274,3.1573619829826565,5.315933187990318,-0.3367314262855641,-0.09575290300880113
3.0016024436002575,2.1746242754921217,-0.22662263402454563,-0.2321461672416616,-5.966617390746047,2.8479857660515866
6.892497740150478,22.573520059533333,6.124387128833495,-2.441882153236411,-2.4273588103377373,0.1848890941071173
-19.404771657769384,-24.658820029492873,-15.361942169319754,-14.733676269717119,8.166534484006267,1.097158050321712
-1.0461286145390316,-14.775289019709925,-18.903392066943237,13.165307129268497,3.0912718791042657,-1.9428045841814585
-0.4388585692848679,-8.836910882725334,1.6348706092077876,-8.846419726172162,9.29461057723954,0.6505693357907172
-5.011389344146297,-3.863568754243765,-5.657708114661518,10.039648406874058,4.579164596843172,9.823705366819652
12.127910187450798,0.032671658377037005,6.870197405878738,-3.6295565372303416,-5.858587548208282,6.5225711141265705
-4.647694873832565,-18.749957145482625,-2.7066608207531213,-2.625832705258324,4.056636818741119,3.948998771738499
-11.76206012988551,0.36573796051256124,-4.252792420714398,0.7223357034694877,1.1682478670206713,7.014556879595737
-20.76158046452677,17.13336577882878,6.400584608322235,7.312051503872984,19.965705733395012,-7.997728816467582
27.299511409486534,-5.311112289843244,-4.852947486358122,-4.282770727545037,-8.982252822159802,-2.3511546872836178
5.916867833700292,6.365097951327556,-2.2750684636626026,-3.876744865295347,2.5003555183266393,-1.3335715662504883
2.223963372352059,1.389374066030709,5.310510826716263,7.070188843778366,-2.1648012980067293,-2.242186330805729
-15.890306840431554,-11.151370650753387,-2.1732804187419696,2.422547520641552,4.797594086353213,0.0734381495470029
8.196326443368216,-4.396282106386176,2.054310593418914,-2.3909859201198618,0.17004979772873208,-1.5296078689895651
4.9521575207239685,-4.673309322034049,-3.579371337760643,4.525675157827299,-4.805066888983273,-1.852003172900314
-2.7739835609139982,25.67505066460982,9.581486707202858,17.883741318823027,-10.22695985729933,-6.940714455800778
16.430317694420637,-9.330086526196588,3.217878607311836,-8.832945002314329,-1.1107289581395854,-0.4825044196632593
-18.98568975471445,10.619731686291303,-0.7128499015210608,3.2344687111173904,18.425195435010956,-7.552265810844034
7.8905224990987595,-1.0178537713450946,1.313460351122263,-5.611101448099068,-4.679062176527684,1.4879099327128293
-5.339668045200878,3.0233601592057617,-4.622447117153255,4.3664054612275365,5.234511288459423,-0.6432547298564518
5.728849190797212,4.002478377417622,6.32649341526208,-1.3645990887550934,-0.15171181844466952,-1.9469322092411363
25.911494345118534,-10.326380389568293,5.057564629148841,-2.807388457271056,-14.94781099439518,6.396541061858954
-16.441126280079125,-24.21382530055272,-11.016779404678449,0.19622226547300015,-24.487859429211582,7.783359889278655
-12.338872726963125,10.951011994707581,-2.1978332875677236,-0.9036584651077186,10.001602833696275,-2.755443023449858
3.266557308775643,14.270633312558545,0.7758285274619929,3.316353117953017,-2.1071292984993004,-3.815165862994768
1.7610001523086698,12.083613352471446,0.2547358505335722,2.2609678042470285,6.257925181479775,-4.085531849576691
6.328443829511246,-7.774464640485888,1.223520192154183,-1.7914948985680343,-12.199840474759686,5.172288582139021
-4.860165634444949,6.04544262492365,-4.568343596592358,3.839027491904044,-4.002845439760949,-4.300167800323521
-3.15483412425103,2.559911437324911,4.528155024305752,-5.74064963766308,1.403653240788202,5.5188994132030205
13.87974899020049,-25.957622003384817,0.5836747814170615,-4.412976759218633,-8.647539166611354,6.517647013892631
0.7640181238226882,12.413119760508879,1.7106250174886015,1.9058798563426589,5.0603766540839885,-2.358800306337373
-10.294066599124623,-7.927032141269002,-4.152486633648743,3.2059384955864068,-2.3239421530392828,0.026336269365483833
-3.5609657660027865,14.967315949685133,-2.6134587280207695,5.579370230282131,9.123265615191842,-4.258527493595064
-5.108722052398196,-8.57906484468978,4.842761034605863,-2.322667632466456,5.4869622075253375,1.6026178721765831
-16.175760424890786,-3.8152289973406153,-1.3366245584825291,-1.9488797868628749,8.203094006270835,-1.6723877279866515
-12.564193771073494,16.615461065983084,6.6161341134179175,-1.4871616361055675,27.453115842060114,-6.41782777605467
32.8343874329209,-7.337799791160355,10.624399304801617,-4.219561885304472,-5.003187607710244,8.521141131012676
-1.5407441009932632,-5.8582307154620565,-5.076904779697391,1.406419097128754,-8.35279120918112,4.06080147399936
6.737131016724549,-6.862532802517022,2.134712497096345,0.692542529671532,0.3074876520169223,0.9225104955754961
-16.852109188247546,5.089318735355177,-1.8748550276723517,1.6895620199193957,0.5700862670689251,-4.31990127957987
15.076277215192569,8.841640065176781,1.7181920032406524,0.22789533181240618,8.978417269170956,1.0208481050992144
-1.9851119812141946,1.5085705424281723,3.6312250279024014,-1.257107721295327,4.577419823923645,2.2869922157071194
-14.097207929852637,4.157417600928403,-0.7490950938720367,5.723777431563624,-7.2769768311437675,-8.917689603448975
13.696433756275788,5.584779372492941,-0.5561057386453674,-1.3784331730172825,-10.322311930512129,5.298117234637102
1.404029802639517,-11.602970861609052,2.190513232519992,-1.5016164279153514,-2.4298903575706063,0.28613946655444433
21.08633302330502,0.27863844410007577,-1.4701215565767025,-1.4794995878890282,-4.645907080572406,7.163836632110987
-3.6360730991574925,-3.341704099943348,-3.7810726574526647,2.2839369010280053,-1.4071586604908184,-0.3512710623977915
5.1474320057644345,11.994513582767652,-6.355682420028226,-1.1098939389843545,0.7729276691379288,0.3531642282155487
16.287192777082755,-1.682257993611926,2.8345507519782287,0.32684970269806846,-4.857879048004962,5.995491973687967
-30.224430999300147,-12.836219246510444,-2.745227546781183,2.926664717213619,-8.475526226002541,-5.541038291357978
-15.614006921060867,5.45551140081051,-0.1228923731905891,1.4449544124746971,10.907394203011528,-6.827042521935709
11.619028610929712,2.106503716639776,4.26781175776621,-1.8978058275302372,-0.1854570169415446,1.5140742521635833
0.8721433227694124,5.745422422283988,-3.8856672289549428,-1.4071934021469172,-0.3662617581697214,1.1216633095341764
2.410691465313999,-10.632381940611147,1.5281033498846126,-0.07317801627544984,-3.2053783104000066,4.649781139513556
-5.358093547008798,1.4555735966651637,-2.20332304367798,1.1217318425453346,-0.24461903992896783,-3.77310019300453
1.4506958426691414,3.8819563547113924,-1.218599508749414,-0.8763456776928755,0.051187001381145625,0.3649895048305845
-9.141609894971632,-6.7576137510498455,0.9187074344970154,1.1165126288200597,2.7282006270658576,-1.0700514520008553
-13.52495805711612,3.8733356667697785,3.430216169669622,0.24381814207254204,3.073384211032457,-5.356548847717229
-8.764764740919416,-4.166262450235677,-0.7758561395603953,-0.6267752517864884,-5.516300990166673,-0.2698549579155034
4.244153075226625,8.993697483052387,-0.3387488188975907,1.8688879955917352,3.9310743492204323,-2.4640341323098127
2.1325464853944505,-0.4757932676246237,-1.0801094242824303,-0.4100843292068067,-3.9044869985080526,2.4327177523846997
-0.8183549359129157,-5.405052325004087,-0.08737993865576732,0.12100393020648692,-3.068521477906536,0.6559459441040953
15.966003844111965,15.168270092757577,-0.27595531902104975,-1.1202715096202733,5.728536873703299,-0.9719871881606912
21.475211181330955,0.2079817960317154,5.529637431118861,-2.2017174122761887,0.07778992352659042,8.47585210136912
-16.216477606478488,-6.3758915213241405,-2.358326624321372,2.1209910005226673,-2.9724617779111555,-1.204004805423717
-0.3037283771473622,-1.0396351734480298,0.8030242848160695,1.6310067534633903,0.818778310605186,-2.4660426646155194
-6.868466499390644,1.2903414041740384,-0.3820703556668592,1.1046373828806568,1.0402801869253082,-5.134071240851799
11.591159771391782,3.3973011121860277,-2.198474124785414,1.5749913114978247,-3.4376420749748355,2.88495440957334
4.562298333635446,-3.577910363570963,1.2510500244290896,-1.175255991554844,0.8124482667525905,4.5703483060084125
7.692569986139192,9.89078003559111,-2.5024429432884596,2.2772015372006873,1.948013673409878,-2.2646384644246806
12.57197710003122,6.58862371551904,-0.8928653426291344,-1.1202100843557594,-5.0598246683341195,3.4131940925328217
-10.680456775333704,-10.606039103985553,3.2170001202429788,-0.9202277485392225,1.3294283524192296,-0.2900707484096996
4.603144216342978,-0.34517704685078865,-0.8071792512176112,-0.4867270449617298,0.2686472659319197,2.402427446703352
-14.23017665162551,-4.871319615368142,-0.19311391077713402,0.9146241356252245,1.5863221300768133,-4.275263839743664
-5.105643019684204,3.8922930029590583,-3.137887187418047,1.8965733564466487,1.3147851092941096,-2.8738400280677174
0.27437360373769737,-0.139199530538912,-2.981407520750681,-0.4348413638556222,-3.188472104645301,3.5873578202413485
-15.560582154600258,-4.405698925138078,-4.0189350641505435,0.5791864505397333,-0.11085452157771103,-3.0567560227038246
11.124647699527081,10.217440988252129,-1.2963493105937076,2.0535894664652865,0.9154768530140287,-2.085247737920148
10.240593566495216,-0.4427482620553636,3.1534785234363163,-0.7781399765451648,-1.8552070312441902,4.507470092599313
-3.8087237070332374,0.4376473850821494,-0.5133862591874665,-1.7281276966609986,0.8912238880386845,2.353779909854318
-8.641303962153918,-5.230534444606726,0.7564604630561742,-0.08655868508142645,0.7329423999830027,-2.331137418943651
-9.435385730694545,-1.6817953915880306,0.4653922669152818,0.47549493530684384,3.405738641329703,-3.544062873999056
2.8906659932961,-1.2623381690737032,1.187272521123905,1.0398286329102022,-1.9266001445996999,1.8718315679690187
-0.23549614381761197,-1.2550128801289988,1.0418297490896182,0.08298558840088086,0.7789706467202191,0.9119788278152454
5.20809370713208,5.9155664750260994,2.3446809061359613,2.179085688687367,1.5604797338820644,-1.417693684292445
5.4883749122783545,-0.14185116309815626,-1.3174226908064908,-0.024784828916664725,-4.836128830934559,0.2635323691540066
11.244248691197615,6.428685165697807,3.1709774482234327,-0.2335410726882987,0.42493209074116045,3.5995174071649876
0.8640891669534265,0.08311445857952279,1.668012619250977,-0.2747209275279712,2.3739789367457993,1.4756081087904678
-8.401409015176956,-2.6940739995916028,2.1446174484959593,0.23745169622221862,1.592549985567324,-2.34101604118105
3.991791021018127,0.6179934014916006,0.4178560479917577,0.1879776319224269,-0.7145791159944392,0.7231918797771679
1.5340990264516172,-3.4166835340280812,-2.6540199695682634,-0.5007765093899206,-3.2604958500723367,2.292835249899549
-13.566145484418236,-1.9877426414441293,-1.739738668865568,-0.08296828141966223,3.0951002362960525,-2.657181738394517
6.954793053130318,2.469734438665364,1.3894363895651107,0.561481945114617,1.779632740950805,-0.29068979746370016
5.648297622473214,5.221395059722301,-0.015072361034074111,0.6787978339840917,-2.862678172559888,-0.07739171520884991
7.857684666277622,2.82694834481076,-1.5889407498575485,-0.2410471002636408,-3.8959949374997818,3.1923412813081096
-8.32026579379025,-5.532326359769302,-0.37169338301789623,-1.6357882444233485,-0.3923443435853713,-1.1789816024897397
-3.7466825253807863,-0.010900984343715336,-1.2191110850265956,-0.1941153937789279,1.549775134238239,-1.3721618664918807
2.8102918408989543,0.894261543816276,-0.43871946077576757,-0.942094842133574,-2.1710793358499973,1.392605403057753
-12.16157791777824,-3.866573266057745,-2.804177389221123,0.8885624210915373,2.2269001664982024,-2.5941410168678636
1.8199122122681857,-1.7601191344233977,-0.11928257439027301,-0.7163261604681259,-2.1027880417066913,2.2385802943919435
2.083584265521843,-0.1197201609259988,-0.06811659360422978,0.31332930138713,-0.29683808499081366,-2.2801433942601013
9.657239475496251,5.612162102421809,-0.07198396687721069,0.701632642490753,-1.7717986082938286,2.0274528633955313
-2.7974748015993267,1.9729553582885888,-0.9176648755760013,0.8698776811172614,0.5315419418790891,0.009434937571357827
-3.5972283656127693,1.9944224528016137,1.0740399508231224,-0.13218796674348832,2.3081029135356324,-1.3749152105261193
9.26694573994656,5.327386223887645,2.248008814319188,1.1073160628973637,1.007749274391797,1.2048075958356066
-4.397572896270358,-4.661999601093814,-0.6580795786857155,-0.02046072373904484,-1.3731835304162958,0.7613758914462115
-7.070415795089489,-1.4020855002500716,-0.25830735114437176,-0.00907303166164225,1.7253960484614157,0.9662157083600171
-0.887596895782605,0.25037815158271703,1.1365853406347606,0.26843752270885757,2.2448509500114238,-3.1867329654065397
8.620949592485193,6.916440452209073,-0.8165884170094562,0.6018993012162756,-0.010299280499060481,-0.03739461448753878
2.8616695958396834,2.7893048818775865,0.5034841761742495,1.3003762685270281,-0.6972785652585219,0.42662324571508337
-0.15953664607781892,-1.7346260536244313,1.0221369348045921,-0.326638980466346,-0.23985709150280277,0.7102975020943472
4.2146116435887135,3.452077058706134,0.9071144445706468,2.0656587952968097,0.7057159302339695,0.3076568670318056
-4.503134765920639,-1.8689748403836133,-1.5219263386579867,-1.440337006079047,-1.2817910382956792,-2.545028347098026
-2.7779151894391476,-1.073001753396237,-0.6226207445803381,0.048567126346229395,-0.62076459910487,2.8983348586219546
-5.70159718241648,-4.646122511157378,-0.9883906514644223,-0.2885188690152354,0.23946945075545578,0.1029514756119172
3.421314846296853,0.3040054662809552,0.14810999717147455,0.661556634919131,0.6574600883621708,-1.8656075848387863
2.6372280921644915,0.019004941162949707,-0.26314337504197094,0.17907319733264238,-1.6427223487144371,2.2230857518346236
-1.6592934596602085,-2.231126841551694,-1.3637982589647364,-0.025783704686331177,-2.766235203062675,-0.300048727561824
-0.9020125613723566,2.602213727785929,-1.2446464562064206,0.13002404362789127,1.1590521769476143,-2.5194573282951076
6.004898673906212,1.7748882390149587,1.235272626338674,0.7640912972164855,1.689561036371296,1.0601438334999949
-3.208867813410768,-1.4239862627800415,-0.1274764491925091,-0.15483492625835538,-2.2101090533397323,1.705698955905001
-2.618149620981061,-2.381433201869,-0.8012950465741481,-0.12480197340707144,-1.6425368785933063,3.930413381568303
-4.354459501055237,-2.5213196686202712,-0.24348682769285013,-0.9410043006143046,1.6628478872397625,-3.449341833796507
2.1925330632314326,0.8786180839382751,-0.5326561808594212,-0.6970787044601512,-0.6360551837963957,0.5531946793693041
4.065379854791708,1.4292301167229937,2.0692156416181167,0.6522001835280024,-1.1267554129236053,2.7309521725011607
-0.4591293130885774,3.0727154841359345,-0.3539454851292986,1.0645993125772395,4.108478688309244,-2.8784125610055096
3.165799253568612,3.2650103961090635,-0.022264181518846904,1.0626932106811842,0.7992425391319073,0.7468522698009467
-2.128433485134162,0.02029504158190637,0.005159825664594331,-0.6788483484133919,-0.3058385350704408,-2.8546552118787565
3.1003260883758967,0.2994209462419817,0.05895881193777705,0.1230833068694478,-2.9839303025812063,4.370100965129373
