Gx,Gy,Gz,Ax,Ay,Az
1.697797,5.683630000000003,3.7571379999999994,-2.412,-469.608,9.945999999999998
-0.49405116736476545,7.309125481077459,3.850010758352846,0.49129393236095964,0.2918339546185905,-0.8245203919538528
6.402112614540958,-0.3574383772398404,8.863946821025468,0.5851344081649995,0.9307987654726738,-1.0071489052080465
10.889089586620006,1.5517907113551352,7.845130366375678,-0.18447008923332123,1.2452397412543688,0.016015180921629638
-0.11654408851242999,-9.78823799533508,10.455199675719603,-0.09328914077881807,0.6320722746464081,-0.1757955617232205
3.2772944799995165,-50.08846757931979,20.09036149868991,-3.4311868400035594,1.5310298914170435,1.2156605939467569
1.127871790652411,5.870715280974819,-0.3019955191295487,1.4584444255491515,1.201709560621345,-0.2155288140753996
6.383388123862206,9.150547337516185,-2.145529789084801,0.5611157926492951,4.062961448217713,-2.0369564071630477
-1.7508981245712758,5.291189283358262,0.6567469257347665,-0.6363616207683326,1.3532144481222748,-0.5201873651419836
3.507654975221419,10.06229432372271,0.17962193911012336,0.41953160569747194,9.31038332695858,-3.07192499603861
18.47405131389646,9.838728738368767,5.040682938269417,-1.3245759439797213,3.2224749300634747,15.192137045664207
-7.793800787292712,5.661013552791054,7.537104246523412,3.6415304425951662,-2.5094256140615565,-10.369452515856933
-4.03876938433789,1.881628158478478,6.000674513115584,-0.9097218086564027,-5.985165357377607,2.543530058171647
-3.3798604519996696,-8.296678484684978,0.5258048065039573,-1.281074581293434,-2.251451568679098,-0.3264133627901425
-7.582473734663861,3.4365196835767433,10.215475309613915,-0.577946892370698,-2.4906626653145816,0.2618612297130529
-5.960664498835286,24.525373620412303,14.265372705675873,8.832863694953055,-3.123327417453457,-3.88362528938451
6.974899239066008,-28.201180332098605,-33.9098098663347,-6.069493506450148,0.21081976531670676,0.5127978489614613
5.376949152399034,-1.072304521197733,-23.660003109853026,3.589806494479661,-1.47009504102822,-0.2641742163310261
2.2575287037306344,1.9559120036090314,-5.496218341754377,1.4452240361702295,-0.5875289283128857,4.27337000867165
-0.13481514976255426,7.198499600042354,-5.748934553294637,0.7804913044379919,-7.401528325875605,-3.9088778078513453
-3.8730992285966743,14.057582069345091,-4.343849360678038,2.1690796955321074,-6.630438176753232,-7.05246476820078
10.159051697616576,6.459844852266617,-1.9199674591037907,4.686839758258906,6.985652282809699,28.131046382740646
0.5543339720487364,8.214764030407366,0.42436290542338906,3.6122570901327062,-3.3917549893419876,3.9259740784303183
-0.8330051730345238,5.919273390906732,0.18875830045723427,2.028115928459096,-0.8571117498718221,-3.7292394203246717
-1.6365932069642308,-6.09118104701353,-3.655222184811334,-2.749074410070158,-1.2901429514481464,-0.8771224522043166
1.5731548748454551,2.611040120527015,6.270945059467705,-0.12008788004787851,-4.922401930734312,-2.345466172019874
-2.4951641274289393,20.76270345731019,-5.9300804107257985,18.73849979548607,0.31850155760619825,0.11885578343874115
-1.1507351952188705,5.356995700089332,3.7918803423396836,5.632706868298571,0.6043225470888918,-1.9678259091613217
-1.0698392334268152,-12.88702424793743,0.6250159352662668,-8.32050002613601,-1.0491905030156046,-4.257905375771637
2.4739233905761013,-4.1994026145137475,-4.4849542485699425,-2.8960204462397883,-1.9105833735879023,2.1862083716656597
-1.5858319718086118,-4.227066215162592,-0.2218509069535619,-3.272167759419604,-9.074680879103308,-8.460143684097833
-12.210285478110729,1.590859723022636,0.003271157281643511,0.2589320307367118,4.2636684972319365,-6.34899124352555
3.392336765695115,0.24489753619688215,-0.1948122807721735,-0.19049749621833423,-2.9728687708524255,0.18472423311437047
6.093244219692664,5.376826699276005,-0.6832156609040602,5.621950275177922,0.9879918381159616,11.794701834496344
1.8952250239682198,2.3360306743376933,-0.13669507995024974,1.8774747322569802,-0.08662186280856243,2.3959393450508273
3.101139003756112,-3.819085070046472,-0.28428668334973306,-0.5203678564278384,-0.16816817146023355,4.531766719708068
-1.6515558705972084,-4.573567524742212,5.6160494548918125,2.634332119839141,-2.006535441756048,0.4881352480117076
0.40854086798100386,-0.33488697193854877,-5.206670614183016,-5.451041223828712,0.06513917912098555,2.9674879271232473
-2.198030545414297,3.045604656361249,-8.069669010045459,-4.930991891968436,-1.3848690140812487,0.42241890293984896
-3.8629468322503513,-3.0222492312162443,0.7072605358374187,-3.0557501735438866,7.043888156138739,1.5253664352362786
4.7680286162784355,0.4560721463965458,2.3415205524772356,-0.6404172897840644,-8.282872913858728,3.843700710574825
-5.674485276375768,1.7735801275767162,-3.0170074147285764,0.36482611171854606,-3.0479787084498633,-7.309444297624659
-2.301340000419417,0.12861673527652395,-2.643519094701142,1.6868422641047665,5.591558783910127,0.9147537162136335
-13.803164340665308,-1.188459703236114,-2.5142116911103987,0.029530576125391672,15.874959682147008,-6.232103932097109
-1.494434148393341,-2.198602322654164,2.4506792178295465,0.1240898266152628,-1.858241992707288,-2.2840268626013573
0.5104447531097627,1.339384724160209,-3.169236346799818,-0.32489815217217144,-1.749970062634792,1.2049833011666862
3.62221570932589,-2.8999567075095127,5.135567827242653,-0.9977465698876308,-4.157166821192428,0.09007700750410486
1.9772932976560194,-2.0953715503023087,3.3081153273081574,-1.0157071657743901,-2.3756314468197965,2.003234590081793
3.3079975972521107,-1.8555235451645837,8.306928943456365,2.297587498648942,-5.9937779304340655,1.6953502436766634
-0.33641748124677984,1.4054618704868482,-5.50016580600114,-0.22617635101679168,3.615211307734313,-1.0851400346996796
-0.0225998359979398,1.320176670345656,-2.825343737147505,-1.9233164630025523,-1.5469996006359361,3.814407786063175
2.571284740423293,2.270797267783878,-3.8406909150918382,0.09252981946845484,-6.664138443102594,3.726037876603561
-3.7772740057585583,0.6331579791020757,-3.2279303222430165,-0.1928657933804518,6.6729987687184975,-3.127459406336017
0.5597229039559863,2.179635347052578,-5.063468629026819,-1.6966315338344773,-1.2083690002907588,0.9996441117107766
2.403500140697793,1.0949107872462778,-0.20022374582367597,2.277988973369092,-6.936262673114672,3.2251756635792255
-2.9216007141926683,0.7694975175168202,-2.46025120399575,-1.1751438637734655,4.376552249495525,-1.9801913988226532
0.34196363746928915,-0.4455394130895567,-1.7703617654900619,0.14633238113991523,-1.6261757498816642,0.8645721758567995
-1.766881330555094,-1.7736974757251749,2.410491901211038,0.6325191678511008,2.8402050722623775,-2.3408930283383396
-0.04080114990938988,-1.3807833017327098,0.34492078177644175,-0.30436265480523017,-0.19821567215914504,1.3544654689259468
-2.783222411686369,0.7362651410394909,-0.24313579882187453,-4.202845163453171,2.3191210665364186,1.352195092941116
-1.9930296704874537,-2.3526579199593263,6.129378790996715,-0.8392924266676034,1.2803920504705024,-0.7306021659075213
1.916056503925885,-0.9735439551085132,-0.1934181297605626,-0.22000775020282798,-1.8283372464978602,1.6251673071852808
0.22926600358091492,0.26152352332225215,0.1988268295801574,0.4806098480482843,2.75979491200711,0.0935696800958914
0.27198652496896075,-0.45062357439472894,-1.500411941257819,0.07600910553939674,-1.067050307566095,-0.8977519945877317
-0.7618765951609217,-1.2219803790853931,-0.3954743712756832,-0.18959778083130802,4.840894557201031,-4.959398841873343
-1.1514767296304265,-1.3960607276189714,1.5559922568115228,-2.052549893373939,3.125838816236077,0.36193577904719176
1.0380283036882012,2.452564350738041,-2.936165731546693,1.0019368878312829,-5.482879368612371,2.796964212519695
1.895054333030678,-0.05066015256929152,-2.6601107132849933,2.097985208951218,1.4018758410465852,0.8672649042170846
-0.9661945292388086,0.3420613787002349,-0.27197059470083396,0.06754430152706387,-3.0330765411888425,2.038721692296095
0.16944273342333438,-2.47859330997533,1.2925458952852407,-0.19652542650733906,-1.233711077846908,0.7371192393606192
0.34298728610623896,0.23462336481374035,-3.5210695828913465,0.8383831562479758,0.8028981741199298,-1.8590992932846957
-3.749746090428945,1.3346638144405438,-0.08152072764720586,-1.6793593369645015,-0.2195419328858801,3.8555190712250145
-0.15720953486898726,0.4387060606268509,-0.3803348569249567,0.31425449389300364,0.4174884927618674,3.351740894012772
-1.7665649836526942,0.5074220871800383,0.500457270450545,-1.5241731348387393,0.20051691615313633,0.21668963485978066
0.4726228759797738,1.1375077132859241,-0.9044471008170509,0.2539311401475235,1.4367484609881274,-0.9645438603703107
-0.7790581981178708,-0.32617398586970636,-0.9888031612608912,1.1478694158518012,-1.5565671093795534,-0.2464466819465354
-1.311239875513735,-1.014452139301493,-1.534847822105128,-0.8502874825420768,1.274292807046256,-4.596801910981157
0.8949776832636516,1.2645702328899233,-2.412297668112318,-0.7092374939235488,-0.03693294569889882,1.8841002172727417
1.0042616266957833,0.823102209214206,-0.526439083563873,0.329746881991129,-0.7218810325045752,-2.857561979774849
0.7465640079121617,-0.34066136684084103,0.04772359679270599,-0.1369823532576151,1.131144313607636,2.0482364249520844
1.0808488638213927,0.24383729844931312,0.9752804987673536,-1.3934627894311389,-0.2566822111660052,0.6248145027699014
-1.5148921243196423,-1.4826853266612887,3.0165699915162616,-0.9483352935698417,-0.9061851556564346,-0.5991342616163025
-0.7365208671931811,-0.8474387080880014,-0.18527180158469297,-0.9276968592221106,-0.020439742072109413,1.8952886345790838
2.0380977882246123,0.1507650658860057,0.8981532374934608,-0.8806671429877475,0.06136680006598895,2.42607677435952
0.23825549678813185,-0.7009631523223907,0.33309725767982756,-0.20740067317213345,0.9843939615121345,1.2427244274493099
0.28108130872823534,0.3897435651774394,-1.8045229346040987,0.45387288325264585,0.06733598591581091,-1.3330539048631374
0.24158030064564254,1.5921498528423346,1.623676815077114,-1.1260270023320307,0.6578065728256008,0.008080094365133128
-1.8723847597401833,0.46938956129284953,-1.946967834630384,0.4859966098541382,-0.5080446357928493,-0.9515958782740102
0.8930450107778904,-1.180554999090266,-1.5991486337739877,0.7337270960137554,-0.21635753524609136,-0.6628281287027491
-0.8448796146116707,0.5608294491651241,-2.8175824459995074,0.5842607755701252,0.25940455048962857,0.48656456434278766
0.19427409271616966,-0.0134620529550451,-0.2618373535171912,-0.13566890441488294,-0.8315483592314765,1.0006168074717465
2.3943829561781382,0.7227875950587528,-0.617092721920917,0.36847710295129543,0.45968565301756115,-1.8897428456691228
-2.6785261221905152,1.3837249073325961,-0.2651731656199984,-1.4453228346313045,-0.28260825983517135,1.2828466504350138
-1.999243303772639,-0.5922309421431705,-0.27635659456376827,-0.41904689472014334,-0.657876359451921,2.4559272863156747
-1.3927593318907356,0.05560782483790461,0.9089569352707451,-1.5288705427089537,0.36064201214205915,2.4425395954791314
1.2605216622153643,-0.41424818569394617,0.11851293615744107,-0.3854210913784348,-0.5652054982471479,0.3706610159041471
2.6711716562454075,-0.41531016077146976,0.057520544485195835,0.4672547341178487,-0.4617934822834222,-0.4599483161084744
-1.7664357662698427,0.8495550033089386,0.24203216392137494,-0.5188892179382978,1.411278548836104,-0.9829023564722169
-1.8052833586500587,1.9417710627425007,0.7311569416663042,-1.2539802246987277,1.5321514391826652,-0.2140003865569926
1.3464364650565093,-0.2358179631357198,-0.7825952282675273,0.1507482121186948,0.12302547168319339,-2.952588518125421
1.2236216519576004,-0.5529105700742517,-0.9854252490580097,0.2728876404806766,-0.33232428419723364,0.8014489673613673
0.8894973590285072,-0.8752072384854883,-1.0378966736261912,-0.38984220890447974,-1.0166709165481755,0.937116047117984
2.2910968591012235,-0.2695523480800021,0.8274347914020309,0.0735176675577263,-0.7767368357630242,-1.3872227166218458
0.639993241489389,-0.19354576375033597,-1.0326481850508036,0.4438357096730643,-0.12216744309585753,-1.0937055025593319
-1.6184916226581016,0.41403970059465967,-0.15120952218167005,-0.9365002563511244,-0.17604645717311307,2.319707657085473
-2.292341472197738,-0.35582242615899157,0.1378348993076911,-0.9525988721613747,-0.38238327498083946,2.4112322872619516
-1.9935246186614846,-0.7026088680050226,-0.6979703283364884,-0.7829182133337845,-0.2192744834181073,1.9778158932190073
2.0191125550898628,1.834880908668082,1.565924225955626,-0.12515458387509656,0.1965483683125664,-0.13166700266219983
-0.015410323371386259,-0.523354593720381,-0.00867361628159452,-0.2956383413916005,-1.001747504911462,0.5382555504131242
-1.502387213754241,0.4261298210433655,-0.29122434096479205,-0.07447641908423931,0.3088577709249899,-0.12967478263251309
-1.985623558190298,0.6913372252532396,-1.1017146801342055,0.04194584688908398,0.8527108262123255,-1.4202976667960943
-1.1501705637779795,0.43306564374058465,-0.4766110382078783,-0.115743469887092,-0.2008950259114517,0.16582256283465047
3.069566806390556,-0.3763755120711385,-0.8580961881113022,0.2833934397650086,-0.6483407434422936,0.20046749507337705
-0.5320282908788323,0.01028749011704072,-0.0983360613348821,-0.5980682612866555,0.3344513279037329,0.24605117254923764
2.4204567579354888,-1.396261176804282,-1.020723593142992,-0.19030008796509765,-0.7719290421186888,-1.4711210075567906
1.214026477257271,1.0690321667861942,0.5579140192665866,-0.5854009896793211,0.5662487455902676,0.02565863673264074
0.10980190040127596,0.34065568717009137,-0.18480030185257246,-0.5178584675739252,0.1412130448533182,0.6197593395103645
0.22983565852660015,-0.9207209736687677,-1.3009176482869045,-0.18622030444479667,-0.9037970737454286,1.85991500081575
