Gx,Gy,Gz,Ax,Ay,Az
-4.161183000000001,-13.413543,-9.366787999999998,-4.7059999999999995,-498.57000000000005,69.724
1.6543377919503086,-13.994800646099996,-5.311777829375731,-3.139588776289385,0.6477139963476781,0.9624790900712877
2.870695495607279,-1.7727686753818983,-5.203949243324983,-2.0518168876909115,0.2745852243203376,0.8856781706212695
18.569827356590217,12.54778633245261,5.005495173000486,-4.621681697791695,-0.009641358644247033,-1.290970809441905
9.632010155952207,-63.292097599713145,31.817609533831707,-24.868473651087992,-0.28545435046294365,-3.232909347422474
-0.2455308350755519,17.632133782505914,2.602070754763638,4.808555118374368,2.4201954294364576,0.24494331435853917
14.38070094512512,-2.843478908059692,-0.09980198590257429,2.1035486683300197,3.4682958376537556,0.9215058687476441
5.50381719695616,-0.4354781628350012,-2.5536539385984174,0.3171914146185551,11.19699989239302,1.7705990682762986
56.686263593590155,10.696403395363154,-7.325130128302788,3.366892116128632,43.15839329533683,7.66231987771164
-14.485752404675116,3.190208209594105,11.553946286575329,4.185781994256452,-16.61237873593363,-6.4033833816579735
-14.685239869470458,-13.349116264912627,12.516644830185005,0.09547068195977143,-3.3087146428666183,-3.5199634365713104
-2.9517636692380007,-21.61751897903261,13.671637533379553,5.6344862430660285,-3.5584119969545887,-1.032509835312188
10.276784215240188,-16.888821271814756,36.222627554409655,6.421467749465891,3.3131171637116488,-0.20026801006055184
-11.673197599998831,2.2568073998300595,-32.950582260559514,-15.985527417780933,0.7372509855530441,-4.926390225457858
-6.11068633629972,0.9169235438820124,-1.5580842829974655,-0.2304789715933508,1.9705249113638215,-3.6289115080905976
-8.556625818294112,2.457919833998957,-3.475886278542464,-8.268487023538341,-1.228088038730066,-4.927963087252211
-7.3273691544343365,-3.715524059106194,5.73694959315827,-3.485873628418007,-7.452684145831802,-10.8301443704755
9.77458598418011,2.080778721744041,-4.788731582761393,2.6770105971546827,-2.226683582169569,19.706519936438788
-0.7028138707936623,-9.52921595034496,-3.659206091637138,-1.4482682802809164,1.4952841717504881,2.0187107080317754
5.353356594405257,6.145072308969265,-2.6595426128208226,1.1091477414030693,-5.572758845917499,2.8106145880197633
-3.013481340380611,-18.041261691495095,-4.0969788810775665,-2.0915581634076883,-0.460262111024223,1.4441424906852633
10.189901032488486,23.490287130085427,7.967467183725517,27.491958487331534,-7.173461562230294,11.718651236608324
2.86815030081676,-2.2348023108277753,5.198770475018204,-0.15312817476027796,2.595455220243139,3.899298634769946
-3.59155335864165,-6.759742964875465,4.248680551306617,-0.3809015320405971,-0.9516456112840581,0.9157984454326198
-4.206511612963227,-5.816882893030922,-3.0766686186965426,-2.4695406817438785,1.3986453779956554,2.203848512274564
-3.754904040946035,10.121968577741148,-8.693559672983252,2.4164575348901307,-0.5542609724407295,-24.134713266427262
1.89787402040781,3.117579783277296,2.1999156215249567,-0.1605030445826121,-0.1376240689206093,-0.37552357602441
-2.167144311740698,-4.746351827783882,0.22725176817264492,-2.8532861819012525,0.9106551656914817,-2.769692299845625
-0.42243316902929795,-4.358129876836986,6.012110063790237,0.587084016939399,0.8346805959079951,-0.16237820680886172
-5.737594570694169,26.05012508253505,11.378870899746065,-9.757275500595389,4.092581772719246,-3.3986015196555064
2.381775147129441,-11.472887650846822,-2.3547695844060104,-5.100874244339894,-3.5331091734490547,6.392851747052167
2.5979209170106152,-0.0069568261123862385,0.8683918894404873,6.572421645977211,0.8832172788167592,1.512558981277147
5.68659742636332,3.4584393020329145,-0.9549841534344362,7.362969620865376,-0.7200769294398677,2.8921179091078386
4.10273004715404,-6.353052282112721,4.935193450489811,3.713070203043616,-13.787183892562469,17.622604547266107
-1.47444979574118,-16.81594435842472,-1.4001857407475633,-7.635976918214045,8.029273953248769,-5.993997654812748
4.346697446444461,0.7039552740221797,-0.8237277605123963,2.1296574813468894,-0.10700843088882495,-3.3767318245384663
0.5568511282724444,-4.852090362184731,-2.4464531963306317,-6.454482960234728,3.2586041705095194,-5.44369904015576
2.283876207185639,-35.219208675332524,-4.621169759131452,-29.426388625063424,-0.5594210382429894,-3.3894400128021123
-3.47961165942231,14.26460235293915,2.5451905818786327,24.728371693439236,2.4130918769138394,-3.7329968750393774
1.1222438186684305,1.7445296097489185,2.095289308698449,-0.6438212210321659,0.11902629058337677,-1.3860385332960776
-7.860472012606852,18.43414453459357,1.0359409385498706,11.198473635476434,4.275174637966721,-1.7297032071490093
-9.803891134172574,12.915856319158985,-5.704803843055172,10.82482867241691,13.063735184747648,0.6973213648172223
7.165369281760283,-1.562451569300495,3.4810833548773763,7.205110543471934,-14.649944209417257,0.69486910835277
-0.42952639634143086,-0.21379491297970787,-1.8414496392880144,-6.543488533423977,-3.4114084078772553,2.1209965075358546
3.954996528011473,-2.3641975573672322,-0.783823349773263,2.5890178572628413,-4.164143227938806,1.5444044017753118
-3.137447077945766,-0.8734293930617414,4.334853665239372,11.361189882667604,0.3978196389231341,-1.4947031165789701
-3.009918249672864,15.290368064694226,-8.529991952773804,-10.34210699032062,2.047396893367199,0.6105138899853504
4.047902108745413,-5.516778488007305,0.5345347634408979,-6.983568874022012,-6.214754504582741,0.5904060494812731
0.725872200736793,-6.196816032691333,-2.2482650791446783,-7.619370147593958,0.22900925940507455,0.1371757554937933
-3.6232304573799885,1.7456306280593816,1.445416181387817,2.036692227679102,4.112902688602672,-3.222871082498591
1.5544820965060107,-2.646780240546718,0.5431440487445802,-4.083413138529672,-4.688572108102714,3.964825109157461
0.5679352785279024,-1.4941245243557617,1.1119705597756326,2.2799522707065467,-0.864718815448986,-1.4344222173895234
-0.7793277622285866,-0.37483878980141494,-0.5044974300007934,-1.1524188761339627,-0.4206415218059181,-1.1598265863237955
-0.9372331756877149,-2.629337681387294,1.7780411274778185,-1.9109266881982325,-0.5201593498724346,2.18062076916332
-0.24532646466789432,-7.724149183526874,4.224211725874167,-4.209221661691206,-1.884314730627426,0.8907730801608298
-2.6281390153510777,3.5123951250269156,-1.1956658781531726,3.729000132321122,4.06529779486303,-2.9476794104035697
0.6347309022018666,0.9050691505983413,4.112050205846408,0.6361644629330456,-1.3915611056347208,0.05643262225643708
0.9663221458436393,2.244823870024975,-0.6231211532753942,-0.32588522267884423,0.8218047933732897,2.683701442956152
-2.2669269862373884,-0.39866987038045204,1.1907244177549894,0.7707705511978536,3.0249949541972883,-3.2000563665448007
1.1059807168330575,0.578952044971798,1.775765056047966,3.3897641208711176,-3.7496176853307324,0.3285661540738747
0.8442404888111836,2.038350199539237,-0.4621724582537148,-0.3309668034543656,0.2575256965552357,-1.120895468216173
2.732125448859871,0.4717496938021126,-2.2449586973305364,0.27462985875498847,-1.9302773746956001,-2.7590156860167827
-1.9634466496077936,-1.6484103154721828,-1.1186291260414927,0.9834709841108479,1.922415322309095,-1.5798052978348833
3.533684000398418,-0.516934414664502,-0.2551955008375719,0.02224264068712012,-5.639348914259388,2.4363485553218887
0.8482292488742669,-1.0187614285459934,-1.9559636428425153,-0.3444366323109075,-0.7221654065974263,-0.36089971391217146
-0.49839777414531294,-1.7472568277782816,1.688786563717926,0.03850365719076393,-2.2030779185025864,0.32725831183054876
-1.0282003182382193,0.22650841671776722,-0.12583525476089932,2.468118291068073,-0.747648904086217,1.5599741774016884
3.405024844416784,0.11392183120312804,-2.176983845270976,-3.108713116125055,-0.6587516318543998,-1.3841509441897701
-0.7175943326020233,-0.7577306657079959,2.418671957158102,-0.6058353160050638,-1.6107589341434783,1.939700731241612
-0.29412127329652993,0.8448051874650542,0.6230027931705848,-0.28697663669637286,0.48069491270458087,-0.019613142328951616
3.1845624153762726,-1.5213138980806924,0.5100178412513459,-0.3042952598121478,-2.6792719018918945,-0.46913969337330896
-5.576858815002085,-0.08175336229394237,0.6929743254894154,0.28686688336718985,2.651687288014589,-0.38822539051173105
-0.42570880289419366,1.4170755772897081,-0.36829665364895003,-0.04671639556699203,2.1474024926990722,-2.2064531758953443
1.279613280226,-1.4764028727016938,1.0549141762215974,-1.2200014818736677,-0.5689275004326269,-0.9035986026343337
1.1610566472415327,1.7012969317718716,-2.276414069446358,0.8841885447448221,-1.41757190604479,0.05384046298150422
-0.90027291301833,0.3842817328668768,1.1154315675577273,1.7781490882480315,-0.43307891711392443,0.9556679867941966
-0.22377735539724442,-0.7048432335936833,1.4447666000615587,-0.4973164179404938,-2.3256098684739794,0.2170216146448778
-0.958979118643299,-1.2673300129413363,-0.11110239528860566,-0.49957046348469136,0.09063122223857129,0.23834031415882528
1.2447951317283437,-0.45901244676742514,-0.30753641855624725,-0.5378986825438317,-0.1660768712664184,-0.2780347235159195
4.460497878057057,0.4717343706212358,-0.5320419324337461,-1.1388180155967946,-1.4780061468540022,-1.2156410266891085
0.972198424387044,1.2369206040782275,-1.099734472605573,0.22603931485878048,-2.3799152565206425,-0.18624478574400344
0.24577643056948717,-0.18921214433828565,-0.6321275590618967,0.16994161331533858,-0.5830842691447078,-0.7798510750683836
-1.4018350989989738,-1.3429201752844668,1.6123309566554946,-0.5055743047348283,0.014193315816845242,-0.1541339428137133
-0.735653059168881,0.7887757857041087,0.3357245211754223,-0.4543447452000756,-1.018785873795328,-0.30439997132250207
0.29561549999999986,-0.580541,-1.0253150000000004,-0.2580000000000004,0.14000000000000234,-0.7380000000000001
-2.6069595481193186,-0.6017754131386269,0.38931008111629295,-0.46647749741841205,0.4743143438852062,0.699141952238635
-2.8673951005252594,1.9698263786548433,-0.7098378549730879,0.5243568930050526,1.4332566282480719,0.3185829834092324
0.16604814036022014,-1.3921843265996954,0.05153773922745519,-0.2567043199783018,-1.5310502120020133,-0.23572110528692192
0.6016816172450523,-0.8825358797466344,-0.0679313795407186,0.024156006538552877,0.41734062136816696,-1.0296383066578485
-0.269115795966117,0.7987392268509663,-0.0936551195898595,1.0244650273611071,0.41355286673897607,-1.0188725854762088
2.355273028284615,0.2566741980513738,0.7588476432069926,0.5652397553082553,-1.703465177545224,-0.8093680700201942
0.8393581287115585,-0.06160198865135125,-0.4801342417993997,-0.18979285882408037,-1.595739182772538,0.44953707284260436
-1.5697491547600888,-0.08036900412566567,1.9185034082785415,1.0345270349825229,1.153575360869277,-1.2986847002662194
2.2720867370352784,-1.2867202600504684,0.7082247978668677,-0.33918742823364534,-1.9447307269089151,-0.8650067974247502
-0.06909920701119532,-0.7289153880789948,1.3434341061100428,-0.3436667235067581,-1.179849635505917,0.07760788581123101
-1.2025730219444999,-0.10405825156153137,0.5591075247991317,-0.12853966907064562,1.489980753942159,-1.3193941137795677
0.7449610428286675,0.2217878486714313,0.640624813142498,0.06789898620324308,-1.9257557343202354,0.6947123526229237
0.28346438806838803,0.05853000529629382,-0.44715138681057176,-0.4814041112458045,-1.8656114830991868,0.4192984097637222
-0.4773497575415757,-0.40210233688587316,-1.5869442479065272,-0.0546072990883788,0.9228809078856025,-0.5811679538668053
-0.5611786365835205,-0.44709827104719285,0.01874065368189859,-0.6406564191403055,-0.1383029161417294,0.4310622794670167
0.6692003312165684,0.6117367700922614,-1.2837998015602812,0.14737814538206528,-1.1643999008845198,0.8812304846068896
0.2506769375667176,-0.21680964684683102,-0.505015222016531,-0.5520188313203707,-0.1755289176905701,-0.42812033752896217
-1.2554656622769294,0.9243297374662061,0.22757601142078987,0.097937136109715,0.128726991598195,0.1422721922672015
-0.8743176696444159,0.6270703390644128,0.9294037014366765,0.8445188952703155,-0.1856710239049466,-0.3131111363785261
0.6081118187412389,-1.0412189782999288,-0.20909735252675554,-1.1076934467064907,0.011459488220573633,-1.587629377931657
-0.5516387637801174,-0.25779480835803303,0.6434252026889027,0.15341111067950508,0.2458310092842681,-0.29110851039057106
0.9228693580204748,-0.5025816448330902,1.5055279346586565,0.24367667355860512,-0.8244361695425848,-0.929662483580461
0.46871322948511607,-0.6042291711413768,0.8131722486730781,-0.16175862649829398,0.04040211799172816,-1.4060802810666055
-0.3614748631846787,-0.26935682541150374,0.8959675526992971,0.04527534513214837,-0.035284874070790284,-0.6766255431861956
-0.2084925395136623,-0.2576772237407247,-0.14204091749383996,0.3101601152738622,-0.32721911815089255,-0.5819211227442946
1.2065764020243974,-0.8925002524609154,-0.6096820576216229,0.08686340902880252,-0.3427402975197964,-0.0518944036801714
1.6972785521253217,0.15072942809623457,0.06713003459988176,-0.4409623222852752,-1.3404023133449003,0.27196528977795076
-0.6429857115910047,-0.06616846755478312,-0.2529564761597876,0.5983991521610008,-0.20623100095264013,0.6036246812356256
-0.3702836412623922,-0.420757631025185,-0.04675713960339062,-0.10731649482144023,0.1189639424905487,-0.19378993214646423
0.10738062463039078,0.9060707721208576,-0.3998236952798869,0.07728225084731699,-1.0082204691995968,0.443873979215732
0.7796904767741015,-1.2701191735923558,0.4716181167910918,0.0023119499306218927,-0.9031158326177506,-0.4463966020743413
0.06076838461035827,-0.447740588193569,-0.21117592816083874,-0.9516761718228217,-0.11148484864140379,-0.47946475861272864
-0.868286638918441,0.3337825385690594,-0.16007203936414124,0.4636400995740564,-0.7779540163126702,0.7763491936814734
0.963889478485102,-0.12291443045416006,0.7992838369909562,-0.8019616378026195,-0.27868527946992294,-1.2813716561811286
-0.24856774340554377,-0.623246726667376,-0.33609403274277927,0.15442573715707675,0.3390374125477414,-0.2684512770354175
-0.31413223620376685,-0.2802595302249822,0.158320929579866,0.8671852149740993,-0.540671839862346,-0.21875368730865408
0.5687855920600244,-0.17674012479530576,0.41809878055495053,-0.6682589298351354,-0.7120749511065974,-0.7059828729265732
-0.24947667721106082,-0.6877838422895397,-0.10773239688983205,0.16764266404464512,0.16562101445002964,0.5463775053952704
-0.5832218730472345,0.8523219855114963,0.5320689839764468,0.11416017422026137,-0.6050146261373972,-0.37033162991273816
0.9467181746930777,-0.030470804398257556,-0.007864780027638574,-0.056952462480404975,-1.2469201128372625,-0.6025455688941475
0.46907959959132395,-0.9876981644447396,1.6045904712152412,-0.5078519385669461,0.588237952326232,-1.1770655490216286
