Gx,Gy,Gz,Ax,Ay,Az
-8.717278999999998,-0.6782170000000052,11.028315999999998,14.964,-500.66400000000016,105.278
-5.087707865466925,-2.0451816983164517,1.8521139307030259,1.186864102924404,4.548977739096679,18.193279090678566
9.351577140490466,-16.908249107078177,-12.641546871964524,4.327855603384835,2.760349214538104,12.635085313923437
-12.817127383261319,-17.491315471572964,5.879333408307878,-5.334845712360358,2.8778429089506856,14.775737358658219
11.770509860355938,-23.624226481942628,18.89636492391561,-0.15011704482777133,2.6637454132868186,9.769433344966128
-15.24047197603256,-34.78985440082927,12.202295604798929,-8.534259296818755,1.2969608466947433,12.04719197388135
27.774518196418818,14.49789310068596,1.42705196042655,6.242956199820761,5.687655136363806,11.58053703462742
5.449022962498865,22.180217491051202,-1.0608323407978775,7.901449968098683,0.966415190978072,12.62695107177823
-7.073086637639669,-1.09767190257638,-1.304291943670911,8.23984579409422,9.859854258879908,11.429340203680248
3.8626549126696856,-48.862146679336774,15.579028035689312,1.6759969739484148,-2.0776219378370198,19.48814320686503
13.061081918251853,-32.6463435617942,5.298658248958833,-0.3154796557775766,5.018811084903026,29.311949441918728
-21.54229615079578,37.68286009189648,8.595036936631432,-20.76227318656906,41.4423090150277,-43.44509323461552
-5.503581763503766,27.7454296749503,-1.0335703132498768,-1.2768813175893694,11.018273256205978,-5.190058146867977
-3.7226998110688423,23.862926755570083,-14.87675020309857,1.1933161800064993,15.282045145952754,2.0952297886954465
-9.529555811650267,0.9821483790021253,5.376010295596198,1.5829511736621764,9.185985731036453,5.835820007281436
2.1902736273158703,39.6635899662603,19.322551662624637,6.115873298987337,-2.511166278970734,9.56450780611828
-8.876932931954633,-63.34143956313824,44.34951211477987,-44.16604197666687,9.16762823722266,-4.225289511247034
6.4991470390130015,33.60355705057603,-0.9039886432163797,9.792206623704026,-0.6005148214475575,10.562367649187017
11.570780538721053,21.457082731782233,-8.260766878439393,8.41318941332506,4.291161580120814,11.420169277339797
-4.723922172241882,21.721023254988534,-7.33686752908878,2.191680772126272,-9.496378046441128,9.330005921167507
-8.223673711887407,-4.45309677740246,-4.346082155517197,12.04938547554891,10.61635122245816,14.515966506384991
-8.43659319430611,-19.3146442468956,19.346684137917652,5.185895806807316,13.945812607047177,21.930258827080728
-3.0933771936505674,18.345664010961066,-10.092824682930177,14.291788356271368,0.32270227418992725,-1.9475628713935276
-8.577668745945232,-3.4780018423973935,-5.036058545010448,12.408535781893796,-7.900377898814395,4.423647845726863
-7.146751882062312,-15.165498517290192,-17.519184554793,-6.057492278892937,7.443294497021497,3.98349900986991
-0.8249368761763329,9.577016085785313,-8.280031812671439,-15.510544364913741,3.9940687831132324,4.478372985876091
1.061444464882213,-18.292449560608716,17.637612546676237,-12.710757494500298,4.030187341901101,5.4232703616860025
24.162328535872266,64.79652292667964,-31.980154879890456,45.54313948099944,-5.982187517328007,6.412471214646691
0.5435682202401209,5.997928928409992,-26.341872625942877,10.682745191086955,4.610872246924167,6.649295353873773
2.1247476011097017,-3.169225844345469,1.228867428317157,7.5708970743722155,-6.651320399220854,11.152905972151594
9.891963627343916,-24.507966187342497,15.980574448063566,5.106646557136756,-1.0350020122464019,15.962601181569443
3.497422089511037,11.259217667767887,-1.458898204698177,-6.7659219104861315,6.468598148320817,1.80191976135384
22.550661649877373,0.2635773983790646,-19.952343098177224,-9.366091915779585,-25.08137202916209,-10.235515965677529
-16.325171094400492,-18.350536336089046,-1.3665499355816906,-4.058922159691782,21.429255637894915,3.444586985483328
-7.13547447440997,-17.42641721925899,2.9228355890029434,-18.57118801517236,10.37340491722005,9.873364701300543
3.674232839226933,5.212872190407854,-15.436008308998819,-18.347511486058128,3.584277093000722,7.651777110453489
-3.7127799803134574,5.399819780626765,4.466698759964199,11.297301131740213,5.434659709255515,9.834493356678905
-7.97228312538184,-0.5631796206894641,17.615095243421287,24.91898341815438,7.228540369121921,7.292250215274812
-4.602305503290349,-14.748904439898347,-2.8032935385639988,-16.484827671999316,5.607692449600357,3.538793821811609
-1.4521693147310204,-4.375803781852864,-8.886263054045015,-11.244584416767,-2.3048413799451546,9.481428799282451
2.7618006481663,-10.799637125525301,1.4143104071056385,-12.834621730797558,-5.200720499791778,12.595333165736784
2.1289788282734174,2.346001262693713,-5.40492495961699,-13.052946318925063,11.093907814136882,4.724968853254128
-4.943934452306471,-3.3964541684599805,2.345684806317474,0.09149715322722507,0.4964992821160621,6.5277915187271995
-4.483087586445819,-1.9512787676915737,4.439137676472509,-2.8795598090045615,13.895642273256279,-4.102566336624339
-3.5183285983202546,2.465196204402339,1.559440903529265,-12.700433567566543,5.622468078986229,7.5344018554840755
5.580844960780373,1.4100409557807048,4.298576961048568,2.6936489051219583,-0.8843091139143213,2.84333720338651
-0.9328187498552218,0.3997730853476993,3.9438990233203572,16.093347652759174,-5.739999742330406,4.144654227363547
-2.2827437221429854,3.943201545272963,0.8872988510473689,-1.4656052151226877,1.9096097313559008,7.039774845192861
8.521166175071093,4.953241296075909,8.705512762251356,-10.815643008169106,-8.584097958240232,9.763316194805745
-2.478529872585398,-2.5427048287091125,0.5755741470406563,0.9609918984583792,-1.2629274168852298,5.44899724912109
1.1117079709068243,-4.448124749389099,-0.7518466979423488,7.002721118898648,-3.3535341390997475,3.7750355561972704
-1.6817974028089073,0.9202303237357943,-7.85430373024737,-0.7848264396942406,3.002710198637524,6.500717982709759
-3.808545442797738,-2.3438861216981355,-8.069678680333514,3.8456546262530775,4.989944432447134,-7.342244534880207
5.766605424009721,1.2661605869096684,5.911879309169066,0.37808594298149134,8.586138332527488,-9.001623875198845
-10.12739524303561,-5.628970186238154,-0.2579019235301069,-0.726378640813782,-12.00609605471448,20.978099268564918
-3.953414683485786,-7.67307079037375,1.4286864116249562,6.4909406434556525,-4.909504805742247,8.600352147338889
-0.7758130617938344,-5.107060473014806,-2.8000688676484455,2.098930140466625,-3.50148886658787,4.749276966587492
4.597435862723692,2.374515277301724,2.4778018178574026,5.62511388843498,-6.370385456834501,3.164062180523997
-2.466108730403385,2.2827279642151046,2.962561842451319,1.2413026886969782,-0.6665319613756688,-4.317382766743497
7.609046183880022,-2.6395669168454443,-13.435325067097427,-10.55800621618612,1.344128673320891,8.51606866695485
0.6313498090036216,-1.4355990530836937,-2.087015843153354,1.640785949561558,4.032408084679482,0.929107799937194
3.2839746216337034,-0.9327666585281377,-1.0028575225333967,-1.3617985146228393,-0.4190886866128809,-0.19743204588648577
-4.044733315160914,0.2741589143945884,1.752656349051672,0.5439083029800047,8.597259675736835,-9.983294424539041
-5.129252197126517,1.3268515107257728,5.3442737630188955,1.561137737559401,-3.4552067263239508,-1.7604359552763644
-1.565174998895472,1.3705782702500229,1.0829726685188397,3.251136803287692,-7.418497976472361,-4.703181077769846
-1.215089019617809,-7.4396267090402795,4.548028504812895,3.3715470728731933,3.7789586744216788,1.9947311984915836
4.490397482725994,0.47713201288129203,0.06775506556303545,2.8456462642060707,0.27088949814692187,-3.5696765516101006
-1.3608812880815315,3.274874257699743,-2.522252812351007,3.6567942198800347,1.3882639155943484,-2.037777648720928
3.623961531883414,4.19918780854414,-0.04493262808952592,-3.016109841275936,1.2856941743694383,-2.2457048754175553
3.1946592188432668,1.6245162691110175,0.480066325914033,3.2691803518046463,-5.703726436618653,-1.5150418385052742
-6.127446674192429,-3.0435102797834697,-13.6928453277175,5.364626209915471,7.181150394074315,-6.631812948266688
-1.4641114197704335,0.17052873638032073,-3.039047970752013,2.2002672552875,1.810023470775621,-7.654953517981746
4.171066767308776,3.4121128824244034,-0.744018815602336,-1.2807283781949628,0.6093839605821906,-6.128899837975734
-4.220389408387564,-0.5187177527911535,-3.9357447588809675,1.108335384311242,-2.6165176418532914,-3.9505791278686497
0.22362632278352157,-1.5054468056576904,1.457238380956198,-2.2693045575009085,-3.8379744829070246,4.256519378681485
1.555741472080229,-10.86167731458761,1.1604607465648151,0.40206358000987374,-6.651432291151455,7.283817241749881
-0.256538737706298,0.8315591501803425,-2.620752300671559,1.5794925631307066,-0.9205508821800157,-2.522606714593569
1.9374025411364273,3.0666834305737036,-0.25978806095288975,0.36299635629107874,-1.0126897636989476,-3.5648327254615
0.32160664481667733,6.316953630298018,-1.0148624030096014,-0.28656403889694804,-1.407972394355148,-2.4081135641499687
0.07362918617087266,1.7413227267545963,-2.989286104285819,-3.5384515785680652,1.0521329735421339,-2.3110228637638874
4.135946507884082,-4.722328012249207,-3.9378251423872324,-4.277344020499709,2.546338767152706,0.6233399229460421
0.9014438025388927,7.9253869644700945,4.776364544057503,-0.9552076474981885,-0.5733808520003472,-7.352939563516486
0.5316287986093988,8.508530562884063,3.1683306454279276,-0.8674866491461142,-2.171881375327243,-4.565501399372077
-2.180065578850024,6.150606334848547,3.7608221327613123,-0.8377250834707272,1.3831838512779175,-2.2519722257017913
-4.10613612442104,-1.7705929015186035,3.1427734337545887,0.1918785998977417,-3.819804870808909,0.14944565905630403
1.2091695111028085,-3.276211884777276,-1.083335763568582,1.2215550446448442,-1.7110592247027383,0.29327495421959515
-3.0181523709835236,-0.4926327144322231,-1.519327715386464,1.851960687895783,1.0137079612359712,1.070795000583991
6.015493573683779,6.912466264853479,0.13017964357535972,0.8625790129986849,-3.208319724991192,-3.6374189885358614
2.0025243937549657,3.900517909236153,-1.2938531204796708,-1.0289998769537032,-1.8257664381034782,0.02409464354933255
-1.154556563158565,-0.05665360781927964,-1.498857086553378,-4.332701535054913,1.8553147080195855,2.5640119118520257
-0.21697229449286848,-1.4060747281702968,0.18259493034978025,0.7513669276667181,-0.23049767415342637,-0.9876142622426347
2.214647771898969,0.980213603792059,-4.021957815046349,2.259205184630609,-0.3168141896353003,-5.490665367911587
-0.25856351100922953,1.951803182762795,2.8801130291324357,0.9448895299633359,-2.362162706661956,-1.0869567786333625
-1.3386548544599333,-0.155774368220274,0.5275241976727661,-1.4432067906817445,-2.9470912030031293,3.537932825628299
-0.6881679764176167,-3.7073234980299254,2.595796785958229,-0.06743978508065118,-2.662830369128284,1.5041406521928835
-3.3975901924126424,-3.8357465543967044,0.6368250303454254,-1.2636932241287555,0.09744634732263058,4.509538848865553
-0.7257997924186228,-0.9492092441236415,-1.5091201324318995,1.0453200357554786,-2.8234334215736934,1.3902807497465335
4.878049854533213,4.02680792782064,-0.9709335948407918,0.9538022435494256,0.6685919233905999,-3.4942997466207366
2.16944214022507,0.363045277159741,0.12086148132533747,-2.039212432591204,1.3091885187617445,-0.16803434241127135
-1.5543479582670914,-2.805799248150211,-1.84016072771541,-0.4282845476945947,1.3678618960244306,1.252733853329262
0.8398126888819355,-0.7871615465002971,-1.0390964084943992,-0.7774583085655246,-0.6934346566829659,-0.3999549368949641
0.4626277028613426,-0.5386600869277718,0.8926120854404267,1.4384194078054804,0.8708571232351069,-1.292586748734541
-1.864297737319857,-1.3471485512066788,3.8534715527433576,0.9932363170197237,-0.07649076727798865,-1.624655197711385
-1.3209103596581568,1.2033276926875391,1.4417038374922266,-0.6520238584233045,-1.0102148755250289,1.073164701770569
-4.777569066633577,-2.6122836272081607,1.504339563592309,-0.49835078950013145,1.2932110697792316,1.0172119427049684
-2.5220027455607967,-2.512975261743878,-0.13982645309841446,0.03493424433240411,-0.31397635537369517,2.2345995057861243
-1.1625605118139908,0.8906395524242121,-1.1671445006467154,0.9995845836094253,2.1845272727645835,-0.1446804642783175
-2.0891280951183178,1.8247489695507828,-1.552939979669641,-0.21422799917126267,2.7617332899656457,1.1649096113686026
2.783248490664296,0.16074307969637958,-1.1893446765372864,-1.9667997117788771,0.1958483098849565,-1.4594710491788006
-3.950678080488956,-1.9580845857620248,-1.892051601539181,-0.8188128763940938,2.0646955800889226,-0.9334991323960055
3.6930448543912533,-1.6671637988092014,-0.47154027043431185,-0.15752817003163688,-0.8283885195014261,0.4117754076416276
1.1653280887952286,-1.2375584129465884,0.9879408680390929,1.7102643915312488,-0.6518565149816207,-1.8772757893542016
-2.3571344474506946,0.8853850011644864,-0.4149515723508144,0.28280230141760165,-0.154772248525318,-0.3201757530010133
-6.818738397002722,0.11083378238895225,0.41503234304167314,-0.4368625123565124,0.0016342342982094693,3.529988542887238
-1.4897120901717857,-2.7717169694918122,0.5534271909176439,-0.7278540408246251,0.06573463204470814,3.434513026037897
-1.4955527041019914,-1.2899088500515934,-0.033703730254497244,1.5635963150933745,-0.02186931305178197,3.06782538173686
2.6997242996996205,0.22994170776648182,-1.0673658993263766,0.4259933554283527,1.4895613275795505,0.9522043638073711
3.770803114966326,1.6804642988939342,0.05514929577302996,-0.055767732441541096,-1.0570130571564418,-1.830360076468493
0.10781247563403296,3.6618586188286697,-0.49403231870871644,-0.1828045913774568,0.023896437673186943,0.025438703925226916
-0.5746612269691457,-2.287438306184818,0.34117893764952106,-1.0982456660514657,0.5170402166353796,2.740767105627497
-0.1601018038290678,-1.133039214836007,0.7947859894658266,0.38408447914879484,-0.121113608551316,1.4773235342451259
1.6042105476536277,-1.4756160717708868,-0.8769246056256987,0.920108747644226,-0.40058108025337236,0.1708778000188036
-2.047322562326755,0.831589248615747,0.23887143592055304,1.677093571086585,1.2894260222075247,1.5666985453848261
0.08156972210661795,0.8822254090053634,1.0821935526179411,0.9798249201035713,-1.141625950011202,0.9350936265996497
-0.9590417535186833,-0.7990495933364699,0.6073073190176921,-0.6569380261442279,0.16322721310417276,2.560014672259379
1.5440985848882662,-1.8036180584369275,0.12102365898488082,0.19439896305260185,0.6176813540776785,2.7160226939319982
0.6261271255129089,1.4389757403983496,-1.2127990370426658,-0.5340014016377378,1.3893231170782627,1.7636280939840818
