Gx,Gy,Gz,Ax,Ay,Az
-5.477283999999999,8.426209,-4.203923,-10.302,-420.068,-53.892
0.15008907426501444,13.921609912798015,-4.652737363503167,0.48395646129961367,2.910820368022381,0.21397639543851343
0.3603270263166667,8.375719934039287,-1.3753348622881192,3.285234449445057,2.8491411362538273,-0.9945666233349759
3.3747335714283464,9.464292981040291,-9.933054632518258,3.3561403560602265,3.060987450556933,0.6380890753782512
-10.779599924732368,49.15485993184697,-41.107805847537364,6.004171436120561,6.967821096390775,0.7475322091394561
8.72210317917876,-2.6754073172095394,13.406010812615408,0.7004724628369876,1.7358349143112497,1.2706803234934052
5.584166685694802,-2.1045629739796174,2.688072160088682,0.10479669910327749,6.256244357829882,1.8126861892747888
12.849609119606548,2.0753398006986896,-0.1544637766638307,-0.3685905515402006,10.996915352648156,2.485985695140985
19.98555653005998,-8.081570348567777,-6.200438776175437,-0.8536383001485524,35.60419113833888,-9.95337395543742
-1.5084760818800464,13.9587976605421,-2.7560935771942874,2.3537624999502915,-29.699753352312154,12.172693973473034
-8.362782846697584,14.531798162278012,-3.3392209452925417,-0.12151128347155377,-10.138309908041203,-1.6000521002368737
-2.960035826164173,9.738969252018908,-0.5841295454602602,-1.3893722787181413,-2.5588457118893935,-2.3373392212272392
-10.123750943102289,31.930738766132162,-5.1290167739261,-1.9559346477376005,-4.166056166163591,-1.7907416272259375
9.996525680596097,-88.37811133362689,11.203370638454377,-6.880267624092037,-4.56281403903097,-1.1117304536096075
0.5451937187621663,-7.473778847559673,15.57906089673503,-3.6929764644562,-2.838336079101965,0.4124078638247757
6.35006227904839,-5.667114818313866,9.032556550693842,-0.8007096668329943,-3.870300870489318,0.48852504046862766
3.606078667461715,-0.7351302670887843,9.268319219968488,1.6481441847064722,-1.132872676913475,6.231810372087717
-5.9836707817252215,8.539880271232954,-5.246043440166032,-8.735397449740134,-2.281354313172222,-14.225329310713535
0.9246085283113306,-0.5870323364309744,6.54567400528407,-2.6730096125223914,0.5760339125397913,6.306395360195202
2.2370960321024795,-18.336454851933524,1.018165703339847,-0.7760049464715131,-1.663773502925455,4.2697740384465765
1.8026234869599618,-16.297869068523262,0.23124850529888374,1.007851778656526,3.9856179317276723,4.8070647623541305
-9.997477307242919,-16.525306417004938,-25.255069842094265,13.320373787799241,-6.7987538104225225,4.178179366560753
2.5682433116831858,-25.197298652544212,2.54693572280881,-13.595065053711622,-1.7728510229348815,-0.2376947406312046
3.6224714329337324,6.09880941777066,5.543544029476971,-2.966790753200329,-2.5248678924077295,-1.9724218347175786
-2.678458116680177,6.244804359599318,6.96703079492801,1.7309292685787878,-6.91264465318962,-6.137792541461064
3.393918429023891,10.982115181898157,6.851986923401192,-3.427425429347803,-4.867133981191777,4.334786421434288
-2.1023229205649803,-9.49202477818908,1.9739897491361118,4.6546033874929496,-0.1585939974060382,-8.07673951438735
1.4812612881421798,-0.05882794915186029,0.2895416083141946,-0.7035700024394149,2.7770799713425403,1.365605066864408
-2.544388509880597,-5.945715829422829,2.4409165599310527,-5.334909541911847,0.7627403293328965,1.4893407756987018
0.1262481399673847,-2.167311505777752,7.930845355144928,5.5190401695903235,3.635197351059906,-0.7613436794160571
-2.773520091094236,3.429813522970805,-10.492444815897318,-2.812796769905195,-1.4496303351561632,5.173345204332127
2.0688565577447466,-1.3447003152478842,-0.9569666780689462,3.07865771315824,1.5521605492132529,3.086395924159122
-0.4901783364355481,-1.0554313188360052,-0.19881399789207466,-1.2892927693221552,2.6772760107742957,2.0195709578294223
0.1562583229731045,-6.913327662383543,-0.7835334142005237,-1.1670569851347237,-0.1458372763861746,-1.899847597015004
-1.7068907677456564,2.773677694428345,3.5084073918390946,3.9764410201597378,-3.648542614310651,2.0546397856222196
5.09899071229542,-4.265826766808145,0.7112990696274707,-1.1900060564564685,-1.1276765079838111,-3.834472641153643
3.889388143438814,1.0962266749847376,-2.595880830284549,0.520143559645861,0.763577753018209,-1.2352069716001108
4.279732515820907,0.9890031840674038,2.415678910146638,-3.6395012717289195,0.8859629319654614,2.0394882017627047
5.465821049587836,-11.511251962502827,6.5742463723110305,-3.063903120854232,-1.1193672500618483,-0.5797741997353268
8.54960013199233,1.1898064459758007,1.2498014565338504,-3.111964977226797,-2.5304462665199545,2.329612488670893
-1.1167335532878941,-1.4546727467040483,-2.0692200264272675,4.539559413010986,-2.556330729191698,-0.3772288176522305
1.7224993790025662,-2.91188664097284,3.3522346367823594,-1.733055570125265,-1.0044534537102976,3.302279873814345
-4.3812435272279755,-0.9935749367165672,-2.7692361810302284,-2.2743516367385497,0.344946268353131,-0.976870803767079
-0.9543533223510572,-4.7620994461474115,6.213793140402702,1.827781661764948,-0.7937358823712753,3.138511195512754
-4.883755843729655,-2.0427279945717114,0.13915456334792964,3.181955340300205,-0.3620078511493927,-1.4158612336182448
-3.0685276243602613,-2.6322220607705127,-2.9832043790299068,2.9450449827735916,2.6241763492596117,-0.9817199334156057
-5.5500989865102675,4.167001137573514,1.6118988176644655,-0.19383090066758513,6.080176995130172,0.08548645804715438
-0.6773485581598011,-9.69826110263611,-0.18905370196198001,-0.4109429057047649,-0.9618595160738517,-0.5586759887355135
6.547623946261181,2.181768009202603,4.283344048901134,-4.1837682025587135,1.264552378547183,0.5647163679392135
6.585878893950175,5.019339735037701,-3.6914283046970624,1.0051180204315813,-1.868939513294224,-2.7811727309545855
1.8340222183897175,1.9035931769698335,-3.485074868354041,0.9759841205324074,-0.1634788690316718,1.2416179613593648
-3.453250555755055,2.4223468299278466,0.37507450590791347,-0.9900425837095365,2.5392365374182697,-1.6574960928201803
-1.0197183518965016,-4.785544073414645,0.13180041572196988,0.9160397881075264,-1.9237183380855578,3.7196838645107446
2.3314487076064183,-4.649056409543661,-0.28619377867358686,0.7987225323327984,-2.126339094575879,0.7952452417706628
3.6098437746794843,-2.634058864766736,1.6860353855934989,-1.587294096628705,0.06078608176522149,0.4214888482716268
-3.3070470710483972,-4.372342228726389,0.6497034624485618,1.4072038674055576,1.3210913524198313,-0.2738159104307185
-2.560807373849044,-1.734476128918054,2.394626606656621,-1.0751867591213617,-0.38743314058620903,0.3032129337460777
-0.9491388461167889,-3.1755678593401004,2.2549910734046543,-0.9533734738759311,0.5048705156316462,1.7181344909651708
1.1759021234902853,1.9188535427381197,1.5192644015043166,0.5272824434382548,-0.8124825875700026,-0.46893285762114534
3.4223251155517094,1.367796520438243,-2.7464157488196763,-0.518243358956215,-1.1546228809421804,-0.7031479834182546
-1.7373406017471624,-1.6461154186725706,0.828020151513938,0.2260707439004262,1.932669733381148,-1.5553130801057504
-2.170004194535661,-3.7317350717965154,0.0035401829915260308,0.15792820503984778,-0.33688714913431217,-0.02711964269503897
-0.8115924773364878,-2.562640259329804,-1.9701227524828617,0.6030662427335747,-0.626342517141357,0.8479310831036706
4.6942728966845815,1.3863405467406453,-1.044387415939025,-0.38420444893227823,0.4381917498712762,-0.07066366704156524
-0.5243518520220409,-1.025223252719369,-0.9340761079987172,1.133116731891922,1.6818688023782615,-0.42235079341279497
-0.5667680144189422,1.7871420191551453,1.5634195542740827,1.1515842287404658,0.5518122974038395,-1.3203476371798983
-0.35344261558298207,0.01346381249157691,1.2953745748615138,-1.346138629579618,-0.7483278651844216,2.202290773974986
-0.8222123632467977,-1.7778050001585792,2.959008598332155,0.03868413540773563,0.08371038316894586,0.9733296187446396
3.9571841097663483,0.6943384766853593,-1.503248532623154,-0.4630641691515507,-1.2240233353400747,-0.19426909140015086
-0.09016040089423116,1.166742119142282,1.3222931016579413,-0.7251467448913944,-0.3107058544548162,-0.5233757808806534
-1.4703501292463368,-2.228307446162763,-0.4916619214904633,-0.018853620164228202,-2.3282891102832344,0.5113322571952501
-1.5851157316804547,-1.8075242282715385,2.2007855547894843,-0.2239563750584309,-0.65647832343169,0.9621613797797388
3.0889070494226316,0.375246274798005,0.2195182672240928,-0.21403403320639564,-1.0305707501340142,0.11986824481844527
-0.8342461628494209,-2.1891997946021817,-0.1010820316631953,0.3428560971482639,0.6602850854647109,0.5791535427846396
-1.2825606924906212,-1.3409586356998873,-0.7892435830933724,1.235583268465219,0.21493541088958468,-1.4100329794383941
0.07278482017760646,-1.41126078060263,-2.8563908404972245,0.5282355418044611,0.14513230046269054,-0.35972721817867837
-3.160054111774244,-2.2748798869673656,2.1613419794259423,-0.3543882423930157,0.3520534956691868,1.3568158035488052
3.403512621419039,-0.9253330467860064,-1.8695664309076938,0.5848419858623441,-0.011770325554272598,-0.1286065798934421
3.1091343178651782,0.047004429884469845,0.6227000638445324,-0.18481101425284785,0.8387775559217452,-1.1740900220513866
1.3214388331779148,0.7185369088714766,-0.5320911007032477,0.6689891302783628,-0.5635472926923721,-0.27373501534141176
-3.6792193412715317,-3.280481016921476,-0.9058423005631601,-0.060134480868903994,0.3821904439300975,0.7418846910344612
2.8145348925596028,1.1368549625449331,-0.1754147849718075,0.18250395434495792,-1.3145311860798206,0.06936249038324294
2.4526085520614274,-0.9532508575763659,-0.3217578688679521,-0.43941152243469883,-0.9487720157918403,1.0376296746348617
-1.8190108984690445,-1.408773761719813,-0.535372499624835,0.021289770208680947,0.36646050712613354,0.006733434158841645
0.8441126319897854,-1.378806094154815,-1.590322318088377,0.9188595907386765,0.4003440934602469,-1.2102150607807194
-4.367250286536884,-1.5726164658796815,1.5444935390764292,-0.41666481879500367,0.19433585034053824,0.9716261907810252
-0.8179820394908148,-1.589618041506938,1.2005759924527781,0.21772115846720386,-0.7879766370292098,0.7109325293980292
0.21727349794926498,-0.3078407591330574,-0.3379087339960427,-0.10141191072169442,0.5481881313754347,0.1474180870669537
2.5765541351739443,0.682390472570046,0.45734522137831823,0.31528439802312813,-0.3752271522032434,-0.2113427970231737
-3.7015459818079472,-2.7476347337389555,0.48003319083388574,-0.7254150753679565,0.9537102375824564,0.005842465645266914
0.2455565034277254,-0.7398690375104842,0.36297005758768774,0.5205491055150598,-0.28608589202092993,-1.0769741693933725
3.2230048194066176,-1.5230070843230281,0.09715019322985574,-0.2972711033813089,-0.9599726188085311,0.458040301785521
0.7160075722433313,0.9338977334366478,0.03097452300739434,0.761517806604723,-0.17093578628720074,0.5131876556329988
3.5019449466514803,-0.16582187836274653,-0.6802447228301001,0.9288413704387812,-0.5237547328213354,-0.8845887577333185
-1.557143125600859,-0.4107890310340796,-0.40781655562478303,0.19502344556016893,0.7438362997663476,0.26987168695873953
0.38549007175265126,-3.2299296218900357,-0.13922674363305987,-0.46160772556497154,-0.7810671662266231,0.18551683243641537
-0.7428191253041683,-1.5380162044558687,-0.20952204205996483,0.17262709962723302,0.05697458333670391,0.18751016475437865
1.2861235821295267,0.3232446890560474,0.2893934463228061,-0.03931078007038902,-0.11525738536911745,0.5617124414867358
-2.3441399774658387,-2.0301362785298465,-0.09888789951563548,-0.07716820921592227,0.4115702397735488,1.0502268772196586
-1.6408374738864455,-1.849743350011998,0.5257615478607767,-0.0842078063662478,-0.01684362703110054,-0.9327724155874746
1.2970327613699486,-0.8233113057579867,0.07577632432302625,-0.45453390633060475,-1.065046600510366,0.2655285745981931
-0.18957046087995078,-0.8537550166394935,-0.7990459340023423,0.8693763199575761,0.34029287064897784,0.5595387864411009
1.8794427038576895,-1.074927367623627,-0.12114654706596273,0.24803881065465022,0.03158714186037498,0.05879229303089836
-0.1266770088458219,0.9337360541473188,-1.0899578562446859,0.9665682153854527,0.27963090898182946,0.011793842846502894
0.8053680415799003,-1.4156660282529043,0.05922171273208965,-0.18259928436667971,-0.6191845011305561,-0.12522969847030593
-0.1816842263978351,-1.5616426988539631,0.37124839863049397,-0.3270884906345768,0.6214874200525456,0.4000869451598692
0.20676160909754648,0.792550719336872,0.4975395594420057,0.5093731905548335,0.536077042574281,-0.042717466376305246
