Gx,Gy,Gz,Ax,Ay,Az
-4.626456999999998,-6.3567979999999995,2.772310999999994,19.506,-441.616,47.85
-1.8548210603529747,-3.1612679757419895,5.062039072202157,4.034688342310141,1.9839052184756405,-1.1648710820329862
6.376801319817322,1.7683339230563933,6.384561248881146,2.371846473646781,2.5749985529822146,-1.6405430882050245
-2.008165673098121,4.295759306238456,10.956323221262128,3.1615615428701718,2.368369495659817,-0.5032984759039116
-4.41520222294022,-17.257409012900325,22.029912549670215,1.36468725670912,3.1604139084210128,-0.5457884712552783
22.025394720997447,62.87560223722192,-69.39484974542941,2.6923531810336514,5.877163009523935,2.5756229653380576
10.75000279693097,31.87604739438404,-10.243836866186582,3.5881891250514304,1.2714520285425244,0.673121736039489
13.91816338217956,4.304458460129053,-4.185586738152377,0.8566579512546175,5.226622851807617,2.0143568917183687
17.538923236235288,6.811891125775135,-8.479979297654614,3.012290653492678,3.561265983814489,3.1167378580629226
31.803323426680265,19.19399916811255,-2.252879729860212,-1.8384811119343238,12.9742850910789,12.616954654357176
-57.24716675299349,13.156581341807112,-5.487655501541191,4.521339137435979,-15.851598896821613,-13.949558974818903
-4.964917880921762,4.203705938224334,-8.444323199768572,3.123195186944158,4.096969161567264,-6.739525450872311
-10.443289925425315,9.16921896763624,-11.870864455809185,4.05562693685488,3.502870441085452,-4.160412316886179
0.8562261856789224,14.003431004704584,-13.843243663636086,0.6390975174571056,8.894273771602965,-2.287452243333348
4.955826737760039,27.806056617250604,-42.170125553870626,11.043520080271563,-2.1117914930449144,-3.6149432465366864
1.8924333740042811,-23.047456360837984,19.833371113592328,-3.777701792329407,-3.6978260449668245,-2.0208140160400707
2.133374681697949,-12.142743547317531,7.192457977790426,0.6686183118793623,1.435644743060285,-3.6874844627458354
-3.0877505726538845,-6.843458134078833,0.9927613402955533,-1.4436993626848018,6.242081006986448,-0.20993425198132099
1.1368363955442389,-15.532491791867141,7.584520713519298,-6.141144537913066,3.028197005217227,2.5179408621005517
1.3579251053432886,-6.535965914641333,4.2245717353484435,-4.317614422493537,4.82982632222209,23.89409058459841
-4.183690576251917,-15.059442829186441,-3.1089597936844005,0.19733671965081134,1.7176260705615103,-9.144546283303047
-4.239040975246415,4.092746775749692,-0.36813815778853687,5.013888109761382,4.7066848823631044,-3.74657107597942
-2.880048483147858,-6.719184953784627,4.1995205478233615,-1.5708091096246117,-0.6311414388329544,-3.3689685469230404
-2.9458242080441477,3.769502655723129,-0.8060818085009517,2.056857236211903,1.6123036612970187,-5.129993945689192
13.117878597596361,-27.186536478915137,-12.1697593794507,-21.98702631142234,8.869532538374434,-4.108489261396047
-3.6764816433250473,7.81518760995688,-0.38873300473044226,0.2133351008234743,2.789470198510961,-1.3558328259298593
-5.682976078030992,7.353394096771662,-2.0734348869560133,4.449396536408954,1.8494658720571657,-3.8971822252252744
-20.80583067133407,-7.595407487524552,-6.740414645305386,-5.374910408399153,10.588285080164447,-3.769386195233746
-11.570581252022539,3.7092124014672763,-2.1088317831976737,1.9020041742338656,11.600557960266512,-4.200151597326887
36.9654881367366,5.51846307175735,18.692314536552107,4.749749921087633,-17.557073483154518,5.999335693784446
3.5785932533671962,6.781772041902174,-3.376828025853888,1.9742284914936052,-5.7466322293149945,-6.077884367058755
-4.6887004381388735,-2.483985455910094,-3.451031632719535,-4.568377162186585,0.18661507161782187,-3.1186207176584615
4.6754425937910264,-2.2993439684292154,-0.8535806094552979,0.38713561197840174,-0.6819148160886266,-0.9807038491232034
2.371778184207787,0.3839500316626554,-2.2542492513515726,-0.06511508721463503,-3.0941203075068087,-1.028338058496024
3.614413751863668,1.0723250687806662,0.4613755987899233,4.559979036965027,0.27972073074505954,-1.456284700668101
8.141462788358716,-2.0759465301899747,5.66051514682793,-1.850290808320491,-5.767006148715611,-1.1590075664698158
13.746578858870455,-1.2163487509062278,5.476888643613975,1.6340676389638094,-3.451636220817847,0.33549823703053633
4.910288799853579,3.365234798667354,3.0904528700251492,-2.670533016545431,-3.3179025215813978,3.650335453423668
14.208780925938932,0.261402610070395,1.512555346807844,-3.9392222200976246,3.9570459069107047,6.87850526394908
-5.812897174468163,-2.9810310661809245,1.3133778121781159,2.726236757566201,-3.8820386704551035,-2.2358578412114767
-1.2465603302138963,0.780022276073234,3.4874171352071723,3.912672495966054,4.622636777591826,-3.112273997796744
1.5989035159379368,-1.4178310429998846,0.10025585772541984,-1.9674562492485685,2.401779063177667,-2.5234733246873406
0.7788020418550919,2.2117159502387116,1.5658749330030717,3.5546408056711947,3.4114646720521344,-1.1921317262313131
3.2725997212038713,1.760807800455646,1.2685564848027078,-0.7267372235268494,2.05382537276279,-1.1262593978061868
-3.303714838906014,1.159935955841986,0.5587715445105799,4.440388662173473,3.869560284670779,-0.733775115510428
-3.196024296735264,0.9186483927534643,-0.811990031240947,-2.3145908094888092,6.367809046360727,-5.009205334027701
2.493188418732665,-3.607171103333234,1.2070417848489052,-0.3224406847161988,3.9329198571094484,-2.9965542482890632
0.9659951920577853,-0.11440306125138068,2.517878139322275,2.671325903135827,-0.5286041762076729,-2.693290563534606
12.236112211213417,1.9255257490611482,4.360584331324608,1.2409536680384692,-19.8605841884352,11.350765318726769
-1.0809130296288159,-2.527260178049507,0.16071164212462008,-3.88162121320527,3.460341916865022,-2.133915194037854
-0.2778680699420901,-1.037073987341391,2.151708667430436,0.5641972579876964,-2.6456395543622766,0.5122563758258923
-3.4898286838245154,-1.4796671504506378,0.6727223247514713,-4.644318037694915,-0.010372079127984879,-1.6739420603797166
2.39693971900947,-0.5172258631449349,-0.2401612002895691,-0.9301595372472571,2.0567815720434597,-0.8268871611769378
7.645014485784532,6.424870120514205,-4.162149128880343,6.755215434727135,-1.663423615808121,1.4373236580312636
6.906805339468807,0.8973702513235771,1.4137340274739998,3.0582262967499148,-5.441176179152552,4.225225127673527
4.7606374009649794,2.5083811585931057,0.4007001809955233,2.433275936734341,-0.1692889492779921,0.2043370644278697
1.4587001528178847,2.222006774415948,-1.7740830738365874,3.413334289717312,1.6103823215727675,1.112561826456712
-1.688535960036623,1.1794022694575461,0.8068970996417665,1.4928933200110888,4.196432384911276,-1.2176415586876503
9.358237387219832,-1.2627466230716462,-0.00948136392013646,0.2336155386256058,-8.549396422662397,3.332671515172416
4.98426743131421,1.4376789695265313,-0.6474771888162506,0.47936315871791646,1.178978840114734,-1.6620023800487276
-0.7212154812319772,-0.8543007210746278,-0.018268148190406952,0.14906093435417134,2.2589430465706077,-0.5318837710626619
-0.7833717984694102,-0.3142830273351314,0.3404692683248922,-1.7885618050939174,1.5458854587210544,-0.35315186472728444
-4.2221615415842715,-0.5407215902358856,1.6376340184563414,-4.584015133394454,3.4466881073432756,-2.721154608219119
2.030266359686486,1.0625416264179264,-2.6808350601078748,1.7080619634934375,-0.37117280535210506,-0.11025179373858329
1.827702769311671,-0.489289689218297,0.8918503749619956,0.21634811472443105,1.9526155231519662,0.7727656123281137
5.589015328974822,0.12853756224014562,0.22297954013108343,0.18561810270421328,-0.8387781327713417,-0.45593208680991726
0.8916509835956352,1.7422669097136247,0.09758626389722858,2.207787013096521,0.7249068751055626,1.8064283162717218
7.692472066227277,1.106316153916913,-0.960933706965463,1.803748107722125,-4.4186412303730584,3.1243379686861004
-3.6151211463748982,-1.283516624112031,-0.24594233942137245,-0.5637758308242848,1.5246097826098381,-0.38456106546637425
1.7259559983546575,0.1783820564129172,1.895768763275036,1.6346677361674802,-0.6086549524617921,1.583230694857162
2.519810772818836,-0.05000126419779871,1.1572084506659395,1.0163506511070157,-0.0853871272437692,-0.14217414967427697
2.0393199180766626,-1.3308549346298204,-0.6818621495004327,-1.3214044173938304,0.4685698400445363,-0.4384740872521254
1.3820661487882706,-0.006745793672598088,-4.8863838433772555,-1.4654619996573994,0.1438232940973576,-0.307753358404006
-0.3729289652908585,1.6128104175246756,0.2160338738687152,-0.2890172095431844,-1.6645853498939718,1.3666266457186156
4.276783810115201,0.5073594261549886,-0.5715364663727277,0.777157995208387,-1.3636431373789175,1.1829348641411044
2.671469363747237,0.05382081286799393,0.078002753904157,-1.111395063207257,-0.5518498770321323,-0.6793408664306156
2.0258467023319686,0.08970868673672847,0.03275122692508858,0.7284019230058401,0.17735308447751083,0.7089639640140408
-0.581462451946094,0.6865833151796235,-0.6211344917391369,0.5624519972202424,-0.2532220938020686,-0.2814885965197181
0.4184081667845774,-0.1441247433135398,-1.5485074539640538,-1.466692880128235,0.27970074848915016,0.0565288640380342
-0.14802638518898908,0.6483794164298786,-0.48162797372081534,-0.0649388752394888,1.0729785586702927,1.4591017737469658
0.11311241647734538,-0.047923487494043696,-0.26724618564252767,-0.1026761349124925,1.8316172362542655,-0.39362571617489234
3.1042649145664107,-1.3685021333886855,-0.5473560198767471,-1.333233640455926,1.3034040860673588,-1.6656193837215205
-1.024945813943403,0.5225465613465828,-1.9656011166737821,1.4192027819874027,0.5361365053168703,0.3520724777758777
-0.9771956629491325,1.0184860217301686,1.0710069148922847,-0.3671651998478961,0.554413240540634,0.7582890171642919
1.9365397394005495,-0.8944376643126317,-1.0602623052826672,-0.04282410730517161,-0.08094071015570542,1.252766213509875
2.2988565693533713,-0.1766615094737748,0.5541422199039034,-1.4456962141457197,0.6491611380584654,-0.4424975455928324
4.317721259008424,0.48293501736102695,0.27602012284697214,0.14783106552671973,0.33897503310064736,-0.034853759317166624
-1.397435797107648,-0.3872645326148276,0.4559739882590623,0.17266761601867853,0.5517747547475599,-0.6844884819558076
2.6241046197783033,-0.30938335862034977,0.09187810156739101,-0.07762311601355884,-1.0964555282426796,0.35710481734641
2.6390550982624434,0.7842620372490328,-0.9469717859099536,0.4688708321331214,-1.5757166407953176,2.030569210757974
-3.240125187160527,-0.4402478891140913,-0.08471203091540483,0.13892681365698212,1.7480665994596734,-1.0973103772817774
1.3744128061269214,0.7443544762879728,-0.6853584628157269,1.9665511163460316,0.2989375638632033,-0.37311567759586983
1.3809888181396908,-0.30313784996780924,-1.3667752305674092,-0.44918661515611863,-0.8390599294993782,0.45029731917376764
1.338906278981514,-0.5232219768766826,-0.3082624928201494,0.5532164333966775,-0.07429250823430429,-0.00017200940077644056
1.4626434273966238,-0.5639100346332035,0.127501690098067,1.0664405752647221,-1.3181297505971494,0.7121701934312441
0.20637341102618684,-0.11769630658668412,0.38039530386430476,-1.3851093757862094,0.8813283612472109,-0.494863944586694
0.9885486305491207,-1.1703797981375688,-0.0058120094031962055,-2.400327520202474,0.453980236694278,0.030191020577892524
-3.029165699007676,0.15793580151745729,-1.1096915171378363,-0.07964433967334628,1.07236013475329,-0.8051376253510694
0.6520540669644337,-0.5213536399352388,-0.3761114900983032,-0.9492058950545814,1.1082390643709676,-1.007339316857143
3.7407225977144627,0.1813186356164522,-0.02127393146703163,0.4518558274859177,-0.06471217348513114,0.06272794367625656
-0.9575846557093124,-0.0797242921308205,0.521617926304183,0.003582393788676197,0.5297613579329274,-0.16816709780225036
0.8553266929080212,-0.2459222731831157,-0.8406585761894,1.2506156647631421,0.6827300260802438,-0.14165414671292936
-0.3909063427454281,-0.5105094930347843,-0.40699673770066735,-1.2615948815759772,-0.23950140604065434,0.40744518274452046
1.5879780940078763,-0.17825242683809217,0.16507961452667763,-0.005314478356932217,0.08436624911832138,0.2715746284847681
3.5251023517187066,-0.2967787813088556,0.4764151719731924,0.5357331478175605,-0.013788278081292238,0.26953738653620773
1.7736167097204305,0.31764440509563596,-0.24943419842236672,-0.5093284775630808,-0.604320102173315,0.9323044725005087
0.7791836688038798,-1.1461434157547268,-0.08404046695587156,-1.722409715456293,1.4217267393802016,-0.6339149179081727
0.8810871579972179,1.1568889114376448,0.11496066106545791,0.5398531255848865,-1.2608956526274557,0.8152116353010294
-0.5049883195036085,0.4551655936682776,-0.9601720831730902,0.21102164003674304,-0.4262046874746377,0.5197439040479717
0.72613631942579,-0.29031546680377723,-0.38382415636080486,1.3780027131448644,1.6942109539604382,-1.8083751686972582
1.1921477812896857,1.0684259006689634,-0.11713711848044163,1.6225378474637928,0.3242275340473034,-1.5971734849854278
