Gx,Gy,Gz,Ax,Ay,Az
0.51088,-2.387186,2.113385,40.608,-642.338,-38.052
1.1467087355664243,1.7934511203640202,3.7829937524027497,3.0914994516130196,0.9310199453691423,-4.638286789653509
3.0185297508935536,0.7926749808591017,10.03160811684152,2.0886741283380066,1.0388579773202635,0.09346943330960297
1.284504171407709,-8.942587118426598,10.386277491818165,2.8155997769496883,0.5031400261757297,1.2184902368613177
-1.6321236549551599,-9.915524573824914,5.470053949913183,3.2733580586438866,0.7261841612580159,-0.6260136055163534
-4.435643770734259,-20.905894428927567,20.749265037417146,5.316439899578983,1.582816941032791,0.1420303686731372
-18.397152524585728,56.902645313207735,-43.772386684911055,-9.779649123011566,2.3993232586636477,3.7414379554925796
-7.687459117146757,14.196925782314906,-7.377196907253097,-1.6027065467351984,3.7330545156716535,1.8471326105835575
2.350317748761642,9.4214532476896,-2.467439515632332,-3.5073753189741996,3.839921340509898,-0.2730977808234053
7.299230912277222,16.825245601909646,-1.974741862734711,-4.1328822164687,7.055662623492273,3.8363409618594106
3.3541374018511925,8.250194568756507,-0.05740623036779796,-0.44424620377922697,10.874694960013597,0.4919168376092352
18.180353246176747,20.240736572662257,8.339014574785965,-0.3220331525975626,47.099318781886936,-9.961898261114978
-3.7691276204268083,-2.126293864403632,-15.033129744593035,-0.31890792579145427,-20.372708357664827,10.760473108858204
1.19823734270021,6.095849438257884,-7.159886802213767,-1.0316034997529577,-6.136184751126137,3.2064933747140865
2.100319814300174,4.909573649026637,-2.542726270493725,-1.2700304800205482,-5.239806170330194,1.094070830666574
-4.070360185955458,10.242457760851083,-1.5911917758549112,-0.26078152207933125,-2.8285351468004607,2.7649764844872617
3.934022062089941,0.8638683652450043,0.6088342459103508,1.4010254173640382,-1.8398505338558935,1.5100921551986
-14.174168389498346,-28.748893331404226,80.84236782302767,-7.200679420949047,-5.1007370342379055,-0.5373211319075156
2.5238333939554036,9.888646116015408,-5.2211342649871835,4.243107286333998,-3.616805383698464,-1.671927510181661
-1.1796051044621778,7.554716925377001,2.8666873426474324,0.6494224377864667,-2.5529900830722294,-1.3091283717237592
-3.6545133997652464,-0.22359578465146224,0.7749416589974429,-2.676935967653826,-2.7773984514113654,-2.4232176273390498
-2.720789671553395,0.3037670032397084,-2.807756283655335,-3.182983954622855,-2.0167366172856083,3.8679383392072046
-4.84397969710388,-3.5274010390155635,0.3710111653758388,-3.5973302689006257,-5.045997090704681,6.3545130449810765
10.13293192892392,7.962503834522402,5.3806115443592635,3.559354519112658,3.7120434492333487,-14.856317015339584
-0.07298284222972994,11.130934817674165,-0.03677367928469827,-0.1414608161205012,0.9010270367325337,-1.0590337624914314
-1.0245718565537159,7.619794972744266,-1.9893208489236345,-0.7255493030154891,1.9963442004955156,-0.2724156191600893
2.4283387027928898,-5.510516924517475,-1.979134940652127,-1.296467150885341,0.7564829258615033,-0.40899758608757086
2.431012072522991,-4.079292749739895,-8.760823119297768,-1.6499742519915168,-0.5847464976948533,0.3058454064541055
0.8982283289225341,4.655147513948988,-16.57016832482355,7.28533215750649,-0.5784704939541696,0.4439429616041958
5.007926688770786,-20.097442191679498,11.188352397052565,-12.635687367608094,1.461228814926813,-0.41452821863095446
-1.483331130742962,-2.6126224301902656,0.4075807066516515,-3.5289636696208033,0.6952489690410539,0.11047094633564504
5.280271586425862,5.3167802831407664,2.5128355330007826,5.345208277455308,0.014099826973594465,0.08380363527924203
4.835680629545269,-1.742801773263848,3.654251739813959,6.358964132110048,-4.810500466463089,-1.5677437471335556
1.622546374183158,-1.0004406718069485,0.12402459260075849,0.7188604146569318,-5.097389347664349,-0.7971163240551068
-6.149182005570923,-1.2962321381695605,0.383517488008556,0.2953363749120239,12.222369188462864,13.411102486814421
1.560495197428765,-4.365210464510279,3.733103421447179,1.736204125729583,-9.817084354647363,-3.2781418953400023
-0.23409183390813926,5.175011557879508,2.8556142932930846,0.9525145412903653,-3.8444706571314042,-0.8179512283959909
6.27616020630664,8.030488538998679,5.945608700326818,3.751428528837684,-4.471385115912788,-0.3925216202917102
-1.0521140785919985,6.301712716253513,6.466188471606126,3.192682960252263,-2.6753081895428537,-1.069875537094421
-5.25805864933385,6.784089606154956,-3.8315672328851744,-4.427174212309573,-0.5978670608625387,2.750641127258307
-1.5284657295233983,-4.455355344112862,8.928276854501696,8.863219816979226,-2.714414526439755,1.086325709376602
-3.3376385593907263,-0.6661512444309174,-2.384995185018026,-3.7755187761252933,2.152383853539877,-0.6466742404281781
-5.268460184920206,1.5459902070222813,-8.436289617795829,-5.468386470536059,4.334369268239734,-1.4953852339952867
-2.0934552358098917,7.55913145769655,-3.282672507390583,-1.4869414686270006,13.869708184290925,-2.598483180229234
0.103760409630601,-0.20379792149897558,2.6008240465906223,0.4842548283637348,7.123360551056642,-1.7498871862952137
5.005233439530048,0.013495662128287123,-5.838861815374683,-3.790730505850361,4.925273966093288,-6.787303552047087
-3.8724023381845614,0.03705286785919415,-2.930195870273397,0.18527294124035865,5.645927534431737,6.574387004341564
-0.5341569171342189,-1.540122633915339,-5.444734877750628,-3.2831295798007116,-0.921336387964821,-0.8720905622480442
-3.738290341848199,-0.006403123242779557,-6.845282604842592,-4.709660076953198,-0.2097364898793206,-0.6890804165370816
4.769090535228008,-5.383943503780349,1.7431964027137483,0.11186315260253216,-3.6766982761909324,0.02250477660649286
1.4922124043154137,-3.559441798944791,5.949220615147327,2.2678782711458894,-1.497698920101072,-1.5413390392934512
-0.4236683360406728,5.031473860708548,1.5110330540453702,5.416256671693293,-3.3061952790716593,5.257868386055066
6.995659398735937,-4.62640164535568,4.186566736355364,-1.841891195628862,-5.0372233397268324,-0.38389004215991596
6.849762628700065,-2.9369757101850276,7.127672797346017,0.5358869819535076,-9.094259526393008,2.1086080468354647
2.757596667874583,2.7833396548022837,0.8183645482699783,-3.4556047284022595,-12.449806470094464,3.8959252465019247
-1.2102416157824232,0.6115944103681086,-1.2033711615339153,-0.02150246664716704,-3.4912997319266648,0.3602337830340152
0.07144607938442005,3.817466104752294,4.212235958395124,3.517788617709134,-3.142469917293134,2.078506242488583
-0.1153670390148438,-0.8581478560538383,1.7401505710496652,1.4421785765760131,5.202938271454656,-3.995938780411537
-1.679464460484077,2.597469764231509,0.04955353830207267,1.5999785582913755,4.097530619698137,-0.9962355812605121
-0.48242664461915163,-2.4129960943938995,-1.7693560305263754,0.41307293358926667,4.814836096627422,-1.5206849426298181
1.4026242704651195,-1.3984786183477027,-2.8738777606751897,-1.2181635336404002,-4.54675043430563,2.1124821461522254
-0.895225839186018,0.9217875921695358,-3.0000318198991796,0.5380571333786242,-0.7185052652445636,1.1269461470107591
0.18428786381856987,1.553864883444966,3.029027026757266,3.5419684765298496,3.555851095623892,-1.0161941262806837
-3.2697416200011737,-0.1655267484541625,-7.407120856463669,-0.6484340769626673,3.6347853838484605,0.02005754309231353
-4.612155543223679,0.2145551639390968,-1.8204824395068058,2.1554563009892465,2.3191664296035683,-0.9824690005330301
-2.92963975551154,-2.583645015476153,4.209880429806679,0.6454105415804017,0.9018591935994007,-0.5475154747216304
2.969081483616922,0.05185712965415051,-1.8488052850869652,-1.0848244932284294,-0.8278829986080792,0.449493176366511
2.072975949854489,-0.345486463132064,-2.7108837789186637,-3.4527258651740036,-2.022830481280975,0.08752025451849299
2.985660662230086,0.07476851294802483,2.1576932509421827,0.5434981524682732,-1.266328040885469,4.921704031280457
-2.6139135766685615,3.1986805656852173,0.7834425311724994,4.427291939101289,0.596534592721153,-1.1652414493513124
-0.19793705954981,3.4217920610526926,0.2334017364611891,1.4914410359049697,0.6354725988677301,-0.4350339076285237
-1.040878159497113,0.1555279619909835,0.7693279797056627,2.26069333229099,2.483525985474577,-1.8956384663185752
1.1605172261478776,0.11540998465983635,-0.3100343055655216,0.31480531002635037,-2.7358033246688316,-0.2817735721101369
-1.2849510203341374,-1.241486320372661,1.694121314445315,-1.0049061673144988,-2.688241739437917,0.3044415044797085
3.515144494275887,3.73631190140729,1.7991814556586208,4.990902018319653,2.751324613627837,1.39725084357287
2.4777586523821395,-1.0751013664458846,-1.3315465668230013,-1.1529902231284526,2.005695396630318,-0.762132588744589
1.8202630658154682,-1.8868771767916748,-3.2950671779843823,-0.1645144022077626,1.6279526518728897,0.017141218090795718
0.30743022643165696,-0.9958880412645176,1.3129825874423617,0.08209691571955821,-1.174020283263258,1.6093504141593207
-0.14517227859716086,-2.4600469925941395,-1.806493831430437,0.260167774338697,-0.6314979959351923,0.4988777714089688
-0.49525563425511304,-1.5813156462658817,-1.5711025708536792,-1.6627279884847441,-2.50270734901135,-2.1018278509461195
4.189085066427649,-2.212890958096037,0.5074248884784112,-3.808395691790289,1.0078173664940444,4.301534841219837
1.802963638791653,0.3041814889892454,1.5304718878391146,-0.35841334492788995,-0.4920163346145565,-0.5846748606146279
2.583726619183885,0.7090118054987016,0.21349272897417276,0.04157513130276436,-0.11947448908660441,-1.2255479810876282
0.19038944663209634,-1.937223227179759,-2.312855079007167,0.26320497693732625,1.9540368503720749,-0.7844783576567238
-1.8389106418368213,-0.767667796300064,0.04699132297400377,-1.2101168600417203,-0.6344089740516665,0.9824081107433054
0.08642235555542119,-1.7791339731849107,0.2763645754886881,-2.287652382778476,-2.843365791143982,-0.30973154605782716
-5.988240796291839,0.04928883731736655,-0.3168526004245411,1.4836853113279447,1.0387132803584853,0.020624752542192648
-2.526959055229155,0.12977814475506433,1.0343483733023082,0.0851232574215262,-0.9086387238391522,-0.4590626004586235
0.8821272901696171,0.24184619842132526,0.2801795852932356,1.2548258831444707,-0.8365746962717455,-1.166358292409313
-2.921118239427775,0.7034612072306208,1.077045521050478,1.0356842524298977,-0.18459078673822366,-0.22694784555660868
0.908416500160959,-1.8465997122888054,0.04508925900269656,1.2364006446677764,-0.24407472772630578,1.0289579876362733
-4.786443503300762,0.7632096618256223,-1.1530351175859916,1.8953444394266237,1.5654827417348083,-3.1683370223436755
-0.2714995166650394,-0.876887024437565,-0.41099101525850057,0.05662017279657705,0.9000599884990628,2.0761662190197496
-1.119406832404751,0.3076476187816515,0.15682110799433135,-0.4371109903107874,0.3291191515085279,0.7482547471904216
-0.8023744938503197,-0.5968134628092786,1.7353531507170907,0.42447588276788384,-0.18732649881561558,-0.21384751140294744
3.9800466565088866,-1.0978117769661768,0.16058161646013636,1.0602549470364862,-0.21612121717964605,0.6478341153075218
0.060455805097065274,0.2519737457681157,-1.9098277429603794,-0.12055290409576536,0.11110969511237978,0.013756690641273717
3.616752789424117,-0.21944807699882185,1.0437686952290168,-0.9112770704182469,-1.0127365724704673,0.3363068977623982
0.04846408218016007,-1.5228783279318003,-0.5718533775731363,-0.30868277755181084,0.49024793735566363,-0.04450666050230212
0.9054720732248884,0.8671506846774939,-0.464377466893954,-0.13159164380513477,0.6078141256483027,-0.04568371729493359
-0.21401521916181196,-1.3267237043829612,0.08637777102100697,-0.425568425697558,0.3426091894045229,1.1338291763144315
-0.07655471091682964,0.9141637719471312,1.2693091771043084,1.0391768840746733,-0.24462710383525277,0.8063590633720596
0.3410280155707708,-0.9265522504885337,0.04280622031173181,-0.7018268460925792,-2.554023379435435,0.9574339818135078
1.3512695812173456,0.019819871900601305,-0.5881497645885457,1.0877030219179316,0.1927567427222629,-0.7148895917258016
0.7553007485818917,-0.32077744477263104,-0.5972164355001475,0.8574704006989238,-0.2878143277437897,0.21097896452732312
-1.5241984283346546,-0.4540731029867503,0.21020384891711325,-0.5593185193466481,0.15393100483173852,-1.7498266197180814
-1.2132221919891633,-0.9543542561061057,0.08323593270230695,-0.7500729842892802,-0.1351109998179188,0.07375324419905262
0.05099884140624389,0.7161679554674099,0.8431939515036516,1.7885437473635502,0.5661145862140471,0.9640356955680736
0.7580321516057068,-1.6678422691797468,-1.6507953039947134,-0.4911355230690353,0.13259568925628035,0.23786925507474005
-0.36193132471132694,-0.1727211790703646,-0.5325953037994544,-0.18022328531237736,0.3624872296328372,1.202183682825248
0.9499272798543329,-0.5251823329222411,-0.3760722726423925,-0.3001392101511289,-0.050267536643403776,0.44589317198693396
2.267109825689546,-1.3619553128711894,-0.24105806712156028,1.3171710830302852,-1.0909273035806786,-1.0795365664664343
-0.17373096909327806,-1.5025034301260805,-0.8386891091021081,-0.2995502160850436,0.778824835605058,0.29082635911967636
1.7363583845477688,0.7189261217954312,-0.003583289090818398,0.814921705135759,0.47010767317784685,-0.2523197341800605
-1.4512252491568338,-0.18136966877754834,-0.17701781441832853,-1.3332438009076828,-1.233085698805395,0.9360071968001675
1.4779483457442386,-0.5214662560828357,-0.5134214518822166,0.2109791978077349,-0.044193632821779474,0.7316120307610127
0.4411485793824673,-1.286342616641543,-0.1742410424440494,0.36792568531006753,0.3933937662927761,0.8787443995615505
1.5106891308540185,0.9768037526705584,0.8181667338261809,0.9544727910786361,-0.8856599745637395,-1.5861209237631604
0.04509567682897364,-0.8972749827357812,-0.25179335895022054,-0.7417997812213024,-0.6353374305138066,0.9451882481619414
-1.5701842175968996,0.22665641523688718,1.5106836937994759,0.1769033169987715,-0.0018395289025281425,-0.01574001327228286
-0.955866047055403,0.48530259803044984,0.24133129698956296,0.18859958361240292,-0.29697164825681294,-0.6751809094196018
-1.495009749366248,-0.14177979761423032,-0.426661238090121,0.563566991855436,1.2720225012776423,-0.31380281899596285
-0.2941581202558905,0.9380168545181609,-0.26164292236680153,-0.8465865190373509,1.5188567101632175,0.409473396982201
-3.0374151607557778,0.44185491172244723,-0.10630844537225181,0.17191882910267758,0.5810422100511408,-0.008235409703769403
-1.379403481701722,-0.2603632632034143,0.7711314773482271,0.1710543024494522,0.35211885257142694,-0.5196417803671529
0.6192503096585898,-0.4020838905828016,0.4063353443093952,0.5152151766365997,-0.16028450807255323,-0.3826032717839206
-0.37049247684233333,1.2774774833994806,0.33185669086168035,0.3290178309129708,-0.548872818054726,-1.1427558664314743
-0.8756982453825032,-0.5726256243456604,-0.3733425070191666,-0.13256249757916239,-0.11539223996317405,0.11848000870458242
-0.4987526612409957,-1.5837322938516756,-0.5117737574297678,-0.5450372580398438,1.1896615342723371,0.6731407353929278
1.109683671425494,-0.7596997438342347,-0.05641229862736308,0.17594987333580636,-1.1683819974144594,0.8691192847431771
0.05594804849339541,-0.162719943830687,0.12382077175756334,-0.3299647092513198,-0.4197069958715758,-0.40557796783195643
0.663974198706899,-0.9996998813674536,0.16237573842301445,-0.21487570897766256,-0.21422585152315032,0.22839856990538493
0.1735933365999217,-0.625594975493809,0.7815627080553131,-0.5129965894788036,-0.9455874453594795,0.544614806488873
1.0032834920586076,-0.5122363757684992,-0.17735932647723246,0.5957336632878686,-0.3382714466073202,0.40315427477353305
2.011071364079177,-0.24348593080484093,-0.0978563747975165,-0.21173386468559352,-1.186762810205678,-0.2441438612893025
1.1366221942076709,-1.2439677261675337,-0.33180217508125187,-0.6131912486597784,0.21589747883172788,-0.02356315853740487
0.33945063661950226,-0.143048610469671,0.17061757764233226,-0.16948891742409744,-0.018717061386858802,0.22246150814703736
-1.1322585637194367,-0.45591865823509303,-0.16247871103321276,-0.440592497577308,-0.0009042263822558877,0.2489567582879846
0.3375768053212026,0.6702409982493458,0.1357942394074632,0.04440268643771916,-0.06676047860118339,-0.3248643785032451
0.7810977040237744,-1.3067333055229144,0.6493835211724298,0.3171352023738186,0.15312123113069792,0.11187087295604603
0.9108500414496585,0.7600280115835717,-0.4603745870888082,0.2332422971674774,0.508912369243597,-0.7737197346335154
-0.9800467488692862,-0.8257514079304322,-0.07918908077811526,-0.08213110866167464,0.5018902292301883,0.5319918313650154
-2.0111704337561838,-0.0993705447974167,0.5554990406125357,0.012072451344469354,0.6731497642066548,0.4074003328501954
0.1309582623208393,0.6578456037165938,-0.5122496767262128,0.4255973342189696,-0.3899829065705033,-0.7699472026385398
-0.9674194732945113,-0.30070584153619284,-0.4629554684180202,-0.3390691369382426,-0.32195441308586825,-0.2961571614952517
-0.9642271039023143,-0.05189632222416185,0.2166908041859761,-0.21906667027170001,0.7457764804672014,0.8066169358607043
-1.2698933190141788,-0.2590484197610339,0.4223667112117652,0.21084842915825192,-0.028000973373457916,-0.005220557132934789
2.1501360225062287,-1.5547509821803498,0.3610685274373992,0.2660428097858341,-0.37953755032800995,-0.33762157324768416
1.1849082700107874,-0.26671869221763395,0.32321541507449414,0.21680254139877914,-0.28343213922503624,-0.12463852622036536
-0.8883843572651047,-0.2835272654376133,0.7353782361754062,-0.017214198752777132,-0.5738999537993433,0.23454129732999973
-0.0018644219506224469,-0.11312647547223198,-0.39364935863930395,-0.45562520413509694,-0.9283965598135733,-0.4818054854715829
0.522696419259187,-0.4613848984668736,0.3790571071971832,-0.013445546872208225,-0.35316356748964955,0.025762209031031852
0.5896387357918476,-0.415216435128951,0.12224421092720211,-0.4333195804030955,-0.47646293220476477,-0.046430975781583395
1.0747797552861924,-1.0009345042091324,0.44627270979701783,0.11237916694917541,0.04911754291108269,-0.26664693070181555
0.3094884253651895,-0.8991099772336598,0.3051543475447348,0.2443487336552544,0.6697598243745876,0.3137646507992761
0.6641583153652189,0.31016215437575223,0.33125876847561064,0.19253876086061045,-0.039177987627923405,0.057292247372052185
0.054918013656234055,0.5223749126752005,-0.8213460327979365,0.09552329214927777,-1.0889261046328529,-0.13509190401742543
0.09310291961857775,-1.2434496145579483,-0.49945953703177404,-0.6686477758176885,0.12293873194279699,0.24499674157575557
-0.931181351344879,-4.191645773876651e-05,-0.3664992086330886,-0.3012470588612003,0.3776131073131116,0.5863249346543679
0.6644417777113012,-0.6987650613383196,-0.5062624376201389,0.2921444899107866,-0.3328697266796153,0.2317013072894335
0.6953517164040973,-0.0597659036148408,0.23013571802893146,-0.03756199644686645,0.6806484673768848,-0.1950623207804339
