Gx,Gy,Gz,Ax,Ay,Az
-12.179717999999998,-4.453778000000001,-3.890067,-78.918,-624.868,-25.11
-2.2984232105306104,2.2909130331978353,0.144038483477623,0.7595783463945551,2.5822436703631384,10.838029161534223
8.168941974900836,9.976774275874806,3.6121574756883286,2.854658952236824,2.132069571072349,5.539660420948335
6.8001875150445565,3.30443499112214,-1.9758882573991514,5.087561215089933,1.7945013670132273,5.93127059763614
3.2485024214503113,-14.086342520633853,3.202095426696681,3.218921428344702,3.0000840444735477,-0.913969351366957
7.614465218714972,0.011440422524163107,-6.540195813345751,4.035479745198737,2.8039001386985927,-3.213935647644197
-6.901207888511685,-39.62551550141686,-9.073145301483546,-4.590564584311746,-1.4245303105076066,7.52292264157628
-5.011747694718791,-8.579861424516972,-7.314893130569353,-3.0885036055692416,3.313804488035463,2.1973055560143866
7.910360677167578,5.105681448365075,0.12340096562017006,-3.882805790471995,-0.8427807066190123,-1.267337672115223
5.850679191097138,-0.9187432620701415,3.169376407651806,-1.2935675036726657,1.9956001770785896,0.5318963316667817
5.2657378397073895,14.378815230406925,3.284775036223908,-0.2566773848600903,12.276645433498876,-1.508144477708516
55.48997671399968,-3.35612968859653,-13.077503284880837,8.973358917563413,62.60024505284365,5.529138093655408
-31.43763492538658,-23.587243842911665,12.955283174542776,-3.2729411183606825,-25.777600567523642,-1.437640783541521
-10.452258527691182,-15.733865154820318,4.904751921220977,-3.3116846924496994,-13.779430933135815,-1.229714267599853
-14.146379271732249,-18.73916512984926,15.796571699605707,-4.811421515479045,-11.812491912466102,-0.6113948075826192
-18.649622550711438,-19.86449298545076,12.23130634160998,-0.9473774428906232,-10.42339470071331,3.4243334789354636
-17.484551719122116,-22.319516325334774,9.024535501817773,-6.738169632204774,-8.481891300672402,0.23010585390783023
-0.5134667341351379,33.261841531645885,-20.598998438753732,18.439897061091052,-3.4066431334603036,2.6698399419988705
-4.203050181567855,9.0083549634688,0.8967783991194185,0.3049373783760694,-3.70879082888467,0.05789627059230562
-8.099670947763851,3.4645495864014606,2.180853544015351,1.4755074740996914,7.79559717270098,3.5385266727928717
-3.8044689908120457,-0.05683843221787477,5.7527771821854685,0.4813757390079445,6.492662369533498,-0.7088783526301115
0.41569031811307156,-9.249998860535724,2.00134223451042,2.0421523713358023,-1.9731587726138535,5.184388587079383
2.7370513147151128,-17.768914063687745,11.587588175955771,2.0036534827207886,10.577540310465546,0.7492842914871528
14.762956579336043,12.985595117946241,-4.064788018913764,3.0797533930654604,-4.932040677058578,2.7230714574597803
3.8653569604071283,14.677004537503855,0.026650242312212136,0.9540783686983472,2.101653301296441,-0.3017396968892907
3.7537906504232232,2.615346356356566,-5.146534653190455,-1.6245260900401552,0.07434621159484323,-0.0979089170821692
9.026641794800515,13.991379998156406,-8.573114917990203,2.032953016591529,-0.13108643017346466,-0.5539680427071414
-1.3038091734474033,15.865649333168639,2.620352167828075,8.009199865075093,-4.553902450881317,-3.50085604373859
-11.828394474679094,-14.105683053877668,-27.947339702354093,10.051264886867726,3.5412206783151294,3.965865192837292
5.075758191346241,-6.40189685011951,8.18065193866213,-2.7431627992211802,-4.862768843550809,4.76630636789856
15.004704595729836,-2.9355719513371454,-5.095345864587246,4.193143121227844,-5.208820440768372,5.594807641618244
-0.2323255882296129,1.0094779029968013,-3.9395932216409397,-2.4303897198846993,-2.375352849334934,1.4383676925512643
2.701490649479371,1.7565019180528179,-2.0564999540735043,0.33163897455608293,-2.8424871724637493,-2.202661247786602
-3.254305760210967,7.064400543681714,-2.446347028914308,-0.824177913117283,-2.016432919043489,3.8460052690610866
-2.66014338621937,-2.8047334263569947,-0.24544448283887066,0.06145170264454686,-3.473122049383927,-6.74700253147963
-2.8518422254052638,0.13409850359273268,2.557525076080084,6.822275292438061,-1.2088201092353783,2.4754351427261256
1.8286127210316823,2.7249066326931914,1.075123211071472,2.904474899960754,-4.092179926882459,0.4552821449751703
1.5139004724676877,-6.289424936169766,0.6939414522950966,0.6522839065160868,-3.6656908977946943,4.516840680721563
-1.6635089566577377,-2.986587503913121,2.5344654219911043,-10.083084141745829,1.9925590582687782,-0.6524274377825683
4.021637821774232,15.758692997873878,11.119158744737211,3.451753516868275,-5.479849197824526,-8.323783967201376
-16.573935847448602,-7.5469986680693975,-7.6268128532471104,-11.130299933604121,12.359287012681392,-4.2311508658075505
-3.118525139530944,7.384618198381914,4.766868815212474,1.498227968102788,2.4313085680364974,-2.716785343399342
-2.3327042634216344,4.29585140809777,-0.46592887561119145,5.477818136056119,-4.9598440400122685,0.37615134186211474
1.6037601015866478,-5.5345525675500795,-4.576224543512248,-0.35814146103215183,-3.7427755144433297,4.4471491847607485
-2.9084232579894147,1.9112124460469584,-0.39283854167968,7.931316567344322,4.510280250043658,-0.9867070179515218
3.5668545552998268,-6.898465702455462,-4.76100710017662,4.983885610050507,7.581141205955738,4.577581288265596
-1.0662687797264598,0.04955755934536954,1.6517703771113301,-0.3369826263657938,6.287622675796266,-2.752905426574285
-4.992817766459102,-1.8123994661580307,0.45411054571892384,-3.347982783143341,-1.4715777790724158,-1.3054697991200859
4.464661335297732,-3.0172128690444673,1.2116529853345621,-0.7765885511419324,0.2265099319442263,0.8052622391657733
6.678623938178799,-7.2082008344169894,-3.5766601976012122,-1.831326114777156,-3.3578423740607,8.029116311337372
2.7232811039542453,-16.276931938146678,3.0996251896943763,-13.340528242196642,-5.6378793174744315,9.421940324991768
2.614813200481049,11.823656499270411,-8.945044171539486,14.012095430019858,-1.6716514222373924,-2.5145380389424457
-2.198683602295427,-5.5762579192408985,-0.30955883446040433,-5.749032738542178,2.594595129892123,-1.755969668923123
0.20649033635760483,-5.425142597614154,5.204546960536517,-7.857328540605991,6.596783588587307,0.11922342250821227
3.813395296948875,2.003012992265306,-0.07078460611029999,3.7171114851483695,2.912464279790008,-5.487803905648441
5.082991596378626,-2.2581062599629877,-1.6593543136482167,-3.31403250553281,-10.745976698513457,6.445047887673834
15.699222030725949,-5.736443603386797,6.126796840007174,-5.856302690858001,-4.278094964311977,4.064149722995392
-2.8066133227468377,2.421156054470118,-6.386609513304682,7.891172780691013,-7.72516428065512,1.835714578233272
0.0968367682280209,2.8865097404115314,-0.1322219040047674,5.013550093458448,6.655694239941687,-2.27703626003293
-1.9144882636943046,3.7492046836435264,-0.5758142944701838,3.0992388707803773,4.524258175166895,0.4318809600696647
-4.977736255857369,7.1757478409438695,-5.031945518179716,8.073096329708706,5.075744964315117,-7.777393476950057
0.4461971004866183,4.562726065168835,-2.009884499209063,6.069504052068091,4.039394410504735,-3.856851790002259
2.8837890308035665,-5.756810941776603,-1.1382191584801404,-5.739383738513556,-3.497497526856951,4.185554538327566
-2.230498793637903,1.3097653000753002,-1.5236137247895203,5.479644253480613,-1.79230576113968,0.7113025499228012
1.2389862132719427,-1.436447449325787,-3.0308238735244215,1.7904811451119766,-4.060412392881525,2.411717236695535
-0.7369442725919146,-3.882152015301936,0.7551827227494633,-4.892152615912648,-5.203923664056733,3.163928990105124
-7.274103521295903,-0.03953792695911673,-1.6362055012066528,-0.7659570839192664,1.780115884169912,-9.284205029025507
-12.623776083638925,-0.19254988745631052,-0.047981555965854406,0.4629097129882709,-3.9186564943744964,-0.6718559147234162
8.447066936776647,0.06823366524991115,-3.361049272747972,-4.7409525732945985,0.23447985243173752,0.7751266143245497
-0.4357482771126795,-1.4848370476092145,-2.8851975614885017,-1.0416564584191632,-6.981252987474643,5.118969413880842
-0.007002698078881764,-4.365474306840148,-1.733914829649056,-2.8700845252773863,-4.14635231999503,2.5437152124524074
5.868108329313842,-6.181275120049446,1.4974231370243718,-6.697229021590383,-3.685963618435028,8.52778143197556
1.3412487011056033,0.1721498960091994,-0.2734158800140346,1.724875576297388,-0.9980777584420757,-0.3239600107460696
-6.190289370618099,-0.48593795409087237,2.3562675796453023,1.300198830059378,-0.3082704950568691,-3.9375286031919114
2.4438339750746754,3.2227575866782328,-2.0579910053176387,0.9964058480845898,3.935487056305192,-0.9212742985038817
-0.9575396056763734,0.4902202528259727,-0.6273881013060696,2.076262529542479,2.543934918336859,-3.328343207110545
-3.161961593069125,3.1544788383111797,-0.15817506509108914,5.147336588586661,4.229500038743792,-3.130480870656684
5.43820096078231,1.9174055668145937,-0.13472371785361684,1.4350397233108763,3.9753932347382563,3.46881598421444
2.779415376802542,2.5633443061895624,-0.1424641416608432,-1.0961511908204868,2.185869955260644,-2.8581067431308376
-4.198986040489244,-3.5355803338737095,2.519033607176047,0.5706021475221785,-3.396169319710281,-0.17546028347609632
2.813463019021478,1.473454371620908,-0.48733658997964135,-0.561639998281849,3.530263463145836,-2.65151661144953
-4.832842596795331,2.6785675844923684,0.6769978017783025,1.4621316220550444,1.5507761892895253,-1.5624266600395629
-4.703995315576506,0.5419156783739539,0.6686576954011545,1.2392668274979675,0.0019699523019012233,-1.5626884613705214
2.9004969329706283,-1.4005821754019727,-1.6676797852026903,-4.917928248069822,-1.7854869134043065,5.868949331849063
3.1839832404774207,-0.4299368873429896,-1.8920728523524453,-0.32542368225517226,2.3080990541376347,3.015156023182122
2.802100595989641,-4.827223322716074,0.6856220158035387,-1.2457185942713742,-6.592511829002213,3.0221054510808965
1.095896708801382,1.6019502873855727,-2.6658501020129335,-0.670301908769301,1.6019070280721388,3.525600388293791
-0.8729163482130036,-0.1566720117148468,-2.7979180327545388,-0.1204580405192055,-1.6755771792386325,1.701799553073844
-5.712598254528898,-4.053807334041238,0.7828475704306305,0.2189200607025652,-6.183750147993187,1.1184877062261718
0.10290607179264111,0.7508823223102712,-2.564037652675543,3.3075148397963803,3.3032707734066595,2.1606906769838914
-1.1412930445201142,1.2595219362068875,-3.5700720342655563,-0.6675962901119781,4.541887226091404,-2.7349994584865716
1.6588987837801168,-2.4574641496906082,-0.9334157583770631,0.8910508285278083,-2.566977291689098,1.1174360503452765
2.7718325219621076,-0.008214504581092186,-2.1091231541873743,-0.7057469592524772,3.1654893800171067,-0.010167005245596994
0.09722056104173893,0.6368957009118311,-1.4289237937806538,-0.21093859364604167,2.029450574113091,-3.3796437623752418
-4.631399648468799,-1.7860289648117373,2.407957281197529,1.6395825444898449,-0.44041969976888395,-3.553335087619721
-4.11774573242935,-1.1540299553411897,2.5907175810658574,-1.0188934201457847,-0.9595100843324387,0.1935678102556393
-5.714694619332126,3.759665319328887,-0.4386715614368616,0.42707460648365,4.340169204267224,-4.241967296006708
-0.6630359668427934,-4.088262937372911,2.581941466440198,-1.1494355737934412,-4.329471832800047,-0.547283916971057
4.047176554672993,-1.2698094135341869,1.196915354238436,-1.4316611203587837,0.2175845040465068,0.10415502240162533
0.88149977245948,1.7859348993470034,-1.340701169666072,-1.3580018304973884,3.5775675402188334,-2.28880578608829
-1.5176704818447462,-2.0947185645068696,2.07817335363547,-1.2935932315478675,-4.43017419263084,2.553030201842308
0.93673640069674,-2.1912220765123243,1.3206735039964659,0.9149788607677123,-1.374347907998129,3.39702035089935
-3.71677774511928,2.8312188397285993,-0.6154196937968395,1.130834187767055,-0.08259217561084498,0.8316716734351337
-1.49587797142411,-2.4191287537174144,-0.33911305739175646,1.1774601857256726,-3.064557812669475,1.8269581062713898
5.140673177646003,-0.9743782309069361,-0.3190888629798174,0.4981745150206184,-1.3572727987195414,5.440958517547511
2.124625656270045,4.058136736558247,-4.332672399212095,-0.22993037978410077,2.8295145170462876,1.1174843995272092
3.259274128033004,-0.9597263232751675,-3.045954930067692,0.8307628890798845,-0.013437227087429005,-1.3718538705037004
3.1528976977896708,-0.7983391136815904,-2.733780805832288,0.8516168547553962,1.1245785341879886,2.776276450504932
-1.6538555880746952,3.583784213337145,-1.8945790402764573,2.4139744646173424,1.8524725445112011,-2.1020895682770724
-2.7469087305854454,0.8971237748576102,-0.11964088037346299,1.3265197111310942,-1.1594738048673694,-0.8246956103914292
2.809383813319913,-1.8350852258179737,0.7169776224137161,0.7898009860572806,-1.8613796866340382,1.1731251686901651
0.11733477641444834,0.4691736839971754,-0.7407257385394206,-0.139498137164294,3.023055660781785,-5.1605323964064045
-2.8277480843381753,-0.0667419730313557,1.4306668058797847,-0.451239550187343,-0.34636579797787814,0.5951263193904439
2.766540976213699,-2.2976118894525515,0.15686984566593382,-1.4663508874050575,2.930494064904192,-0.7157656391097342
-1.3984965883282183,0.21119652194180438,0.8855985301326512,-1.1529938963822184,0.7595651081388788,-2.2323544627781766
-4.537926121362998,-0.22205209494285016,0.7036597529601876,-0.8886233745069185,-1.1615543620496347,-2.4618584326087283
0.631043321823427,-2.6081441268742633,2.6240708545385893,-0.8145002864447658,-3.6207702706872977,2.1410829136170073
-2.7670188652905434,1.5702459999464287,-0.22268838851548442,0.1277600472432514,0.0783922120803755,2.5304872489836736
-1.4275390378502655,-0.8607096136822924,0.47580441047519617,-1.125457152820843,-3.244685292251401,0.306356507577098
1.7597930813009728,-0.6603490978731256,-1.3400831073332427,-0.8304753069669621,1.2163647222973204,2.0410740995390118
-0.3635591616264283,1.0769768103905766,-1.6189530942924775,0.11640863025648585,1.5356319598902255,0.48098903989087827
-1.776404471791002,0.37748701494437165,-0.8939767543356636,0.5900405004779834,0.3377801948367378,-0.693038198272726
2.046338375607284,-2.3740092249703038,-0.915779990122354,0.8312526890019095,-0.06663194837717173,2.6386829526153903
2.8935611503585736,-0.10086849047381347,-1.6853938700414877,0.41900253697702794,-1.4410221437309017,-1.8414512084297945
-0.8955779039285974,-0.38926890313109275,-1.043866297742691,2.4323415543167366,-2.113053912433954,0.6592118217334133
1.3126469499589704,0.33955774088994817,-1.030403820961979,1.2585212409374291,0.9916129116908291,1.151185902487435
0.9199410414206057,2.99270821762966,-0.24879901898268283,1.6665472202200537,2.4439655529004565,-0.45786942851053725
-1.4259691938450143,1.5210463081880863,-0.30714898295161375,1.6563028282753691,1.8409051363280682,-3.0140436539311257
-0.0023674136929410783,0.7895185514335792,0.6692006195069173,-0.5753824346937333,0.5995210859819124,-1.4787089038397223
-0.5523226516177875,-0.3914860008838807,0.29165712395043364,1.0580065937931564,2.471121946315386,-0.7670083224684332
-1.344559195071931,-1.3819293967751256,1.485926413409493,0.09776807781395075,-2.3552329094264204,0.15838095937193297
-0.9154881524317035,-1.6667127265656925,0.9570698099958185,-0.45619773682419706,0.6010245501343225,0.2529687557262152
-1.0355940268750194,-0.24532728727813047,-0.13537138878747146,-1.3057161878430101,-0.05853328508752076,0.5674141551349047
-2.2873285807518133,0.4602823127810842,0.30511365202398155,-0.5712912350406669,-0.84948874390727,-0.015162946050870874
0.25831964514313654,-0.7444838739614987,0.4853034008556797,-0.3693559704553509,2.2953632052592647,0.2859229052347656
0.3314667954115188,-0.13837717076299494,-0.49257930292199903,-1.262693857716661,-0.7188327259245693,0.6680638861422996
-0.5230302318188984,-1.8442022580912765,0.20145532848722003,-0.29596763928530484,-2.0527466522885227,0.429666012663705
0.1002499719500205,-1.2576300447823507,-0.478582733899546,-0.2885020939464019,-1.324274932071022,2.10034513130125
1.326876412822044,0.41150649719843596,-0.4576287368092326,0.1213460017072725,-0.15613611540682665,2.2442699042898693
0.09118249844610438,0.3890559479482809,-0.821868395375921,1.7933626801054245,-1.1746196505161848,0.16322524736931374
1.1616270359050533,-0.6412233537712817,-0.6881258341578128,-0.14502258909393012,0.33839995876355333,0.36553629517211694
1.4597380901593509,2.26452377584902,-1.8404080841442343,1.0933695471627147,2.461627054975911,-1.2963545830791237
-0.13898505466326605,-0.5052601585863292,-0.5856099118074596,1.0079193943463212,-1.0153767239795033,-0.20116786535328168
0.5384072110546398,-0.9012296826574306,-1.1607410086928278,1.262860206019463,0.410141930234889,-0.8131963269425584
0.6906993097646559,-1.009446355863508,-0.4814044573154772,-0.24864627467859002,0.6385474139675864,-0.623487425739736
-0.7366446103802926,-1.3543128837848832,0.17705782426385552,0.11884636348157684,-1.7683810739416193,-0.028775532896875178
-2.83919966283025,-0.7014637760232052,0.22757015004920939,0.6536751456049971,2.334058467280463,-1.2743079950679093
0.2651309618370228,-0.01207571492225501,-0.03624888838015039,0.5021533610746398,2.023862458534019,-1.0169423055275977
-1.164493326628174,-0.5024946284330563,-0.20638325233980528,0.5751666846042259,0.20763366960655388,-1.6938112103397593
-1.2059154117601363,-1.1327724805710842,0.12953691583810034,-0.1722545097997752,0.4196637298478232,0.02242550816043723
0.2761470577517301,0.003884594137773034,-0.11227607469758674,-0.16819880216786498,0.8739139696276077,0.9729176466719043
-2.550552472723797,-0.44152118320703293,0.23024998164827531,0.4129266998596025,-0.5269724488517686,0.7825501159692598
-1.4917160346542961,-0.15890342943081281,-0.0002827174912677921,0.2931602938825171,-1.1545751472299794,2.161203188665729
-0.18336771520163428,1.4185426669728283,-0.14333046579605047,-0.23870974668730205,1.1856090165587876,0.21837309024323004
-0.04892706689014614,1.3637596346753464,-1.107128790376695,0.4032353883713278,-0.6381783187933381,0.7116937360395855
-0.7726020731462496,-0.1801710253895041,-0.4379094225589971,0.6525015830913786,0.5108954241079964,0.3310807687203121
2.7749912382435884,0.7201519359973385,-0.3160810311875457,0.24502948199891486,0.2719321995436902,0.5542905585713621
1.7961996982003987,-0.844314119133909,-0.7655834524357157,0.6016449996346658,-2.3401004097567837,1.301364471119018
-0.8365026927494028,-1.8526904199219478,-0.11793334900494676,-0.38493478093603617,-0.7765810805095711,0.8014362917349662
