Gx,Gy,Gz,Ax,Ay,Az
-3.233878999999999,12.870906000000002,-0.6707900000000011,12.066000000000003,-525.038,-51.934000000000005
-5.2533021496184995,13.77960179075506,-2.194709200358185,-1.6742732892201428,0.978917778930217,3.1539718872925957
-1.5252730061823643,19.313914951928236,2.305260512303442,2.3366285305916015,0.5443658349341848,2.2649626573488577
0.8930685488039014,32.63584194950504,-2.579932077313276,2.3739472739183056,-0.003253037257298641,4.059314404198662
6.117368833513696,28.458737414293427,-4.543379935510631,1.5230153772177166,0.9739594066805689,3.093625843690418
10.160783383880334,-58.295150691293195,3.454509240408218,-3.7334720099850527,-2.8613525909546578,7.839797390066332
-1.96716720924031,-8.907710477597126,4.85141106064384,-1.2746321422079978,-1.3148597710322794,7.415828251386656
4.125157044463986,-11.086120047206844,-3.4245674403337616,-1.338059732157927,-2.7121832046258874,7.8530223851814
4.817950203737266,-2.6241140072866207,2.518297195245891,-1.2896804538919793,-4.931485590981152,12.045113487080446
1.1774156774100848,-2.1538260068958808,14.514132700421605,1.6653824713414667,-5.726926372522598,29.263524456709465
-9.23817408518066,-23.91955837012366,-11.992951412317367,-3.3949685010542194,4.862931158943142,-29.073129013466428
-5.110962395581584,-9.07426866414879,7.226039874181434,-4.766803146928689,8.229758507264103,-8.045684201084793
-4.191569297530835,-2.148654071137753,3.643814980706683,-2.368479500775904,5.939881272203108,-2.337030271188376
4.639148620968066,-12.366174210113698,5.860423565140684,1.059678984826303,1.436204544678636,-0.8419249585146984
-8.609402891659157,-26.052407992605964,51.066143864509726,-1.2600890947278243,5.760152883972932,2.366284245925579
-4.146950518927589,1.185218737718026,-18.87923203102537,1.5608007529246457,0.03664040071940024,-5.195605009408666
0.17747066111097787,0.6431024300075308,-12.455467787239833,-1.1064943052331706,3.298783681590897,-1.7637192791414193
-5.143832789555043,3.7069886381451074,3.2107529018472096,-4.818857935718338,5.737998844971463,-2.006115370850505
-0.1879686924006253,-3.5337537720815297,-4.755370986544311,-1.1906487792472167,1.5969629700335517,-2.7863782328127567
20.63587835075181,3.476271865493978,-1.0662971706535926,-3.5936887728197,-7.839391331852175,25.063879045217412
-1.681946876263268,-1.4997920436251186,0.48014335801494124,-0.025851080655641234,1.2778911899533287,-8.361090918742123
0.9437781126779909,3.041722459446415,1.471726215690115,-0.5972839704267059,2.1616972900145646,-0.3564727141379538
-4.139601587712487,3.206920534700169,-2.9788525665717422,-3.021031210102336,1.9700077414126405,-0.7520430252347019
-2.6731449246396113,2.524229057085269,-2.898010138315949,-5.615296498545579,4.05883711026355,-0.9829746896783303
5.840392025919973,-22.278588426358198,-5.551264821446803,3.2927876053366303,-2.47160723798949,2.751119013184015
1.519324293464823,-0.99717699052976,0.10591212539010364,-8.40252029367395,2.137028049136521,0.5037253353520894
-1.0679572684853618,4.463766573636189,-3.381502019055551,-3.9264276083427543,4.91114359500247,5.389607215495149
1.489969347599369,15.602713100880072,-3.2262381498309978,-0.7339235429224786,2.84716419828678,8.784572829834055
-7.453303655090648,8.253573338095638,-7.171361461581084,-5.409714725952288,7.210424364537268,11.244242052257592
11.415841544530473,-7.698934005271045,5.096831596379417,4.3301130761504965,-13.948157491891553,-15.926778087715874
-2.5392276074722364,5.195314325113589,1.9145587681124119,-0.29802096427709057,-4.199109237753105,-7.457403220749569
-0.11834042337395312,-17.984591600820007,1.6589591475297276,-7.870307573709706,-1.2158388481047975,-4.432893653196632
0.6703853710456875,-9.454350943644968,0.1760959723948241,-2.9455030107000084,0.24992608313140285,-2.548816969786185
4.3805536602157655,-38.59483248961557,13.600575614056666,-17.81896872559285,4.529081306627555,-2.7280427880178246
-1.3295268085208085,15.60168543740739,-6.696141732468732,9.459959413193246,-3.2369626345921625,-0.24406568740230217
-7.139276686220091,12.996688069264776,0.4401396505560752,9.261428458709728,2.085982390821912,-1.621413332711473
-1.0116123265073806,2.829802251863223,3.3716238786366297,3.1619539569063297,2.6393048019954968,-0.8702875770007328
4.785155203994487,-2.714026340118858,2.6132149300848555,6.016849866396557,-3.3867904044161925,-2.5190525752843462
1.0765751571090965,-0.5087140059726805,5.515707238985667,6.608902982851735,3.567202931440661,11.278200380320108
1.3591032365686773,3.329043725482766,0.7886694410501898,2.6529015634543027,0.15381972257232235,-5.8457458134613125
-8.484784993124066,5.299591292310417,0.8197173199110005,4.251201707895187,2.2496955177040707,-0.128196767468147
-7.089683039734864,6.98162580095353,2.469935587616708,6.332858226137925,9.763305357511888,-2.144612808992721
-2.3334410053712156,12.593528361208138,-3.6155089643790164,6.061686214978078,1.1351145019440476,-3.94032001095603
15.135031454613884,-2.714801304594377,0.16557696836264357,6.757434393862043,-13.642505568798807,1.06323355097196
-0.7495165222985567,8.07627095640713,-4.393901620552727,4.255172687085446,2.175739371281846,0.4586160512303348
-1.0396720497638112,3.4109303715995636,1.4177126790454175,0.2899859140256011,-1.3914677113878007,1.5893923746490604
-0.5566961718399124,-1.1515435480400917,1.2037668030022697,4.107594193566577,-6.313309712236705,2.7446466058349714
-3.2523156295580113,9.354642752245194,-4.831395913584895,-1.0736845378455437,4.4445349430768655,1.910976929102545
6.80080015253974,-11.269924818975344,6.247343575670678,3.248416922774269,-8.249272527557801,-4.641370175601461
-0.23373082006397494,4.163137848870865,-0.710472692380089,-0.8134211633907693,1.67924118051151,-3.152522169426483
1.1117547058425665,-0.4946145074697048,-0.03545912610800478,-2.469241574227751,0.32984438391415916,-0.5851393770199216
-1.3418956437793912,-4.685824305581719,6.157760073806524,1.5480285705145231,-3.6300949793735415,-0.3305973023590125
-6.357170074041853,-2.63170503809589,9.751316428580513,-6.67131255392022,5.168127313075558,-1.2023929479556061
4.250726207926429,3.677016122624113,-10.540131401456565,4.138010912541976,-6.996690070827262,-0.8759498624644528
-2.293644617036577,3.2109419596291,-1.6684481399983453,-2.267550533908359,-0.8723516960932791,-1.2507797425623628
-3.924435598748481,-1.8927123729506288,5.360006763502382,-1.7036383739689818,-4.556425925433424,0.1286508442437948
2.7315353106751505,-4.569443823459771,1.2945294097151923,2.8861246703157986,-6.689807167186552,2.000858380922945
-8.92330167116651,-7.057833874597002,5.529460485972979,6.649300530537397,-9.064216617330036,5.151983061758372
1.9020510805809803,2.4656253069815994,-0.6786559352527015,1.6849916655482344,2.6475828589165182,-2.1596202096217696
-4.747487338329457,-1.0638128567306766,-0.03222763450892696,-1.143706294972538,1.3499402341522408,0.8488999527751184
-6.7898665206550595,-4.938341347254621,5.123509825887399,2.4754405286062404,1.481002402453881,-1.3095532061620268
3.010173312830089,3.6171892337875815,-1.0496305477337122,-3.322806225609164,-2.2050501257352733,-0.9932144953594888
2.215947712896102,-5.604317343992851,-1.269016075648175,1.3274546980407516,-3.779283443086882,-1.3315807636395944
-1.5765257690717138,3.1652105611930654,-1.4468316312939833,-1.8388331723624498,-1.446679277547279,-1.0565142505063196
-0.9519291235787081,1.4515914258068023,2.8695006785175052,-1.2846179230859214,0.5715738155500616,-0.6159930045185622
-4.664006680134802,-1.0857103487880622,1.985168681612468,3.4053961003465116,1.70203263844402,0.2446691450502108
-0.4689854725706857,2.2910963072774666,-1.4392441726838783,-0.05309539977732003,6.189947295018813,0.3289725330653792
4.49973649843059,-3.2858708000162355,-3.3040928798707903,2.2398279450218883,-6.227364744273351,2.5102717375776704
-0.9691767762926344,0.6612087555140701,-2.347325226324279,-1.3287501522294392,4.292684463575926,-1.2187214154065906
-1.2643288744307126,-0.412073070090317,-0.19044696098989,-0.4891660153760822,1.9612537423725067,0.2361355228186297
-0.6105350963073899,0.6059575251385956,-1.123369379867384,0.7093617793565781,-1.1970995042770536,-1.1906949482913005
-3.962028119458257,-3.427625458739582,-2.264266051169313,0.6260675711567911,2.6017165238673363,0.6391563971699525
2.065340835023774,5.150035002562289,-0.06411179345414741,0.07455591403615724,-0.5036818616838321,-1.0568386157692773
0.49941351412377233,-0.3590297986549851,0.5734774762627748,-0.7526728129259396,1.4304048980561317,1.836131634005054
-1.5552192071730373,-1.9641893391174154,-0.14716651890036198,-0.27474961154716354,-0.2591431232209723,1.8712581321567223
1.4253909819236412,0.6517234467834792,-2.596193770158951,1.4356232895640648,-2.8979438334212624,-0.4033819753683129
-2.4204435967739295,-0.7600144416337611,0.509731355190989,1.2606111825195285,-3.113713848063929,0.241223548810452
-0.12925895808503318,-2.6862420136131493,-0.4493235421642554,-0.5468526182723048,0.8765824816993315,0.7353146963862179
0.23884468916439733,-0.09518550779491486,1.0272837110740647,-0.5292433889727871,0.19999755401965746,0.9035046515853902
-0.6450168290659577,-1.925600630919852,1.386114873397303,-1.2277100266921266,0.21101245994963935,-0.49117102514013206
1.9715558689187844,2.0776206175422702,1.3378322146551356,-0.4881966159697965,-0.8836711934763057,-1.1295739454383926
0.4807173903835958,0.24579017447771734,0.19384672645471712,-0.9890103994226366,2.6279464992967476,-1.962149152547041
-2.2181800359390467,-0.524485264652399,1.2129744215543419,-0.5831021731197614,-1.9721359109020922,-0.015861340453218187
1.7539248228669733,-0.7074497977904252,1.7777421779589722,0.3569404047296765,-1.9814137931741533,-1.5072824356221592
1.9406357288262372,-0.30933371631539425,0.6092378200536419,-0.03942470608813131,-0.8046438919596082,-0.31749170528993614
1.292183098646629,-1.0578739620029398,0.5736373817412799,-0.9519521114584274,-0.8242954872129535,-0.9887672876070697
-1.0514922641013769,0.8932755861612082,-0.8942364073098233,-0.41253081181940976,-1.9051767325135793,0.815528944731726
0.9977493719631015,0.3239758546003003,0.6982277477181063,-1.8090268766315558,0.03604074213788122,-0.4384504715875397
0.8334507173294645,0.2558291493489382,1.247596532928645,-1.0901078040047023,-0.058378912073924566,0.8698238395482735
0.5810879278238014,2.478838707211737,-0.577581486006328,0.24874322322381826,1.8157434546933284,-0.49942341840876914
-1.2723197210868455,0.7710079075554614,-1.4625721256617537,0.3816267428249992,1.1819485524086932,-0.36141544405335235
-0.3890747431939573,1.1742564345966011,1.4146257271482732,0.5942727970030455,-1.2325271707142007,-1.4600660704313424
-1.259286146721206,-1.4028658706678494,0.5961800271150864,0.016731381633725784,-1.2425476516983034,1.8677204901359126
-0.9933410187247974,-1.049886896801242,-0.5654304504846448,-0.3622571272076984,-0.187162885744109,0.5837085548263719
0.9799592325915436,0.3654328978051355,0.23247327685543873,-0.7256827800163419,-2.036231609876606,0.24777639031425336
-1.2967602449570785,-0.7370986561467527,-0.4050564244697766,0.38890548277817094,0.7480355099718915,0.005585219450792267
-0.3678526557144498,-0.7065879203788715,-1.4002130084313618,-0.31905044332619803,-0.2819052321028038,0.5194669821219541
-0.44567275228059033,-0.8390361129465677,-0.6984018136410622,0.06279332579836239,-0.7685016274660845,1.4151476912240213
3.155563054439476,-0.8704519597723848,0.5195718763615313,-0.29921433093768424,0.5233437259764198,0.1360193685695928
0.4644177223969469,-0.02171981402529194,-0.12642471666899036,0.7879078174793679,-0.8737044356134263,-0.4520304642441979
2.1006632327049672,-0.8492683723829633,1.0996960826788547,-0.84227718951194,-0.13329264887942222,-1.5647134463587413
-2.0776134595135716,-1.647544400384571,-0.23814279351036177,0.6562654308031082,-0.0876871221629984,-0.22547910523247827
0.09132810769931837,-1.5347767730940838,-0.08230919679190629,-0.2541242561682271,-0.6237000733766264,-0.08782187845884154
2.2346082654475263,-0.02451215893062003,0.9351018608122993,-0.8075991944818214,-0.6686432994703868,-0.22551010017264406
-2.083751352887866,-0.9830251884162448,-0.07162234728741637,0.09891247262483366,0.27278267373229315,0.05481022371815725
0.023948478796676997,2.734465904629472,-0.4339606575351953,0.1331510222959453,-1.6031003365667413,-0.03928134133067768
-0.00439421104843285,-1.3319162870929706,0.4359319593197844,-0.3273704509882261,-0.5420810449545395,-0.16121340290067898
-0.5275108335687322,-0.8931985394001447,-0.030644863147229362,-1.1218677964905717,0.16975606596495663,0.9532047137047479
0.06248669594251305,0.6505442033012374,1.4361205032966173,-0.24289339073117128,0.3141040145586498,0.48517694924194377
-1.9773412169694926,-0.14610762364997387,-0.6182842853935107,-0.9233740031894043,0.22723705946379563,-0.7328090510592434
-0.9379406561664803,-0.28434161705643324,0.3624021809221385,0.22285636666119019,0.7914865993028002,-0.5861240339960496
-2.065723989625245,-0.5532253760510444,-0.6182796571727769,-0.2038696923431331,0.08017679021924706,0.033928279349043675
-0.9599057327821683,-0.7777461592184106,-0.34870777403947595,-0.7307739039373199,-0.30180466147435214,-0.3521906570130726
1.6101827411281682,1.1375017672276855,0.09816385089005242,-0.3143446943055363,-1.5013886100628677,-0.6381047006391937
-0.3444030509844909,0.2676061972656534,-0.11599262944168034,0.5993261134374854,-0.299709396744153,0.3125699540095504
0.9287167386125912,-0.3420267539134243,-0.7325098202704532,-1.004876242049604,-0.7466210264100422,-0.8223662147754045
-0.30657966522057434,0.22710473915251606,0.19464666456367374,-0.15073367769517793,0.18415282098273866,0.7458680555046254
1.4056961583525558,-0.6767267283225673,0.31748844166651013,-0.08691085130764231,0.0509323289503385,0.3169749838898168
1.1127308117519497,0.3738358980367503,0.7442522433630268,0.4545004555498802,-0.6396454906555197,-0.504920080165452
2.0296759005727405,-0.6432677393279981,0.1517326483200065,-0.4216224171620277,-0.10903560083039154,-0.12541465405308683
-1.0195564190879005,1.365047842099211,-0.03324101345870112,1.0094087835574415,-0.2093821205885158,-0.6624918700612856
0.35189052792851294,-1.2066515698594236,0.5590782216798119,-0.22006826753055037,-0.740676333221655,-0.5265693375277465
-1.172085282319529,-0.14372179434623616,0.46162690215975943,-0.22014763949310173,-0.25553335359952173,-0.08099951243467576
-0.6318997875025681,0.1011849605838368,0.20132339783916892,0.22851487227738496,-0.2923391391348673,0.49131488501078113
-0.3059366265944901,0.8202377526159942,-0.4488763731210982,-0.5127035366428899,-1.1365904385020125,-0.5646490449132799
-0.8756092335521803,-1.5959682875902943,-0.029635864515841825,-0.5236390239321165,0.4356341361666079,0.36597576366968854
-0.12032971022863981,0.36922055891025507,0.3067825375370651,-0.5506251633011852,-0.4660361295228981,0.7844141125062305
-0.8572299211049738,-1.2751664253208799,0.8107168400646876,-0.31066787857893124,0.6517214081206918,0.7848845511697479
-0.26721359914688286,0.08547513833859333,-0.007924381607319037,-0.21449422398257817,-0.2545934497429675,-0.49907941463574906
-0.05600059300859356,-0.777086562424786,-0.0811039168641943,0.11644119258383814,0.9528830671601461,0.5240178610638814
-0.2850273285243422,0.5872677689405904,-0.29962756116168376,-0.2578059879629881,0.3242659130868759,-0.9284148346699703
0.6208056220486895,-0.09544307961880427,-0.4056171770895642,0.08235860676938572,-0.5237447349559405,-0.5608179499522388
