Gx,Gy,Gz,Ax,Ay,Az
0.755604000000001,-12.036829000000001,-5.628104000000004,67.57399999999998,-584.7159999999999,-49.255999999999986
0.24409224057886403,-16.428797252148836,-9.609528172948796,-0.7800969440637033,0.5639778596972848,-3.6507916068143107
-2.931671783154469,-12.123857690719179,-10.761150479895038,0.611244256422082,-0.4482297502393581,1.172299594350614
-1.5809892473328548,3.753687982278775,-14.791952085537279,0.23651512952883164,0.7177945813510768,-0.30792787899319013
-1.1299938580751232,-16.791090532050113,-17.570202441072944,-1.4809179709379499,0.3077160670246486,-2.0176735600528644
15.673629596010459,-50.88389990818424,-58.000122024202135,-3.5255549926732224,1.443311259560244,1.673541277615037
-7.681917321326309,34.90778314794427,62.84256824407771,2.6269158177255387,0.8770896394532255,-3.8309679591578734
-4.312393834552298,24.889630994941456,25.135762598808462,-0.6816833401273297,-2.3111571507982447,0.10385159631132648
2.022225476973203,3.9031868292689724,11.160315638291326,1.1698653624993758,0.8783690400593612,0.480461798508531
-7.7723034137629226,3.419112306208122,11.388763856485411,1.2534530664834522,5.317128935092903,-1.4683873127947888
15.130834335687375,5.818837915868935,11.07610425170316,0.3587135591532906,3.29419833277123,2.9343831489361674
-5.647546406601762,-9.991025730304422,-10.124217428506805,-9.54757623978625,66.78482799147,2.9178862581778837
3.980528927227816,13.908748301927933,12.229201793922254,1.1921239909513384,-16.609154406001746,-2.9174431637762437
-3.0257207968979984,-4.186320331984157,13.702857820888697,1.2493380757761832,-0.037142053640199846,-0.22263814328360076
2.5415468447749046,-6.635031567079803,16.645579402107305,3.9084205749572387,-8.692251576987575,2.750743368824019
-2.380638756787759,-11.568642236840093,11.89985824750184,-3.3419222585739723,1.3799278572584588,0.4844794409379274
-12.520316784328314,-26.152815078749637,46.53826872251164,0.5279636214283041,-2.5713223245280457,-0.38068473280378845
24.085859702274867,36.205948751899534,-81.90792880787974,-0.30979897567410897,-5.16867644219786,0.4600771919364689
4.149152020074531,2.203554934484096,-10.481910841306709,-3.138829335371635,4.41406824595486,-3.5276734515635906
6.229126839491156,3.8671138039555375,-16.87206176088586,-1.2934079705273966,-1.6940586768380657,-1.6690032729045257
3.741282559610595,-3.9678613684736823,0.7368720371680277,0.6911137457723925,-5.505356690240627,1.6677474371493193
-4.182900691925313,5.055545460223125,-8.63297796846052,-0.007503093364800817,0.5178006836852731,-4.088350626993689
-8.070469945731098,-8.244628745304098,-0.29994117459704217,2.9188122780545767,-8.041720865787635,-1.3736892859887302
-1.7999225396006617,4.878630018298385,4.976734602920171,2.8338685813557487,1.0425913081900466,0.023512956531936746
4.404499289788333,-3.1230915099021366,-7.768383792798893,1.0931148293849136,-0.2698513674387325,1.823994460066826
-0.9249943571502175,1.5973756535264216,-5.530114448364273,-0.5591270149488825,2.879009611113643,-1.4579961760659483
-3.50709256373591,4.270488416484559,8.662488837899248,1.5896468376683246,-2.227749048440575,1.212975684425064
10.680785253176516,-6.681570710004039,-10.815788659508547,-3.681473789914755,-3.8641633977086443,-1.0060892933019803
-13.933342174334605,34.22168883292045,6.113148187114181,7.853276280890675,6.942132576607068,1.0209036410971328
-1.6316806567976103,0.7109700989188041,1.4696673150001893,-1.1994189059700426,1.850613679220954,3.363640181585858
-6.449526141439667,4.203050455838129,2.678976361831679,1.9348080931923106,0.841933409950637,0.9402211121786364
-2.826555152473955,5.558246028164593,-1.7799642225901915,2.2498615792006817,4.907309468542555,-0.7043686710998287
1.4385856406869348,6.50748153289771,3.513151965762222,1.390190013955091,1.763783570775245,5.317272296025877
-3.623459254857706,14.791960782632051,7.768828893280423,7.709463967930416,5.211140112462664,6.895041024339298
-2.566025969085288,-3.6354885320747456,-9.086628491578224,-8.898409211781864,-0.2879351199191607,-7.263204368419907
0.45182130105916873,3.1646427060312448,0.7386184775515146,-0.6450361496698462,-0.05927454776281196,-1.6175957457145689
-3.6488952204801084,4.493820355902769,-3.09029461193657,1.1202213034456598,0.4581401180239068,1.0134569604740944
-1.5205041238422115,-6.352252498888269,-4.598891443632603,-6.225812443072209,-0.5807243778648989,-4.562319516250874
-5.460580977081172,-4.771713874332059,2.3885958651998656,-3.129785679691642,-1.6544210611949872,-2.3101310408585656
17.29620650253961,-20.43887754290457,8.536955761537524,-6.290470979897664,-5.236560448118089,1.6513944806422545
-7.588657942404962,7.492445476322567,-0.5603121920868686,0.907335751689105,2.721417412869391,-2.9369392476330987
-5.485918591283292,-2.4487503869592593,2.5397813966745986,0.28898393888369855,2.670690807901853,0.40519962283761696
4.175955932966575,0.4362516595047221,-4.292080166400305,-1.0729232425589184,-2.4044624964106394,0.5007217029827209
-3.641508147194553,3.260227597287944,-7.48754857497473,-1.4051677550879167,5.248457812327549,-3.549996265169562
-3.1236601924529257,2.1767842572617964,-4.40854147560512,-0.9055946852179857,2.8123019063195507,-3.5431990358517185
13.481293992112242,-2.002428419068015,10.372098942019544,7.593564880420646,-8.024155720979179,5.883937486196432
-2.99328844562461,-0.2373320648142916,0.8031879943897708,1.0557136753721283,0.8771991159220773,1.0054094290114823
5.685112999978647,0.7089405862789833,-0.6391457217327943,0.5508480878919005,-1.915153015349617,0.6795111626721843
3.8342452138386705,1.6295983258268851,3.3752502466938856,2.0873919421031224,-1.9653458447851266,2.3427310890746615
1.565813658188506,1.7019993024682691,-0.8241330728719587,2.3213908947327497,1.5712335508847957,1.0440379265302842
-11.676924628302089,-0.8368816834448628,-5.49351029518225,-4.6662006536924245,3.026529167343267,-2.473337697025459
12.0313139319988,-3.4202601474769097,0.7881555947730452,-0.16636907453364236,-6.0561838445065,1.5621116750444584
4.372531028270458,2.53405673778164,0.7915157433014952,1.0237147904339845,0.1725736922286899,-0.5876360763087538
1.5534986450958523,1.013075817356727,1.2848382754886816,2.2930494263704237,3.10309513129001,-0.9236202300411208
2.8536557182391284,1.6451428222657825,1.935706477108486,1.547022534975231,-2.956680543393283,1.4136365916831544
-0.5105495371495103,0.959824397772403,1.8174539231446751,1.5015106663878748,0.5981862622299368,2.4537270652977488
-12.34902877986659,1.02211423359705,-4.989433245167329,-3.1109881386965585,1.5520432738286942,-3.5954227782726833
2.2507561143203985,-2.462976297050344,0.18325921441302562,0.029989402357639028,-0.29611542414832015,0.22954007318530012
-0.21259549431289188,0.1111746699653482,-0.3725200010074986,-1.7354067390681815,-0.6628621735214669,0.3737333675612826
-3.1213656792992968,0.8908904573191271,-0.02548191256702126,-0.05943033467500902,1.0552424085340781,-0.5129266763946596
-0.19088943234198366,1.7794516808348437,-0.9735139335064087,-0.13827237410279003,-1.0966967793669877,1.0217065581041371
6.174620294125694,5.392479266259875,-1.016064366734572,4.475116866501781,-1.2611327687543825,2.5879633108498665
-1.9555203064507902,-2.198687311963225,-0.051662137898307536,-3.6484994854353983,0.29149884252439173,-1.759372480925511
0.7834529703260937,2.1521846388768497,-1.5610565728800996,0.7594771329649748,-1.8810440456123085,0.17899110009081157
3.250917368165062,-0.2409815378991596,1.1667169336527328,-0.6080651757325739,-6.7842447489534425,0.432112884862588
2.198881674179979,-0.3704437845891949,1.2489372411102093,1.1580736719007882,-0.30461561040185864,-0.4515202396411348
-2.412990210747522,0.1705244250859395,-0.6098001652411347,0.31388101446494665,2.250600888261816,-2.39524379913396
-2.3557854700643173,0.753460511185614,0.07302084557545724,-0.6944580825587443,6.290868248296034,-0.8460792641106238
-0.9483173134515641,0.9813274384366444,-1.8326183457263594,-1.2323435060542292,-0.40991270500127586,-0.9945422388234031
-0.5052489032672962,0.4865323257300679,-1.3805464452422183,2.8364764269214846,3.984679287280163,-1.1722423335199519
2.1510804543360225,-0.6808605828266237,1.7698803477852003,-1.683809544475477,-0.09857513270831808,-0.9615771119581569
0.4256481553643564,-0.9154839443871906,1.3838251065354845,1.2615492509655644,-1.3783741716056117,-1.102182786024069
-0.9098948132513947,0.07648891068644048,1.1365276078051032,3.3091187045515498,-0.40207599203408867,-0.9918556927490041
0.5041440954353813,1.805825073821086,-1.1943743700479468,-0.2859813016741274,0.34289461426732776,0.7920146536594805
-0.05693944245007293,-0.11591350128163982,1.3085862332697036,0.48108227346616794,-0.05712131854866476,-0.5097881767994331
-2.3709822717081535,0.39465391618720125,-2.3275464346425188,-0.32123400078062814,3.7500327668200404,-2.061360850830857
1.3489413362743665,1.7179616509035414,-0.8483357211575564,-2.1620849266466946,-0.1795845847762268,0.15473794460259896
6.328073478002562,1.2238465523569193,0.3467317444621242,-0.08398767172990304,-3.627890250804709,2.2162625739183026
-3.979788704216742,-1.395167461388906,2.206006486100565,0.16371059518385517,-2.1371710830981723,1.118887596089542
0.04545894336372014,0.519024600316065,-0.3265666797944491,-0.03260120160150329,0.4935982377075442,0.6664952196950108
0.8148834453051591,0.17731181781925848,0.4438847860820436,-2.3934214977168127,-2.0067988683417073,0.42875954038718633
-2.4805092639685755,0.3851355448021079,-1.2961913039049873,0.23846699775582447,0.946204192968504,0.7262141131932255
1.5128880793347892,1.0170184177159385,-0.5964184210531235,-1.7272398213954467,0.291428720546282,0.2976305070418208
1.773035605071074,1.52210543003282,-2.3297500868120746,-1.678574973018213,0.018409329480997813,0.38595976980898117
-1.4547088834825557,-1.3160197819000372,1.6107298031489583,2.0046045033412,0.5065632930594324,-1.2899020535015078
-2.3774551365403234,0.44484272519149937,-1.5052109890707783,0.037673406565734945,1.2817680732362415,-1.6240088073746166
0.21638987491638645,0.18808601409108267,1.0731625919153622,-0.008825008945583843,-1.074792666325454,0.6633997511053994
-0.06625187450196013,0.6899583998203371,-0.19503276964633479,1.1292914811325316,1.3040878332157588,-0.7299818801915947
-0.6245921332869863,0.942891649948915,-0.7649972205946625,-0.1785869741407929,-0.2675566128332914,-1.183094101045814
6.478702668883155,0.7887162832224541,-1.767978921058009,-0.5769327851099888,-1.7397926211707837,-0.34068751898800564
-3.9603056753331316,-1.1832616070975177,0.6594306092266504,-0.25828735162236766,1.2950709632752477,-1.06132763760974
0.4558369393462122,0.41252955634180233,0.4405796158821136,1.321653776085656,-0.2809429977753763,0.4643870455164616
-0.321041697172358,0.2947266657659387,-0.03587243354837605,0.6526866307851391,0.9775985484434478,-1.912464814285474
-2.426434744256563,0.2656622086277436,1.2675238380488985,1.5208173070562048,1.3809252718682519,-0.9441903804012095
-4.837503283015253,1.596038295597143,0.9545247778879355,1.6251288707024063,1.5454382274354315,-0.7287354705686282
4.602912114533655,0.20089878989479854,-0.8288678398548028,-2.3195193546274417,-1.307905088583119,1.8199889424215858
3.4290121988819418,0.9978425639632981,-0.9684996654796876,-0.6063026207583764,-1.49711411773059,0.3729152403442021
1.6047422586171214,-0.6421481914088515,-0.49231693701366047,-0.3100292284068982,-1.6379728131785007,0.4055883890817685
-0.9281262541068098,0.6926319580712725,-0.1743663656813913,0.2840381443738701,0.463932589488734,-0.44220822508833757
3.4159516662601153,0.12485957639722638,-0.6331647671531425,-0.312168872393348,-1.6518338561248447,-0.26084606007716116
-2.2932578652294904,1.067401367336383,-0.24894447777623557,1.151907521354,0.6576369639589417,-0.4737091098540005
2.4638202022658957,0.055546181207412115,0.01777646648999795,-0.18441981384373612,-0.7601549221136972,0.20476705353396707
0.7263901012576768,0.5155346587006945,-1.0778702900985173,-1.0287604590903974,0.3864330029388539,-0.4169490003577395
1.5603714579838965,-0.37696573450778265,0.3732178309016584,-0.8706252176726947,-1.6958752990575423,1.4526954762215354
1.86881631435914,-0.2654718883437679,0.2627865940609102,-1.024682175725863,-0.8341699718725972,-0.208568470765147
4.942294550081359,0.17225898237906523,-0.4972023020863185,-0.8380923212277787,-0.9899121139418576,0.1670727754829754
-5.982031373950141,-0.36079294609382595,0.2918479828080246,0.8929939549505538,2.1791617636449896,-1.593329608282433
-3.4336050856469016,0.5938102304333523,-0.31715227648615585,1.0013490723823337,1.308507694045834,-0.7233497730894715
-1.0766619877975145,0.7130616257525636,-0.26853799498918096,-0.10208719767751309,1.41022219065935,-1.2994368244568355
0.7261971276511218,-0.14893908520832333,-0.7409503710446274,-0.8226414941970077,-0.3252039684400337,-0.2668789398602766
-2.190405191468917,-0.052617621853922686,0.9089053451088157,0.013130006172496558,0.5290088655176319,-0.9516488167902294
3.365265251405521,-0.12982145343329482,-1.0989296395465522,-0.9588857507614876,-1.1624226107930606,0.5152402677792843
0.28416837337063655,0.013831809389363764,-0.34138027315161196,0.181955310736832,-0.6644532244074619,0.13803846214060045
-1.1295439676756105,0.2940342481248147,0.03917713891820257,0.7799021693203227,-0.17071979752207714,-0.4922717639097114
-0.5225562749640803,0.4581604016465914,-0.4238566107647662,0.3227220699756424,0.8322429845971026,-0.5134827709195426
0.4199839102149798,-0.0325017498524946,-0.16351116365208226,-0.053784979883328796,-0.48256248337715524,0.43610753479294934
-1.7712788792249183,0.21489267750800245,0.4743327125995677,0.8091739041790048,-0.4901939258553875,-0.30691637779179315
2.9217684391911183,0.8833650582044734,-0.30070612342472913,-0.36846807738470777,-0.9446976353241157,0.6095653903740132
1.3524457210044152,0.053828506746961324,0.5122024675951671,-0.2333305662188303,-1.2104217568551554,0.5122048204679961
0.09550703352054629,-0.16156671020752245,0.9203503061353445,0.012799159726496756,-0.2309428649183281,0.15569897094441176
-0.7906852814216948,0.4199967041656337,0.1250027590565313,0.17637993674913494,0.4084337711778204,0.3364169263848266
0.8229770317110077,-0.5688763289573036,0.1504246838379094,-0.038646032169935424,0.13950371491696517,0.3200790878910949
-2.1736722640661337,0.07342582195070645,0.008059376674285985,1.221118956169064,0.5210130431849839,-1.32891118175164
0.23698351489976469,0.5438546931834228,-0.5300905274459992,-0.29324208270352004,0.40119241272058576,-0.09438116293217935
0.6828724674438456,0.3294809580281296,0.3155656778560333,-0.48982367178859615,-0.288661691379528,-0.014700937525534918
1.0967569322330348,0.3630626640013065,-0.31166725409556495,-0.6951601962052655,-0.9836269921692002,-0.09227723434314308
-0.3784040411214263,-0.33333357425366206,-0.15036826799479175,-0.24981459041405565,0.9494728484501902,-0.6811461513560579
1.4190274684252289,-0.9363349013971596,-0.1706281956178076,-0.33175815949751636,0.31561616287678906,-0.6361284054456561
-2.505380335175432,0.45804574351513094,0.8805573038943985,0.21163867604512193,0.36966375089635223,-0.615122184430299
-0.6690009637985463,0.840291828432834,-0.47447071004190616,0.323409907619894,-0.007317826916564227,-0.5816198539438626
0.2905790113363699,0.8271918429726466,-0.3490011969280097,0.08810280168850826,-0.47612321010840325,0.07371066970485946
1.2216842888690058,-0.501123893516809,-0.19563540749167652,-0.06510215582396303,-0.31527641126092226,-0.2659616058486543
-0.6289103259551003,0.22821239901011467,-0.23162475934385776,-0.0654910112844002,-0.35856833457933224,0.08625659063245843
1.5161378254490692,0.16067616974466414,0.14014841544893958,-0.34146401388762865,-0.7475230084404508,0.215624173773859
-0.23941171619680895,-0.38416588890920234,0.6678510261037869,-0.0745112970620301,-0.22427288186785796,-0.24645769197349615
-0.7577259115351769,0.7253836671611569,-0.5662114925209025,-0.004335229078416616,0.2250115903604323,-0.49864195696421804
-0.323229330182744,0.20134364273447963,-0.39683581187447287,0.255303286468503,0.34396618791555317,-0.4626885604519076
-0.8545623856498126,-0.15502722618375797,-0.12211155699025923,-0.12770948179431374,-0.02375750379796779,0.02736205594949893
-0.6107803284644607,-0.25839370995285177,0.40392259804704633,-0.36819746382171853,-0.6347783959184877,0.3891636721186913
0.9162458912042081,0.38147108554774806,-0.7931790317477057,-0.011813746852115392,-0.2752474277227056,-0.247586714490395
0.7694964772416191,0.26410947867020307,-0.21805659449503773,-0.41275838933012815,-0.016049838072236422,-0.2749500162715016
0.35091374177359574,0.27455455598436984,-0.1651144696746772,0.04406238693131115,0.18005434294427314,-0.17455463296347282
-0.29729889886291894,0.8979411245112094,-0.1899198352031162,0.02068675444247181,0.3430119089934207,-0.7631701707929481
