Gx,Gy,Gz,Ax,Ay,Az
-1.6892109999999991,-9.500345,-1.0117229999999973,-28.891999999999996,-516.56,2.9860000000000007
-0.14152585920847774,0.6399461990559874,0.2888255404507825,-3.1486372036172656,1.8586658907120246,-8.005251014440203
1.1435479239486321,3.707827021406937,-4.791473267447977,0.6324346555487212,1.144045459107203,-1.8103943385265402
6.1736666168209355,4.155534754151009,-4.3264710112368405,-0.6445707328842152,1.0780653323056957,-2.6716439809790935
10.359554723843717,21.4972435910546,-1.48348918955809,1.9962803452752993,1.6681961814940731,1.0723494344110653
-9.06951130240946,-0.2931149293464621,0.7448463240063363,-5.170106035788795,4.33487913369979,-1.6076698771535656
11.069752389437317,14.240967239854399,-5.535580458737832,-1.7194837364253086,3.980538702982583,-1.5273713796173247
7.413639672749794,1.9247043029358002,0.18076591250993113,0.21752976420750375,7.236577931705044,1.415792686909659
0.5968733195702489,3.0558349350275757,-7.964837348241777,1.6650803752721748,12.590006007099529,-1.7150086210962936
20.19744285642634,-10.522153049917007,-1.13487288171646,-0.343549387079419,37.295703359297605,-23.239308851313062
-10.165572017114865,18.174128844877025,2.8252781706180596,-2.967057407894151,-22.925182850881235,19.773434332965213
-10.390995285102175,-16.213739115691794,3.28009159989637,-0.30321673781505454,-5.093905355288072,2.066673610925387
-1.589531083882694,13.418303062412713,2.056650506507842,-1.6382898219007878,-1.0454042090821212,2.7062756652793327
-7.352264972173008,-15.008710396559966,-3.0325619049102226,0.4699360775171275,3.392486363642588,0.09754837346835954
8.351488070936588,8.711899140110042,50.593090531486226,-6.776547074837312,-9.156884969061824,0.28072978649453306
-2.182069656881884,-13.367212895526803,-9.299533176562589,-1.0364490351682005,-4.260032770135597,1.4993769726493646
2.784963741453777,-5.509539912662026,-5.177179813367731,-1.078026719405345,-1.1684333057008929,1.3205382411973647
-2.0873826174056376,1.4743294225460781,1.2810998750816767,-1.1058756456177814,-6.210021454530626,2.907454708921123
-6.553670188796776,-4.614182646195976,3.0800979791946395,-3.7207589262582204,2.84090714887555,7.572073894381784
1.3288028929579774,5.936506931838207,-4.791089880302021,1.0274371771697264,0.7295998606828,-27.495375410677962
-8.1617704641863,1.2713995873377768,-0.07499698418408007,0.4711243352939407,-10.25653267792776,-1.427185466554668
-6.091141359100957,-1.2078643127098543,3.5908115709318595,3.5811140377175996,5.3440761808781225,1.1927007687749231
-2.6807953836713296,-1.1768637863412827,0.2796581319326056,0.6118627272976604,2.345727907627024,0.011228667651547841
-7.74277353315176,1.5494307118574553,-3.358329561502168,-1.1712031458368795,5.7640573471043925,-1.445875969611437
4.100067918019552,1.7499932820360953,6.238416697082986,6.308486496554299,-1.9768393429985238,-2.593809953120707
-0.3573731793730095,-7.522080405729732,-2.236039340217623,-6.344021013129749,-3.247461976225752,-0.3146900456602364
5.429738427636119,3.233986920231728,0.2530097234341153,4.842476926430242,-0.746487181186279,5.267858422482377
2.667283030747001,-6.758954617067779,-1.5091078270439748,-6.232801293189315,0.6821317246605703,4.476768694803747
22.14173422604867,-9.614496041280034,5.976315330072415,-1.008652939524284,9.053170872963936,20.863176454834246
-4.930640452995851,1.3385071392230468,-5.15029478654429,2.3012299697903282,0.2014739669686365,-8.493605581407513
-1.2320677416944268,5.076835922302327,0.854165017789289,5.232848813256624,-4.101728089344835,-4.021182071595311
1.4473572789423677,-0.12010003323503815,-0.26041157785500385,3.0269109187010335,-2.294584298099434,-1.7303098746145675
-4.555288411946443,0.2958243155049629,2.3834820129812058,0.7571335061016358,0.06749715322493513,-0.5957695753179413
-4.2739236092765545,12.182993182967628,-6.606995553320453,-6.807266011846063,1.654652342779679,0.6257395025772494
-6.511691329020496,10.271492847776706,-5.491197539932809,3.576676877328627,4.05647527696066,-3.749122062724076
-4.441173739754497,-4.546903030435203,4.515415933058401,-0.32152638649212184,1.2725773862732197,-5.036379821375435
-5.876988949036604,-0.6941330192909556,-0.3377878107993765,-2.528341652054568,1.5921653199280044,-1.0611412652530563
-3.2074881063853242,-3.10845495555166,0.27040685194344405,-0.7737386209252652,-1.3886856725666115,-2.9015045271925666
7.11303745979526,10.303001450257248,-3.1395017410912596,5.8394831231387805,3.2746394803334287,8.788191944290054
5.091262545087053,-4.432412955849212,1.1195059685272355,1.415437286101475,-0.029570978649942625,3.8533504345517953
5.067776286143181,-5.918246482381908,1.3915302837026597,-1.42340244958817,-4.677334269769322,1.5173618361201524
4.505156853420865,-5.75415470264783,4.331687454859692,3.7949481938515968,1.8579331840785158,1.0442746956767663
-2.5408556258428834,-0.9757534767014244,3.446166295052228,10.11383530065535,-2.7326260968231084,-2.500009268651106
2.830824798015558,-2.8100164960683354,-1.404622521374052,-12.02146977100918,-3.3131442991949362,3.5389319911542003
0.3184140825002171,2.7647936427465307,-1.4594035095229283,0.19901551356473535,0.3599294057601664,0.0008642380687901574
-3.551323910391314,-1.7727395134058692,0.29525155364541744,-1.509717898257875,3.9243041455352916,-2.692083159615718
-2.9061029900672244,-1.1138681605969174,0.33295097661798423,-1.0361851686256138,-1.942701301262569,-2.889506217639232
-1.3742631119492357,-3.7223973613286496,-3.717141260932091,-0.9083490923876991,-7.639054133598336,3.252255867284405
-3.479770177598935,8.178454710451412,2.4418782348001993,-2.137529718725934,-0.8952680255957364,-2.330381358131924
-0.6587364021733362,3.744259701034876,1.5314653307284107,-1.3260907768267602,0.016396282464351833,-0.5288028759157115
-0.3477414647671937,-5.716210887141013,0.5063452207782385,-0.6128831794185696,-2.1215190519792766,2.048336600496708
-3.3258389208339985,4.0172971781830125,-2.4892481416340413,1.010486785450204,2.5814153038160246,2.6226647308814126
0.8102579005358537,-7.210728108371235,0.36687791700679107,4.0355550060628795,0.5487707536025941,-2.4036196494099467
1.0037500814614504,0.8540596403301666,-5.479286827156439,2.0847109180985477,0.5963925602913309,2.5102391791040137
2.2465434909528317,-3.0889741420838637,1.0020014909113544,0.1017503771689397,4.6389182056518665,2.0495713262382598
-0.9381503875424498,-0.7490932240350607,-1.585637858648981,-0.7917015229672068,5.850632311390807,-0.5887395401946571
0.7178501308053635,-0.5404465940801674,1.8399422999961519,-0.05952915928565665,6.048077205120191,-1.3785012276133672
0.5627164515655769,-7.591301270603595,-4.174903584884338,2.8504649863524367,-4.390881997858886,3.829356428826051
0.8087980474254891,2.2892053131562626,0.5774029717392569,-1.6022508213890092,-3.4117961440197697,-1.2964189952255394
-1.8394680616752284,0.2100079095601025,2.8266605364311754,-1.9091447384954048,1.2164430235699573,-1.8162681188439262
0.74021254375624,1.242392719259207,1.0133068073713174,-1.742525593845345,-1.54687074770299,0.7262106082750519
-1.8680941529778265,-0.4707365611988271,-0.47337446547606266,2.0713654738089136,-1.1945994868530647,0.9214749178084954
0.8223886718051344,0.9042990961209277,2.143772875363382,-0.14590791983972679,-2.266662705291022,2.247567345132814
-0.4723911683387958,-2.908079133062149,-0.5641255062299889,-0.2108199215807018,-3.420109600237542,1.3326210857381133
1.4468654445517712,0.14039050007951942,-1.319516323619845,1.1414689652409897,0.16284781865717934,0.1559842843566729
-0.3594795173413539,-2.1760734322745208,-1.9910762478984887,0.176927068455441,-0.13225608598618294,-1.1108258019778108
-0.003932362105184821,3.5450834942706466,2.641723960157499,0.4280239912118419,-0.8746760609059658,1.4387235823535727
-0.12036045624706374,-4.394951471135812,-1.8873391237812072,1.5409920457882251,2.5653972190832155,-0.5375574151676878
-0.17338160098947974,-2.211459374735815,0.41842571975456366,0.9570681833536938,0.036937557594329484,0.7933026220462353
-0.12538636794169436,-0.5128669931060975,0.6434423406610468,0.9814121261025501,1.4869408779287068,-1.1023725242576383
-0.006095542177627311,2.6316773436608463,2.200836014183354,-1.3245658802360665,-0.443919330312652,-1.2586543492805333
0.9025425665397327,-3.9869612506528602,-2.8112349959311427,0.8049422506622204,1.6160311045231819,-0.8747298764018268
1.4627748155932352,1.0615248667919162,2.119378652893056,-0.2991810746618013,0.42378382861864794,1.667595902316357
0.5733673077056569,2.840137236518172,2.1374437722253434,-1.346788753693966,-3.508744121805816,0.816554404716762
-1.2951337449517328,-0.1176849416698588,-1.6322995880085387,1.5725625301478179,0.6224833266342643,0.6586520091874417
-0.7066335286226173,-1.0681071714501336,-1.3727378428764014,0.5630340603153705,-0.6521982780894822,0.9487864486547976
-0.5104770156473425,-0.5384494310655787,0.8907664085716612,-0.4628259316068738,-1.4148713575051075,-0.3165878040813589
0.5826385243604182,-1.746874225900261,-0.8855496131633699,0.6644103943691444,-0.36603778157595157,1.1651597254706283
0.7393948130238641,-0.5805273011964356,0.26914396074050767,-0.115099445099829,-0.29603538623390585,0.40873749724892383
-3.0715211518599435,1.157048011476649,-1.6038062146859606,0.9189670823755981,0.26425743509440647,0.9466198726567165
-0.5612389263621071,1.9407795390797649,1.2739135406118176,0.23039348500039675,-1.6517541044875683,0.5224538390428759
-1.205267862739193,-1.9754096305268583,-1.848122459521377,1.4164306665167097,-0.2621928131799954,0.14663433145795507
-0.10281381039998211,-2.0918362204565457,0.5914228817521348,-0.16542905341841077,-0.6772292159731685,1.2242211126250595
0.20364962588119118,0.8678863540951559,1.2100597728631146,-0.7837131421341677,-1.8639842922899696,0.571457454212891
1.6112752556147871,1.054262087407702,0.38060492663262696,0.014817719829629188,-0.9904820293956261,-0.4516181486800255
0.1049445529716226,1.1468284052451647,-0.6692834852221545,1.3813420906060516,1.6814277501308603,-0.3894988648689251
2.1742250838449793,-0.48628996724207796,0.4996356543203583,0.05050845349681071,-1.490686359004895,-0.426955630364184
3.1091634335818146,-0.24224178392548984,0.6276661846142465,-0.74599198251327,-1.6366041042339716,-0.744266277432838
1.7367734440833607,0.16310033481742914,-0.025927471333059504,0.2629747207480346,-0.8077017092453649,0.9425709780473392
1.7746700878613586,-1.591916311812454,0.17172020262599727,-0.16988457534040458,-0.3244321575803316,0.963650402421082
1.2168696108940869,0.9207087573861348,0.21914976688685675,0.17332008311296873,-0.6693873836964713,-1.3737836817624005
-0.5920185064850418,0.02536586573135391,-0.4555304110977917,0.8351201309557205,0.18627611177698417,-0.096063038324546
-2.126795624854423,-1.4946394713151168,-0.09302119994779129,-0.25144094008775425,0.15432165007988513,0.9983161296248402
-2.1702176453850646,-0.8020813228879804,0.4003986924569237,0.23074167199931475,-0.6160914252031161,1.3161285704065548
-1.4034559797716444,0.04473647891717725,0.5813600987587394,-0.4441900527189422,-0.3114632534186822,0.1419163279962451
-2.482293008412391,-0.9676550173831217,-0.7739276017660862,0.6192608834428184,0.38420209303783603,1.2800148084067993
-0.8067228673797332,-1.6369790365846124,-0.598730952205168,0.6341222855417771,0.38866675687305835,0.5124386457177534
0.9648026319032866,0.3762698534843651,0.22210914283313601,0.08289930650063215,-1.5274794827861458,-0.1635819928805369
-0.08479539873307329,0.643598277463746,-0.2820947609740808,0.017334976654101164,-0.2617013558881798,-0.5822924380473649
-0.999725981358967,1.2806468390884085,0.8762822009115937,0.20957619857717705,-0.11547512926970871,2.187431753655365
2.8345961413443437,0.8703306479060025,-0.2772835944496656,0.36803957098930523,-0.7548456917064037,-0.5253274926596654
3.6802830415350427,1.6350690663853793,-0.26926925536236695,0.7033715145217275,-0.9263667691596288,-0.787528216994892
1.6388624586547915,-0.2261712734355099,0.4127070629412633,-0.7089162882840521,-0.6519853271832218,0.30232665896260974
-0.8144925724631358,-0.6500804907129829,-0.10781885172459399,0.1398260299939012,0.08764386009009723,0.8339042030129556
1.2919161949035487,0.1440107107472948,0.9473212878964989,-0.34198043618492313,-0.9680651725993299,-1.1636582574107486
-1.8465646877276856,-0.9890867586115746,-0.10015156132338508,0.06707569445654878,0.47278029048024856,1.0049803889842566
-1.3189166073487466,-1.1905299259475095,-0.24850511733760283,0.5838360101337038,0.11870648280392496,0.351398570538227
0.24620993861142867,-0.5492240756412793,-0.0712712513329885,-0.010828429344429688,-0.6604744018166571,0.9846120160514715
-1.3376122575001506,-1.913319834890589,-0.5126788266728433,-0.23944918779232155,-0.05855462693388659,-0.9819538711838406
-3.071665142416049,0.2057704906493561,0.5675111352759081,0.033252924945857826,-0.20470455832486273,1.959313143845694
0.0033968079993111563,-0.21578557151428637,0.2296066348026858,0.3881026758827489,0.09640835466802697,-0.0948783075375178
0.3398202267831234,0.42249853220746114,-0.40939899514623346,0.5530598273304667,-0.21404597316571752,-0.06099508513848515
0.8285478224948576,1.117749612080519,0.4663777856752583,0.35297248335862313,-0.06283879230217147,-0.04286601393211252
-0.631636080661096,-0.4386569588517462,0.3268148064632423,-0.25056705677835944,0.23421582344259687,0.8637722760719873
2.5551510814272826,0.9628201546043383,0.08378616363596768,-0.154433560493372,-0.8594684725198068,-0.6043737584510437
0.4932678425690431,-0.7422172880316334,0.3753785379906765,-0.005500821800833432,-0.32486791431732875,0.574951145321381
-0.6602009632482375,-0.6322292721162532,-0.20336651567000494,0.4204949906736234,-0.5027607525100984,-0.05216552755175313
0.5181263235514874,0.1811413320063736,0.9266916860422337,-0.07358009907897642,0.09557619919758667,1.0472677033407052
0.5314288407396018,0.07171572178501048,-0.2564272337338337,0.6284029837511748,-0.0067958632883742265,-0.8221861667461507
-1.716445198572638,-0.693376130458589,-0.3013009813062131,-0.20441703613833287,-0.7446206410338992,0.9008494366682279
-0.9869532243384389,-0.5023908057522836,0.1607028980434701,0.10032745566099768,-0.38620997357736003,0.11250951723474564
-0.9165831277893914,-0.5984815238684507,-0.4278234336291385,0.13666688100495714,-0.10178391024000574,0.3398648024268374
0.8035996113418491,0.48032529107437183,-0.04041170469984065,0.5139574829536089,-0.16796503432774915,-0.287854661647134
-1.5603012621493362,-1.3182463477057855,-0.5780515957600515,0.3199680534760516,0.021721559074214747,1.14594136510558
-0.016298644847575983,0.05955026446813222,-0.4419018329347151,0.3297657560083457,-0.526362951202103,-0.07776875025558763
0.8855071164981431,0.20535654842830792,-0.18535283593352175,0.2481908140520469,-0.35171279874341144,0.735818533506022
-0.7971073393323436,-0.8744083472344308,0.21725079928981506,0.04893106154137695,-0.08012086287957042,0.11494430867639693
0.3176800675659647,-0.5091740039566995,0.09513318801432741,-0.25455151428541356,-0.5748614171238994,0.578273872283713
0.518590661876894,-0.32613026994275324,0.7960127137702556,0.3478119029930455,0.6313269967503693,0.09010152406796823
0.15144784033993547,0.22890966122931725,0.018634861110162493,0.09959829578977464,-0.04807942374777023,0.33380301278246743
