Gx,Gy,Gz,Ax,Ay,Az
0.44612399999999974,2.455855999999998,3.634007000000004,49.263999999999996,-358.32599999999996,15.189999999999998
-1.1636997735968102,-0.16026155500759595,1.066822294831448,1.1776804518889965,0.6331748137152992,0.9614721579390642
0.6849028422089504,-4.497643870326439,-3.927299698173066,-1.2428878131599548,-0.4013126010484536,-1.4199216493843476
7.359159191205052,-92.09622104418384,14.531392834666338,-5.94715711419567,-1.4743855793242455,0.7222794471876814
-0.5123766004172917,13.7694023961369,-2.0750458168489794,2.6974735672025916,-0.37946493673700177,-0.09430284229171387
3.5035851761728547,4.740892983818396,1.4882455612589962,0.9038639623568548,2.108023894470563,-0.14448961853338346
32.34341226945688,-17.952641368347862,4.515857307503119,-3.394472386202458,44.72213916547547,-19.200644644594515
-0.9851769664927236,1.8770401585751313,3.638726453185141,-0.1268481904372173,-4.005186449046358,3.077208448660593
-9.42035184876488,11.576127246058041,1.3816724816793324,1.004651340649274,-3.339662927222089,1.4217621422736455
-3.6077256808109635,5.010858955333045,-1.2463179774268056,10.12057396752581,-9.721447012518254,1.1316829718097212
6.729988098693955,-14.628982941520809,5.807386473036938,-4.368233222970886,1.3015491234422119,0.13439969557268983
1.5544500690520637,-3.2362932587482707,1.994556820874166,-2.217571519838543,-2.307794866695803,1.9059776212056376
4.113424846606772,-1.7191223763109793,-3.3353796850649107,-7.363975450204136,-2.544237188226275,13.36274041899889
-1.9609722260294147,-5.218111930065916,1.758271782633087,3.0995698089742403,-0.3591952952844276,-3.0616187855154795
-0.658084264505445,-2.640804763543766,-1.2344403188607673,3.0693783347214882,6.56220321989663,-0.929544405915246
2.088270987604496,-4.968039168148558,3.176872918010938,5.077257195544825,10.107149185226877,1.9533637384943243
0.6161549867397327,4.137194155160511,3.460529212974162,-2.9562657452499588,-3.838891469536479,-1.5326089952022537
-1.3464340891177549,0.3719095544699143,1.3174644874519221,1.4813175729828012,0.45800800548319964,0.24318952333869942
-5.499245938139777,6.832607260978702,2.5894273279147835,2.4604776645017337,-16.257510554560575,-7.307490595146817
2.853468170968096,-10.353589946466087,2.4858771210488144,-2.2843202434816505,8.126031939126202,6.6060881874998545
-0.10565019304895892,-3.936215729674481,-0.7971887162707416,-4.474763629464324,-1.3771910296596417,1.0776805383198615
1.0582190728915575,-1.7542179614753586,3.5803710579852837,10.952968695668417,-2.451361215568438,1.790210222704046
0.26752545500850966,-7.318712027249397,-5.3399630455171305,-9.712901885031293,-1.3546885024531612,0.023999351527973112
-0.8847082403443153,-4.279198383944272,-1.3528872102185845,-3.184533878253274,5.003794194237279,0.2549340819426849
-1.6605078426195878,-5.12244392717923,2.5525895037286648,-5.045807151342954,8.116943077879837,11.86014349042208
-1.6161769850276968,5.604951243602597,-4.157165351334241,0.9622759684268751,-3.532997171448537,-9.518549776028124
-1.1981641842939978,1.3306424831914385,-0.35098686942935364,2.651944253311176,1.2932837715774634,-3.8673452710832623
-0.1264201717885926,-5.479865767947614,-5.333776296908733,-10.451306345032537,3.698784587487412,-3.7356103977934407
-1.9506976690874493,8.797071114755456,11.358139540724986,10.229308763292504,2.5981511672799713,-0.23582002760955068
-2.3689289051895184,0.8785967604223591,0.2568350365389016,2.0559340463958566,2.6423333103596307,-3.143975205065788
-0.8870756884229671,-2.4180041281504563,2.0178454221620656,2.19141471302714,2.5568863412972354,-11.283585206424934
2.6459021819626485,0.317679602294497,3.718598294245162,2.430460631790496,-3.065956102149179,7.021118483252376
2.906174400193941,3.367090786869508,1.5390292603992894,2.0321363679248616,-1.540265027332278,6.053388027267103
1.6960520171849278,1.286915535380382,5.513158917396826,4.914993257134073,-3.2168916226156132,3.210379674737074
1.5702111781311452,-8.171450757913426,-5.674484565957395,-11.232299835614777,-2.8547316622179473,-0.7320062155954079
-2.28926453639878,-0.4880763449518965,-0.8697956950868522,-5.425501309058473,-0.7598325026712786,1.1291831697914727
-4.822400456031302,-0.21150180411449693,-1.1067200108211854,-2.037972512153561,-0.9921179735701977,1.6660481065954422
7.503454142108026,0.8855962367164771,3.449974709240184,1.2107655612917978,-2.487373575869131,-0.667913711245367
1.7160035012152284,2.187825333559972,-3.1776181781231,-0.7549853550022734,0.7838883237560077,-3.109721529147718
1.522778399805473,-3.2752297629661093,-1.0108970767699312,-2.06033328130692,0.41163077926519664,-3.0911776667714865
-3.0981783406896297,-1.6579776004337985,4.510847073222889,0.04331001258791628,1.0043072979762373,0.3581482560770078
1.8559132042255748,-0.3193962762198671,-0.45746236387472383,3.035639252701208,1.8226840298054303,0.9434733047732724
2.984159827213235,-1.5184501181102212,2.0280064719808997,-0.5373749770967541,-0.436753421579097,1.1662878431298627
-2.518914058721167,-3.593763366672156,-3.0955258631567353,-0.9287365736184615,-1.3353383707682835,-2.88508298198604
-4.798354246329765,-0.540029025454462,0.08811959918551703,-0.6482590585052371,1.9105755673594809,-0.2809010272343898
-1.7040946194412994,1.6478195571388101,-1.8055146738394794,-0.30177569125131837,0.5214055421935535,1.4585651138120608
3.7991913715047363,-4.185359081891617,3.053565880147554,0.6418021489350433,-2.4766448012893,-1.9326910056006557
-0.3381031217477053,0.6153502357050784,-1.3485195938566805,-0.050290584181310896,-0.7253974734066652,-1.7365027431901399
0.3911109646025729,-2.1109172537817047,0.36755309852257,-1.86256355650988,-1.5797012952842173,-0.18602390594004464
-4.78055632487375,-1.737276921335781,5.632031682263309,-1.9156161694102996,2.37858931685441,3.4548345081620204
1.729977813226374,-1.9915596764240577,0.38398617009726266,-1.5536549629745118,-0.263129928715978,1.5540438310332
4.229767486978407,1.1331003121119796,-1.5781154385087997,0.7073663450796774,-2.4217108770660887,-0.0032309786274258012
0.11422758646442388,7.312627087116555,-3.9229630642378233,2.9672967349282575,-1.1857793450271337,0.8684409931935111
-1.38508834173595,0.5451744008683237,1.3305685644569485,0.70833423889887,-0.3736986705270783,0.6361303406167915
-3.8113819290956683,-1.1380418431360764,-0.12619212871063845,-0.3942121721710409,0.8509730981711077,0.989569273848722
4.590712137287751,-2.7036140670876057,-1.194073691375983,-2.3736876414834005,-1.234702699135727,-2.020045665727059
0.12015378190166962,-0.5814272189322595,0.14255416012046204,0.19774708691144732,-0.6093419601081765,-1.3013514998451308
1.047189820855329,3.8036729503663476,-0.9637564694657447,1.6641471008421527,0.1844132423935716,-1.1657010567072892
2.805070663481243,-1.5186592053670287,0.6073161179864204,-0.2442975623397636,-1.5025103084950444,-1.2926092035392416
1.8342495920709216,-3.2408283872451924,0.7977255801352106,-1.4477456645360116,-0.5211184242917584,-0.38144659971122946
0.9622201364005618,-0.45370738694589785,-0.3087950905673542,-0.7481074449095217,0.6837280273965398,-0.00027153826338095766
-3.976367678472135,-0.9454688351568731,1.8929921640884204,0.14484671325275547,-0.6368208944374185,2.729394928497789
0.04154632240596598,-2.5579476071134724,-0.10288762223919046,-0.32352584027508097,1.463026385429259,-0.5281663021027385
0.18780667301019371,-0.2125974999830924,-0.9228982116391434,1.0258494290110833,-0.21260610954020842,0.9355821327953107
1.4596401327244575,2.5833462617306724,-0.3005485712359929,0.5613347792607979,-2.165376816026437,1.174240144506502
-0.962180752545107,-1.8588088250187544,0.8422905227069437,-0.5532310391231072,0.09624714329804575,-0.9616384327793189
0.22610973934878703,1.8610366939023462,-1.1607642755561758,0.9847421269465226,-0.33829754469788587,0.3308050925962429
2.001976020289229,1.8500470925585697,-2.3489841228488744,0.08401824433878413,1.9517746135378553,-2.8557650505705743
0.2569357996944892,-1.0223892482121582,2.1084313152441236,-0.6786216346083012,-2.145827238456203,1.0173353338508377
-0.7567614916156156,-1.9055221497395125,0.31241825789833666,-0.78471747095294,-0.7491848917774911,0.9269003240708169
-0.3897369296319817,-4.5203018268049115,1.2338883964487999,-1.2983161765375117,0.3212655090234572,-0.6862413279526609
0.38982146498541476,1.9773488451014167,0.7235914216048094,0.32425850674899,0.10761302479246747,-1.312667543972009
-0.7972265122864846,2.7032531311370023,0.47047356814955965,1.6289116166431836,0.8664221670105058,-1.2115195057776669
-0.6288449182866109,-0.1626350597936287,0.24529207785836823,0.24445591730504745,-2.755685821062232,2.681493404573768
0.34628292700777785,-3.651410914918678,-0.4219542204546036,-0.874077042780682,0.5457493286228436,-0.5851981683449109
-0.7381828046970109,-1.8480365648484591,1.2128735858540416,-0.9583328487031628,1.7301658691475654,-0.8298333765821047
-0.697448512564316,3.333635630883233,0.5836568761839727,0.20092055263983377,-0.14921086801903918,1.225348023703123
1.779581337246817,0.2659607397862239,-1.3635700854598076,0.49887876623985766,-0.9067483251043728,0.960001270297174
0.9169349368019358,-0.8475678743902435,-0.481292995697411,0.5377157587973823,-0.24089502177000557,-1.267394641590617
1.6684132103355926,1.8846785112264972,0.08342642817294466,0.674937758321569,0.8212543499458838,-2.1391987479176646
-2.4394889561287547,-0.8713043558221619,1.6022859565175755,-2.0033677503923104,0.12319957776064008,0.2536873674000034
-1.3044500143443085,-1.5226303770289908,1.348760879517567,-1.1879824735745597,-0.17774616545978278,1.3524556977917022
1.937209996818962,-2.490775971302412,-1.5206464443072147,-0.34177075720545336,-0.7333680318638507,-0.05670065810799607
0.3207831403283311,-0.40066610215588105,0.8628070709715233,0.5300676184830644,-0.16669485509170032,-1.1076346436306423
-1.346766175132438,-0.6586077175289893,0.48483190621187644,0.44706449507964624,-0.17648165465879387,0.9322534220935841
-1.5158790735422578,1.1872156270608138,-0.4907276691630924,0.542921725496935,-0.979047171258636,0.9082217435263953
0.6850395084049502,0.9905646363856679,-0.6357272176835503,0.15561685695817884,-0.5061186451122082,0.22290617031701407
