Gx,Gy,Gz,Ax,Ay,Az
-14.127447999999996,18.206704000000002,6.837818,-11.395999999999997,-491.5559999999999,-82.52799999999999
-15.078247597472902,20.441661553481442,4.796430495917636,-0.6081035745152453,-1.8201123148038953,-2.0194089842803873
-5.3425417961856025,6.621093127252225,0.5486458738244389,4.272277101751857,-3.174475047480626,-1.9960846586234409
6.428798493558146,-4.722305389962674,12.204276937672885,3.322060372236737,-3.0147694067685586,3.334975046590024
-20.657432260744784,29.252739815369534,12.823732632832142,2.9619749673982825,-5.66325543763391,3.497725978644142
25.350825206579827,141.31016439759256,-30.50389155119105,5.422640081842735,-2.2972780133038193,-0.561207622331688
13.246535051873721,-1.646849556788087,1.3469457061411,0.5588914965938994,-2.872008768013419,4.840096568951965
-10.854741211442908,13.978919277983929,-0.19447823020613386,-4.10791238140538,-4.438559397940267,1.7643296737552845
15.7724041327401,22.96409437261763,-0.8568281948910972,-0.6299416657933665,-6.805031732027464,0.12466538075077598
-3.8191746352734315,-17.85460413566047,-2.429842708059791,2.760900844189316,-11.151411943044945,2.054165032910825
-43.63531339686166,40.35727547845941,-11.876547726177703,-1.1451540719309299,48.770665683321205,-43.22403395740769
11.163466021097184,-4.090405667794906,-9.743444944729262,3.532607521894044,8.529989090914889,-0.9334987236689003
-5.230002370630018,28.286087257917558,-10.462468382434068,-0.6410775707494425,4.142912312090259,0.5903613648020047
-2.7979150523551177,-13.428112452665383,-25.896850451314194,3.1127971271052908,3.0739226559854713,1.027265455169928
-1.187572942270116,-7.343485282967863,-22.371673016391917,-0.7453480846087457,10.810503370620205,-4.135896231805532
13.181546207836588,26.625323748185778,100.80339141428753,-9.574160554317714,-0.5646960469696598,-4.078822214139098
1.7126761759273683,10.806338205054441,18.198309291127718,-0.06945035784958092,-0.9797264237595851,-4.031865296236772
23.91363894887986,-25.54230943230415,-6.5858079629424555,6.391676572210418,5.627873165882773,1.0323248573003303
4.144041479031831,-1.205923794242535,-0.18125490066459382,1.7579616143705423,0.2507181747036449,2.1954423459073644
11.362018592899313,5.784225244952692,9.637401357235007,0.17774223485918172,-5.241685526677427,-5.042967817023085
-11.721619042772181,8.861925042095807,-6.72840657635715,3.2416366914130297,-2.243142004827094,10.364244753333564
-8.884548000862143,3.0540766554777425,9.28516298514719,-3.617516956079979,-2.4554989193572476,0.8038657529843289
19.330710593776793,11.018255376960619,4.808528777059522,4.253652264655456,1.7268267000524542,8.784205082887283
10.769731154195041,-0.516878932458752,0.5567166593288017,-3.3678416678687446,1.1339222455018938,1.7105663437681597
7.383427117771469,22.953469736203054,5.281727525685361,2.293140352396983,-4.500594932103728,1.2086827069195472
-2.537508605926713,-55.59871473586642,-12.575817499511745,-9.90887558658871,-2.5615363702455958,1.2739979100382017
-0.9186041144417165,-6.643456625621021,-4.3631553300596115,10.653062240264855,-3.8421569060083076,-4.559787144837221
-0.9477184065381632,3.9905207376409093,-7.046543473992703,-5.571761267604855,1.5352841380472735,-2.243617332428466
-5.3989089301459625,-2.0015506119404867,-5.865548438098614,-0.316054860881483,7.150084321866045,-1.6549442781275956
-8.020960637260986,-2.2552775357197428,-2.242085447935227,0.9091962793660258,19.680370743013004,-1.381456976263868
-9.843262845403764,-9.276391624008854,5.901620335268469,-6.176042909808306,-10.677830868710426,11.70558007774856
-0.9821888468046028,-19.455727587963317,7.49504835675727,0.32120114578307546,2.7400498124534574,5.4680557508455605
-0.8291663765599261,8.764221115669876,0.807289824136659,0.2963939296011536,-5.209197963833618,-3.5670580818683026
6.716040744377085,-16.246723354532588,-0.3548641193597204,0.025958090430970415,-8.358911167486642,-1.4129902764134907
-10.608576464480205,-12.07648214256761,-4.661967162636534,-8.129876982394412,-3.622514496662337,1.1894693364520799
6.715059807465097,1.143110772930032,25.297661875094743,14.422244388165645,-4.803076760493638,2.838770950050481
-1.1614709428866736,2.836474587278794,-1.8967566390601804,-6.31133008986583,-7.722045123015052,2.8417282134801867
6.2899757558248695,-10.947714985697743,-0.8207450778500807,4.628019628704578,-8.562117540181625,1.4085076820783304
3.553948754054395,-9.802219865056816,1.8998644449132647,4.691350564937245,-1.1933422211003526,2.1789314290127386
-5.182256461245573,-10.693683218730426,5.768218572399183,-0.7186479602107448,-12.80968003171106,4.566121049311828
-10.65162325775791,0.2883010611270773,8.313050536197501,6.67046674002407,16.328831625339852,-9.514380947702882
9.834728553540723,-5.664507157282348,-1.904140879804212,3.7900526300498107,-5.923152120950288,-1.8539959311488574
-11.905016038262957,-0.08428670004678168,-0.8371331404965208,8.336988691560167,1.6771632402539218,-2.320888696974073
-10.766207387879689,2.9815967974211577,-2.7942424966698263,-0.03010234572232051,8.337373034933968,-0.6496466520886985
-12.761573341621528,8.696294153721395,-4.77764404658337,10.456873312870075,0.34362847874720037,-5.011166913146438
6.379003529762882,4.402492013672565,-5.02278038928892,-11.0308876144565,-3.5412442830657382,-1.443248040774138
4.705974255369061,1.9527509278886757,0.5682276547334,-2.214434469884769,1.3402774371920891,-0.25328465145820855
-0.9994823848190739,8.923513899091263,-5.851206657185378,-7.183396939050811,2.589482333616789,-2.565862522642709
2.5357657639596667,3.365183338574158,-3.1010745535452116,-4.499929456554361,0.8416147889197909,0.26449750432270674
9.253028160524591,1.8624495421330933,3.1487361680242616,-7.814230142593542,10.674053268331292,-0.8959113864761372
-8.51508949484179,2.6384087685771798,-1.0890333058283823,-1.8438526231607901,-5.983004791510335,-0.025121442883283163
-5.418440431098954,4.186371249903644,1.3257889475452806,0.9151495830120108,6.186715335881148,-2.5910888201297726
7.423461527162129,-2.2846535604230724,-2.0238142484573247,-1.4554814622182177,-10.092908938412707,3.826117011993456
5.34206236031388,-0.6449347879059777,0.873307437235657,-0.7113914176955309,-7.220254694468095,2.6103340941185693
-1.7459570327674312,0.8821327702857915,6.913881098936416,-0.46600905630762446,-1.9395937081642103,-1.7509874083073511
2.8536130001214612,1.336724518049111,-3.0171631693052428,-2.0709215879209726,-1.9841230510012429,2.1049518982665294
-2.4465846367431063,-1.0645874290738857,-3.4558322042153855,-7.828292011770852,-3.180507524277189,-0.7260161293522884
-6.528340513476212,-0.096631814437065,2.6830731384167685,3.987198263489745,1.7976889891634174,-2.501862513134492
-5.659046069586367,-4.115761864971855,5.89664155659116,2.8551285692530697,-0.2846396008192573,-0.8955960669255343
-8.645888522037502,0.7799760790343837,1.419890106263053,0.7890154045368685,3.3514174362873854,-4.289160510244202
2.873752046275566,-6.723308088547927,0.5256396706952495,-1.571156127652968,0.0938833305761364,4.067643881809525
-1.3079974935731233,-7.5231576509411555,1.3249975139422219,-1.9420716415844803,-10.223054132633356,6.199472979377251
0.3934607077773029,-0.7300991166075486,-0.6108140696397487,-0.7564176023987421,2.6448598929515255,-0.8531928434386489
0.9344522456688777,2.2507804188602254,-2.4501668481950967,-0.02442556976700616,2.924725024809792,-2.941153078204909
1.234199500712776,-2.67164710033669,1.1077178860954273,-5.389702290753892,0.5464777507975682,3.794201175628968
1.6938190157566577,-4.659620207907058,2.516481463001156,-2.3182724708759523,0.8093183147314098,1.9826231567038368
1.4938408094189584,-0.47115331306972236,-0.2585247099854866,2.9062197859703245,3.4449774979579875,1.5680480693341186
1.7538189224387262,-2.477746862338882,0.03762021415367134,-0.289731525762165,-0.36434809881010777,0.33806400735139275
2.6739463188660038,-6.944581270587677,-2.401656049229704,-1.8822559185774568,-0.6155911486544667,3.3767311628400205
-0.9598413518129156,-0.7362935120018883,-4.411377495883189,-0.8023530872292864,-4.79983910255664,1.9588420867667795
-0.7344026708987468,-0.3449415910884839,-0.9967478428071425,-0.4743434454835629,-1.1770620639694391,-1.1949348803550277
5.227053992129209,-2.661337081218776,0.9088502329728175,-0.43181016506327363,1.8231919473900036,2.424406318104745
-0.3659409733580867,-2.864692428397102,-1.0040159234235166,-2.0778720016715573,-0.8150540418080836,-0.009517008769749077
-4.470576018179702,-2.453519342399191,-0.8294129194584836,0.2004245224406176,-0.8296132696622367,-0.2696627357486553
0.6047693187108364,-0.4928473164627185,0.3033787870028056,0.889024396389996,-0.12259863150280259,0.010032508999996748
1.9020295046828022,-0.6522093780401517,0.02035391452544244,-1.641799436211308,-1.1988322654005712,-0.4923386123070808
-2.765934795458224,-4.322351223769385,3.3245701502548437,0.3777119390022448,-2.8653585566939435,-1.7402949509457293
-1.051687193954924,-0.5948885811120388,0.15599692163266735,0.6580815264135649,-0.8806832846255598,-0.5003131070485274
0.8046382294723035,0.4687907034756167,-0.02238349201910067,-0.10325362964211893,-1.3597346977077025,-1.7629372032326436
-1.0288702999801789,-2.948077199776765,0.9731222652929894,-0.7806663255884532,0.535092123915498,-0.19211894420760994
-3.2675768945904737,-0.7573476716392036,-0.3639198713591017,-0.885811777067257,-1.3714802693340475,0.4600181458920102
-3.125930744857901,1.81211114085745,-0.5116267815181829,-1.5925436252931366,-1.0945630966114308,-1.101915965242228
1.9909555722391827,-1.580558897935639,0.6736543929164776,-0.43145851387474543,0.06143324674805904,-0.41653672654572915
-2.107477791544716,-3.043826593217304,1.2216194913586003,-1.7161017014646927,0.49924951883058283,1.7696943657517135
1.9354137126790558,-2.9589529398096412,1.88341990774663,-2.455673001524559,-0.1576723297707839,1.1577234506304424
0.48046749896387053,0.22594755512853446,-1.4354400346137837,1.0600988876934314,-0.5650225199537928,-0.4542756087990214
-0.22057183607352093,1.007160711633513,-0.1019802058167052,-1.6086639348791665,-0.2635410151252121,1.4614883763158195
-0.42105009777098557,-1.249853746043883,0.10433745089490354,-1.3656549533137083,-0.06066023374206177,1.0877579045883277
-2.088557384941429,-1.3381964423940393,0.8484548754625046,-1.110639656286045,0.03025505720811865,0.359560630957503
-0.7445069025279158,-1.2266483149901652,-0.00033461095429609955,-0.7811376955140904,0.11081254532067197,-0.7496439613471109
2.163423871536668,-0.8654528963832572,1.1367742882180394,-1.2535762601637443,0.01081274008785732,1.19344835580823
-0.7149759999162077,-1.2707131112050423,-0.5129363115360878,0.6083567533339557,0.23931768957673827,2.4859552283293014
-0.8948080329108774,-1.3388250167998663,-0.7126513851435744,-0.40999217337438315,-0.10736626665639754,0.02725508819827374
0.895646456728239,-0.7826214782453378,-0.6529006587464878,-0.3756415770169196,-0.42764717883767434,-0.11867262107749055
-0.11581987617681322,-2.6548180829731005,-1.3834926172999114,-0.47438354956033796,-1.4103784991942585,0.9583486736713208
-1.2208411090745048,-0.348201946193518,0.6301707944826572,-1.067205813968876,-0.3628219254348931,0.28734132036102683
-0.8729440305747252,-1.3505491805525727,0.04292802820790176,0.8394179535811188,0.30812874221764003,0.9636848176494631
-1.4602760765829994,0.3478629503364939,0.034164118612993705,0.11827907071325258,-0.4135895858439175,-0.4209809081896504
-0.9259431689329567,-2.73618330568255,0.5755216902758451,-1.0186950934806873,-1.201946321678684,0.7934993313959353
-0.5081653091431964,0.6367533222521575,-0.2008941500079091,0.08772848364537074,-0.25821663897311253,1.2065432629562425
0.12382175439600873,-0.2928118234660135,-0.0824341180725228,-0.4576251564085232,-0.8207372423086576,0.34727242336157355
1.8042578951634465,1.241155119780595,-1.1495758603174948,0.09465852554989496,-0.5895233166745726,0.1464365715377975
-0.20979290458186503,-0.461782505508771,1.0409044755242882,-0.1717126397584331,-0.8233472716647827,0.5639400049824659
-0.7244496508836991,-2.280618622237044,0.29971611696494266,-0.5072349691024065,-0.4438590702314513,0.21249426720222309
0.057024222454385876,0.6093007250089542,0.6237196281949392,-0.7787149443430507,-0.1915284836196401,-0.6146416191580851
1.0764545131556358,-1.1923269585975367,-0.34119055763392336,-0.5990709976725189,-0.9452415401423105,0.9481472583309739
-0.31605162144356347,-1.1502979148283379,0.9546834234088107,-2.101006018309893,-1.1846762197900174,-0.5671075450769244
-0.33133589413262193,-1.2065931434342634,0.2697232996196747,-0.6371492498968513,-0.15507970662953693,0.21735267916935772
3.096754333110964,0.12779494109195189,0.16766601532787234,0.12507754247542038,-1.0777004031581097,-0.42910799027135793
0.2598728093071704,-1.6556233835422876,-0.27838629503827095,-0.6536749798187074,-1.0888423582026723,0.0065804278663098015
1.0826851620338263,1.8599815259773589,-0.33222245594151223,-0.18087306624019053,-0.8176833677655402,1.457667033136257
-3.4410389122378704,-0.8756647151590553,1.3980112640919482,-1.2459022676447953,-0.4061171268362141,-0.5721109850959356
0.21978062973334284,-0.43675335691799577,1.1898280048434444,-0.9085117151526864,-0.3307785438583141,-1.363833094159643
-0.15634691877130566,-0.8310904788645105,1.0776934808513559,-0.3698907264726634,-1.0451056006520858,0.48935139771284886
-0.6850070917856965,-1.9648157318217787,0.4425821566607031,-0.9267079336910357,-1.0892288171679347,0.930496097823133
-1.4618711361542736,-0.2940437649783781,0.3774969059797948,-0.7545686106871021,0.029754786882264087,-1.093344247915351
1.7432983550318242,-0.7064341328306235,-1.0069501661453757,0.9242077956054137,-1.1714465669552812,0.7812195218981997
-0.3752357850547644,-1.2642031192619514,-0.7019191926848414,-0.04967434142561916,-0.9149032813957862,0.6415936709841383
-0.9372634723517329,-1.12424673139345,-0.13449695988479934,-0.8433810749597171,-0.062189154778425085,-0.11122118787464748
0.4562772449247734,-0.6154435399031051,1.0072961849778228,-0.8675991844752134,-0.8795290634386566,0.3269271774515687
-1.3206712469189585,-2.470341539990411,0.236775721994264,-1.0049574340450667,-0.6368456390309392,-0.5435757130472314
2.209925403479785,-0.5277674473671669,-0.09000816749051971,0.5805776479453163,-0.9686259610582096,1.7663323481634308
-0.36672004821898513,-1.4331238285289785,0.22381352659933915,-0.28404347183779166,-0.9413040328686498,0.8161421540490774
-0.5750828906348471,-0.46865572932995403,0.39812596111563725,-0.7763473574380613,-0.2912353300710051,-0.2342753411436836
0.6137738071954248,-1.1711474341459684,0.11975701901634178,-0.3692354942785978,-0.746295321785863,0.26036502949660223
