Gx,Gy,Gz,Ax,Ay,Az
-8.836134000000001,15.777806,-1.6125770000000001,22.333999999999996,-501.16600000000005,104.234
-2.5658963338089227,15.322563789547866,-4.503944175925245,-0.7342241172565899,-0.06471663005719486,-2.949637316245018
-3.5097109872739853,31.292280890346362,-5.231246151714608,-2.6905892642007005,-0.4505931294583292,-2.2845941750527476
-1.2157588639507089,24.561182411589517,-4.077211481958239,-2.052805008037919,-0.21985718742926708,0.040797742850548824
-3.9596476259274747,44.21443197845147,-21.56212351890124,-5.934196784821416,0.46595220472232235,-1.5704833887935836
4.987298882408634,-10.801581584980436,25.460579937196126,3.1835393712696556,0.7121737109647459,-0.9746308245286608
3.0749263668205185,-16.255176999846732,11.879222358988882,0.5736785017836699,0.5611601707361207,0.3060456597199118
11.864523723366364,-6.720791382260487,3.2696725909470583,-0.2888523012153004,1.3431504286183253,0.5139223350709268
2.147970972881854,-14.284173623829147,13.304653434615467,-1.876254280093741,-0.049859819164662866,-6.1277500119976125
-20.68507366161468,1.7651904498437316,9.004284916048942,-4.519781466556406,62.036207011543624,-49.03602465421122
-2.2315228433683556,0.827730829905182,3.8794956948358963,1.3595670620225628,-8.620771961783774,2.3492461099521504
-1.9961288519718374,0.5982583604632616,9.866028873509325,-2.388462430070537,1.7723356032803173,3.390678576242238
-1.1710228240568932,-9.235727157214235,21.40585215763256,-6.8544934980451835,1.8856613928823407,1.7294094897400616
-1.8155013411463656,53.63293800863621,34.2366711104209,-7.463563243983041,-3.57089788361113,4.22726421450567
-1.277204052693916,-62.34662686046188,-52.92678300679055,19.83813630290563,2.2270203776063084,1.6404298964090471
2.7648209014373997,5.797311041357238,-25.77547634487501,7.027111420136203,-8.524439436421,-0.21703650397360064
-0.4449087260447341,9.84682351602501,-4.776062757938821,5.094337007376109,-3.2015520930783525,0.8110358836143297
4.409894087068724,-7.645464246412152,-8.23828107847323,3.5888655180803304,3.149022239877908,8.001147564637098
-9.303761326407557,3.9848677554809258,-9.61367667712213,5.475891870193948,24.759792831343013,30.883614681627492
12.053559930673021,-3.610703681511832,-5.572261104197137,1.1458917937402195,-4.503453391298015,-0.5417283824936892
-5.295370380479537,-6.019035521144406,-2.806222915212583,1.5303453711000898,-4.632738393836269,-1.6058016106401478
3.327562048296194,8.450754236557632,-2.101992053933529,6.124756156461494,-1.8140907606555132,0.8530593851251107
1.0531340882617164,-0.24002944041367957,9.603938359211693,14.631115191597306,-1.338726191025174,-1.0901900244206877
-0.755808869721911,18.123749374066552,-7.934321741531381,-12.445672019902332,-4.783222536076394,-4.5705631462545355
0.4699724766765878,-16.903055522476386,7.56822736853473,-7.687959204832766,-2.268962986429429,-2.4744643656512446
-0.8126809059467703,9.872953107245841,-1.4520030365879353,8.066046542912499,-1.2173198303025075,-1.047816852247763
-5.300259806562079,7.206400790709376,-0.9650582449825258,-2.105098010388293,-7.669929302876546,-5.705857760273877
16.814644986668814,11.425184741947604,-2.948861867210939,-2.1894292610489123,-42.02514964584052,-17.38323114832879
-8.486232947023659,-1.8893586370638351,3.8193964417209196,-0.5125528233239868,7.6972511086763955,2.907660929962306
13.158032982262892,-7.73451026672009,0.06175434668355173,0.3329997390909918,-0.16616891957005087,2.9821180285935323
-0.06794395788749119,7.513952981449815,-1.0838135196729741,4.336218625671639,-2.101277933862794,1.3813006118952122
0.925140499683569,-1.0000449965104679,-4.4560726192620095,0.07020321445378719,4.093499560435173,0.9676280610191909
-6.342301457395729,-7.313673508960166,-2.884176834225245,-16.981522017565403,0.0712824533746233,1.181940769106514
-6.394420415533363,12.402137814473406,-2.7966776226195704,-0.7260535358781195,1.0220774381294249,0.6641227614708649
2.3114122297992044,-10.451743940702364,-4.1659676927048235,-11.796250084147587,-4.825026092192481,1.4473634778654585
-2.7400919229739342,-3.9142917163607738,1.7012836158573976,-2.034739572842194,7.663348974470395,4.134415645554161
8.784562136099494,-23.6175136884088,5.576417145087427,-10.40884340147348,8.441500809422152,10.618651870971
-1.2688350715096626,-4.036614102006016,1.8639185250597983,-1.039208697440148,-0.849775381896531,-4.752199460551098
-7.296171955471353,0.9553983392565955,-5.934458477109375,-1.2235742025347973,3.2794413929943507,-2.9217216185617243
-0.4159837318224593,8.865025981332783,-2.311048047221822,2.570673201040152,0.9106792834395862,-2.27840977829755
4.079910842744862,14.354391500549966,-1.4719476930642765,-0.7476214963137173,-1.717064612463843,0.28270283676652763
7.839599887572431,-23.783485853218043,11.057500410020221,6.4735358145394715,1.240764854535925,-0.005052598512950368
6.012194606536465,-3.542688624812689,0.35669340638317704,1.2187155121125373,-1.9494940651441741,-0.8047873615587484
-2.7292275730819293,2.6172744735471523,1.0671931573715432,3.1882112245998684,4.181918813957024,-2.50221131699557
7.06926544790953,1.118557970474848,-4.208255234616486,4.261086388079673,-9.250156940338988,-0.7949288563118193
8.1876667192854,-6.79738005442389,3.199900477535846,-0.26591238733948597,-7.091486300999826,-5.961661630028141
1.0864147505368926,-3.1020275927806886,-0.9191747685020868,-1.1996295191552893,-1.4139681728913125,5.444176476981278
0.43819371446720057,-0.8125155045056323,-1.781614854940948,1.6889348071489616,1.717065009376973,-0.14789388054424052
-5.037013595707769,3.7503836494472758,-1.214466111807268,-1.5171631055161183,2.8441966867411557,1.5218234696065167
-2.817125767791941,-0.4890106377987593,2.2996897711902333,0.9712921034530979,2.6041303900224753,-1.407292513741162
-6.880377266342229,7.78051674315148,-11.144180944275238,-3.2605373921899234,-0.12657155962687305,0.36954756507896924
-1.7360176054114422,-7.415651330690696,-2.215213717916248,-1.6273927283867022,3.4097743630024766,-2.3992111028490344
2.0452943368267755,-5.183274583047826,2.4391931687385133,-2.743569835626373,-3.2575628905269065,1.5900014020004014
-6.290142914525564,1.7435266285993714,-2.8161040109614044,-1.2933818439359568,5.677373052277394,0.4102406570650967
-1.8479704333925808,3.4293754601784405,-8.261077317685853,0.6900801038431685,9.376620147730975,0.34588409404029075
2.4260501720205183,-1.0689405510500758,0.3562962534449028,0.7768641133796061,-2.9734819637242165,-3.936817940553394
-1.3401834082807986,-2.124103873703701,-3.4899499548871056,1.2623545800048586,-0.7022227317821337,0.4625753042284835
0.8945595677642952,-0.37576074209503085,-1.4126805045880018,-0.5708786568025295,-2.277813383827401,1.4180095774358543
-1.1379395897200566,2.0621332307390396,2.1735603350180597,1.674786138307211,-0.800923699517293,0.47756737936328764
3.8277329753436766,-11.224016317453724,-1.8103797107078623,-3.1214945283142637,-1.1765690231396837,0.5297790180829107
2.2978726484548915,0.17881493188505715,1.4529086251991068,0.3760767933460594,-3.8166665993886695,0.590767948294418
-0.4303293438462168,2.6607395733568246,-1.3766504793425147,0.44923758880449904,0.1983778342530047,-0.36372131239439903
7.112909158416167,-0.4157427751395577,-3.4866428612712976,0.3628500180522518,-1.2678664975359073,-1.7582180410884392
0.042119234706762265,-2.333001295499802,-3.379821320432969,-0.37555670144659903,-7.533776945860605,-1.362639005589293
-1.3093921386660017,1.0394977026237537,-0.22151446654992668,-1.5194311754944674,2.8482461423931396,0.9328284523684711
-0.4723237694012794,1.9172237884014476,2.341661452832553,-0.14581547617027302,-2.439324576975252,1.6685782113241725
-2.4461276474113163,-1.1919235565184714,1.2018181021987808,-0.514115360604884,0.5070846518672174,0.7249594278599689
-2.1782329280096904,3.5602015680738104,-3.9993095996118746,-2.107140361986764,-0.03278525338318028,0.8876556859844631
-2.4902272667730854,4.0087530544275385,3.181642370844659,1.8911752952732679,0.5452419736914038,-1.6747068622338812
2.4802437265611434,-1.6719721755033867,-0.7700357582841317,-0.22057901678367897,0.80177679634879,-0.6887896863507718
2.374400519112584,0.8368909943991241,-4.739658171412994,2.5340443748162116,-0.5825797063663468,0.06459693739966554
-9.492666468721858,2.6712051225094045,1.8631675962059404,-0.4439305483321884,1.2498390655651683,0.31212551365806873
-0.14946987870576678,2.61409143264376,-2.7836726627861132,0.7709642244713193,0.38281629515081317,5.024133068905282
8.212220822434382,-3.460445168696074,-1.0868840943369709,-0.08790963634117213,-3.0453379495476876,-2.8859767952416666
1.5579404316756422,0.23307700527860187,-1.935935726574476,0.6066038211997798,2.7178728655283173,-1.2965261991854313
0.15512650798934735,-2.429245700187601,0.1752756016094843,-2.0657555959118525,1.1094157379137666,-1.2903225822863846
2.668045605450362,3.1701364489520425,-1.4018108423573117,3.3611417249571893,-0.1848193592558336,0.7626469924497195
2.249352225947385,-0.8865648653626526,-2.1648838842932516,-2.433540962191832,-2.0318326798301847,1.8152814031663653
-3.745101820073031,2.193280651136077,-0.11374886685583441,-0.05873264363834996,1.279752099291243,-0.401396199334092
-0.25240311050451547,0.04341721156690714,0.9655407216504488,-1.1992154339315806,-0.15982344149074867,-0.6972081060511914
10.54784667403776,3.5162660506442514,-1.1802028896336665,0.5731785011432892,-3.2944530321503924,1.831068040732562
4.401847038915427,-2.8252007788277087,2.5213225181282275,-1.7187769174565626,1.2887862993107295,-5.972942316374631
-13.03674381709332,0.7367743714699386,1.0597685946685917,-1.784720697334998,2.0639331982831592,0.9859024345939083
-3.175077856464008,-3.3364518615314904,-1.2711608407122064,-0.8403766219494122,-0.5342080907826423,-2.0275510978113513
1.106169276162085,1.2378651092231436,-1.7955968092774306,-0.13927397998215518,-0.6084756863521088,0.96259740190073
-6.095818061793812,0.4728150352952707,2.9186785776633832,-1.5276871749452314,1.2435762609828949,-1.3092134189956814
1.0405036718611325,0.028466788595662984,-0.996083852804823,2.375790150344743,0.8818442338962873,-2.1240975034300864
4.847627841536117,0.5242641321120332,1.5420632846972,-0.25241903915233455,-2.2622472635116746,0.874618875121778
-1.3627295535589203,0.8171795957041599,-0.36422047053939643,1.8880555082178045,-1.451249083255693,1.4591908525854773
-9.859281084284365,0.16678163129883106,-1.9813844785400527,-0.20645551481969637,5.034424396114569,-2.2757992370317655
-7.355380408517146,2.268767728445258,-1.1237711481568238,-1.2452068249047417,-1.6335014273366317,6.759205173548178
17.04242740608362,-0.824253022899414,-3.335400459274725,0.5696148079619013,-4.347393502846971,0.5600428401613036
0.7723307117994995,0.29801533795357393,-2.1236874854312724,-0.22188047623911572,-1.1901728558472302,3.160073899255165
0.30728369621583496,2.1898840883648876,-1.5188001885256066,0.39367895962023836,-0.7504805530596843,-0.9601373799260231
6.978638021300629,1.216676056156486,-4.355840819246689,0.9237054281899284,-3.348280969568276,2.201927062256121
-2.5870136272287736,0.02948741999497262,-2.683463362769663,-0.8029251786698893,-1.4516184526534912,0.4024529373542193
-1.2162387515125752,-2.457399343834706,-0.33518058235645753,-1.4962710470023848,0.6177317845441119,-2.142653668885551
3.567666802395593,-0.10118885278005108,1.3272475487736388,-1.9495466250768347,0.7652830352267546,-1.4010644627463842
4.028667495691997,1.4213707051671876,-0.3570867736770664,1.196171054594688,-3.8532670616291496,0.7672123058305513
7.579377230644688,-0.08659143291560989,-0.1744103901589431,-0.799946070002869,3.027442747583102,-5.758766741765858
-11.646296542439227,-0.09065437954660682,0.8922899567006388,-0.43135996145292266,2.9868262758966377,-1.8781408810409208
4.395078909534812,-1.8559585398523004,0.16903192026845737,-1.083003637054511,-0.6721498320933151,-2.9583569601223507
1.3212226150986481,0.4126569205767653,-0.05640310340610544,0.24323296619613935,-0.4154447171063609,0.6848631534066039
-4.860769630565636,-0.43616920952417215,2.4509885055462233,-1.096794941066633,2.4238425761819746,-2.376898724504005
5.37383979571722,2.175408865102355,0.18360775073385904,0.10725638727973547,-0.3671348875504141,0.37582584011521203
-2.0198035939919503,0.23527135280974742,-1.2211264431365485,0.1412663748374675,-0.4241335726584827,2.132006289209728
-2.080510861162967,0.6368795423930518,-1.4491923003126677,0.0824961693931694,-1.5829295319693324,1.5938627898666846
2.197413560594213,-1.110994698810052,-1.818463840554907,0.06266710536459719,0.948259660553409,0.1459943645554248
-7.372206226128952,4.005528233214291,-1.960135814624251,0.8419971887519575,-2.766824265302543,4.079667118158151
4.984299777252711,1.70899510224943,-1.8823797556064519,-0.07341107032049521,-3.403856111721203,1.264749498264122
-5.54873759110538,2.017900165941905,0.028686682437496724,0.3202236692241992,-0.06356983468049249,2.0938519056583056
-0.9023888164793754,0.7379249370375697,-0.08473697435893568,0.5979941905345058,-1.0712659455503035,-1.236528416551883
1.6022923940172047,1.1360518917950357,-2.4037517014762035,-0.3188426165309015,-1.9654143557950539,1.8277476840240143
-5.229967651395739,0.6863535595714719,-0.32404026854686285,-0.47163939058823723,-0.3849043545547073,-1.1535454738912834
3.9102936668653294,0.16510531689013463,-0.3581430423053829,-0.3816910866008407,-0.7838595991585164,-1.9284155959879343
2.241877957790951,0.10593515387123559,0.40190893049033805,-0.39442651027103365,0.7087570303335347,-0.8277524768715449
-4.116606709560547,2.669598686052985,0.08632898680593215,0.24188149524780944,-0.35682018480536304,-1.5685371602792548
6.553515030889408,0.46395195043442433,0.08445152468025752,0.31031086508234024,1.46234917694985,-2.482262375610322
1.7375897560918323,-1.3317009505886943,-0.4029774278889653,-0.1666768745830327,0.6044004029980984,-0.9970636876215306
4.5007991392801685,-0.7212037005570422,-2.1493692093006227,-0.5337267506055362,-1.0119882812908934,-1.1478145645306603
1.9509214980490173,1.3834652514653647,-0.9603457066162603,-0.24376950631170935,0.7809979177232242,0.5742634687819423
0.41146565519446776,-0.050200265745356965,0.8810843375683689,0.1656676531007477,0.01941924108311166,-1.1373368009359548
2.9008252206954688,1.5669581358505011,-1.0166760875375989,-0.07755457228180704,-1.0221194154373983,0.9492170540876912
