Gx,Gy,Gz,Ax,Ay,Az
-10.208066,5.517411999999998,-2.896406,-17.78,-560.442,20.382
-6.522987943979154,6.897437805049922,-0.464013845573516,0.15711111314838774,-1.6511271265684575,8.170447497340952
2.94159022325038,7.847027123602305,0.8202487786789711,1.5507740202030067,-2.285322331349878,-3.081617394817686
-8.514330128843985,5.698228942622915,-4.307403722034136,0.6236189668575702,-2.047157620460487,3.6707827347416226
0.71012437648159,9.086509094218474,-7.362825921625202,0.9695107499822831,-2.950563760812672,0.7449973089895019
-6.624480640912488,22.683410292869652,-10.95136807542322,0.6016234231189032,-2.2592544616357118,0.5736373762606101
-0.9899176311966957,-9.564797049255818,12.60489274017144,-2.443890568632546,-2.3283778696430053,3.931754556815271
4.3193608785746695,4.26393727151522,-2.8186189370587433,0.17130560876806655,-3.2515460733612223,5.038858908182746
-0.30096207745253145,-6.336373371543711,1.3345070169562698,0.40521648800570553,-3.4301022788669266,2.659336142097752
-0.48181320488499924,-10.574635164557392,0.07846783086186127,1.3558235571729904,-4.310144387541628,4.147568274966494
1.4632476530287581,2.1617588274033075,-0.1777195866831226,-0.8257172210711852,-7.69148377173493,3.0172915795753443
-30.601513943246502,44.06134538911718,-17.76955768708905,3.750951220863877,23.345264546053084,-42.85257580346357
1.8625429634417383,-1.6367250008573766,-1.20641585579942,0.5668686932623653,-4.8335255695440065,4.216438330822841
-0.3013476490627979,3.2164385332797627,0.35048569643572236,0.3888666380391815,-0.7345696259632282,-1.5683863743534203
-3.718970058714497,0.7958844773157294,0.19273227611804344,-0.1738394117204869,-1.1855190267062867,-0.25710711134024167
-5.018290519922872,0.0751601536773776,10.525089620749817,1.6744884461262204,1.5784861988319783,0.39302838171917875
-4.165313915397217,6.891516807272628,21.37244510793526,6.003240268127331,-7.24783538060279,-1.9464823060839689
-1.3247282469938233,-10.833219159635163,-10.841998108189475,-3.660323784407375,6.043569495451592,-1.0521591047061893
0.06977818885811082,5.01804053630881,-3.310349524325508,0.5765196441952547,1.6700775296667143,-1.77922238891049
-4.215469322094976,1.8332886353946254,3.439957470899663,-0.5725814623215748,-2.8434579083656777,0.46879854528100895
2.1164600151128505,0.6667466556304609,-4.7274733537498275,-1.7471138998860332,-7.3604425147998125,-0.0653434233420016
-0.8483837172722433,1.9390617116616005,-0.4129390170924725,-1.3654940252500016,-0.4119861550881031,-1.2615085572829114
13.558474830771386,-9.493108275979084,2.812236131160802,4.066924143696715,0.16152268766712252,-6.084229226354213
-2.8176869257997437,6.797086877589797,-0.4636181594856775,0.8661716609830578,3.1548691670598212,0.5334637074626237
4.72481616733705,-8.934424528860909,-3.345610337594411,-3.946922446000674,2.963465789951889,1.1668575892750543
-1.3501746359516655,-2.96910085481821,-2.201205006932055,-5.980712637028254,0.9898384954350646,-0.9861634580874525
4.466455829150676,-15.585802905900373,-8.298640034534035,-11.314025249336208,1.6531953448164576,-2.5625044326706528
1.7346219662516216,-20.61619262932651,-10.984474663575703,-20.862324891711744,1.098255255889823,-5.751614370566298
1.5825305985083,13.17703667730212,4.578400684703795,22.83597041848301,0.5700558499757462,-0.8242852119735454
1.2110393050267367,-3.353509556375303,0.47580347816983043,-1.7184129890809279,-0.7242712327310866,-5.348256674087378
3.4324081675186937,-2.350168086850735,-1.5068251451984593,-0.3007879821998489,-3.4403890568773248,-5.256972243051229
5.4810343759909035,-1.6638297121725663,1.5026979160443583,1.206463112321222,-2.9906913495293423,-5.299088186049236
8.308015340050588,-1.6147677754751566,-0.26345840683814314,-0.8372004689511032,-1.3438798047974962,-2.4904685697703646
-7.275279867972779,2.7744710814734224,-0.21627621424979282,-3.1245215106254576,8.9992801465797,17.255353956427683
3.2001328087746455,-6.059436159315326,-1.4715290157108323,0.3507827437795983,-5.094857820491626,-5.600281123020138
0.17728883356620773,-1.5796864715315855,5.105701634083493,1.4176949148570772,-2.1474283999765307,1.400221279385311
0.14541195841610055,3.477444325521457,2.636078886786671,5.236600752209242,-1.0279699956078585,-0.6995803484030294
1.6787415061790703,5.808135323006355,3.0890938681978097,1.9450685558805605,1.509222033087065,0.5088743056630468
-1.0366309103787488,7.113727774188758,-1.5627166127524665,2.9671756013067787,4.762915339818463,1.077278729612164
-2.5868882553185943,0.48242080876354865,-0.5873759654848878,-0.9356452237721322,1.4801735813092474,2.5771185047199383
-5.05834788459803,3.4040885748927794,-2.349668319379252,2.9878089036857336,5.5796300610438925,1.4700266812712144
-1.711452144245033,2.9445077774542874,-3.201564468727872,-1.9556845255966098,6.016938223139223,0.18683068364833771
-2.500580632784589,7.321621819118768,-2.280298619181061,1.1959994710108919,10.662729825563742,-0.6584927543436647
-7.0203793737069144,1.8999342601675715,0.4775993932239504,0.6226061934344778,3.9159546525825313,0.18259561908315192
1.3926186055954657,2.0615383412407384,-1.4703637861621233,0.7113210478389029,-9.391272206087597,2.3151818500695196
-3.5101111865784516,4.716572445934258,-7.058349174863948,-3.288543552907337,8.208203472620141,-1.8573856900401093
-0.30774694491423416,3.202697956323252,-3.1801524622232837,0.5577530646659599,-0.6484427035413141,-0.04444414501391428
-5.788249688253348,-3.124762166917611,-1.1753102905991029,-4.119247487443451,4.286625373320871,-2.5262401075522916
-0.479869087335404,-7.052977880829605,11.50891433680644,2.7458132132529762,1.0355876285208343,-1.1476794390513678
1.2036290862920833,-15.878349825464262,22.328429052542184,-0.9474645886704041,-2.0501261026935524,-1.4851454787538114
0.01147488175680822,7.630328306253986,-14.947941703272697,-1.0779437231932993,-2.3167690914512034,2.8512659490756103
-1.639828149420062,-8.43389374804325,4.900787435055891,-2.901347219723296,-4.770111730347748,2.164610763137175
-1.6340989944138875,-2.9026081710052747,3.4494567767238475,1.2642347369274058,-3.2041119275328342,2.3286775697940705
-8.195423583125756,-3.4814114278362975,0.8600572986637036,1.4513805836336193,-5.515506557126656,3.1673087929507875
-0.6773543279752259,-4.9309257091487435,2.97084102262703,1.4586967316105497,-3.2861357674581915,3.1192571063521255
15.592284406100259,-5.361201172033343,5.590576330263402,3.8448822315343776,6.97858934468836,-8.806519535531061
-6.996788925212045,-8.379515134034774,6.437326800701518,3.006327509431299,-4.159272623114955,4.426176762006451
-2.9102258316416476,-0.20034337236334698,0.17349617209315094,-0.3325840895566069,6.20524637006986,-1.976934819626483
-2.8846596550934787,0.6750970978809694,1.409894280391229,2.0045657752328814,-0.06869427842762502,3.214337513000213
-9.996107382709688,4.800664134235805,-1.5469600978710896,-3.2205668303044295,1.4697152641929607,3.087559213546153
-13.489262046982763,11.010376321665262,-6.630866610793069,-4.566264363346931,2.1172091819314485,3.1117391377430437
9.292090592547021,-8.77609296629052,3.9448665620722876,7.099265120396246,2.4527972940580165,-2.7927527913010457
3.081584881778648,4.035465740722467,-4.047617571414033,-0.911401709686156,-1.367489203617505,3.3018985075656064
7.311988445126807,-1.5860829389834543,3.6566793275177836,2.1934955871251347,-4.3649824373667165,2.544779839071457
8.431223045320376,0.5601651785515507,1.9530500501655834,0.10331248947089844,-8.160412817444175,6.196333997235709
1.7930662186840716,0.19404471324161043,-0.8876274953628152,-1.6661080124915628,0.3737522246348114,0.06455200079480308
-18.55063321348076,1.1483687221532182,-0.6055845167664435,-5.207521681876829,5.645509167404114,-4.2618014645271565
6.9369070238017345,-1.864195001934251,2.2360623961231725,1.7289147595780752,-8.241970514929625,4.2853889673033585
-2.325188763237546,-4.324103797570276,5.3273142307182715,1.0691818207420725,-5.550532847855588,2.299356201784626
11.084478346303362,-2.971807070768882,0.9522415276666694,1.1668603620785036,-4.719104595038907,1.537504372345623
2.1076238110906482,0.7452833232804181,-2.7726846729888903,-1.5302911662003633,-0.23628811207390066,4.249860108454579
1.5686456425383206,-0.3921131441344142,-2.507736850420533,1.5085963703203775,0.9404579781012878,3.7911860339809897
-7.003350632150008,-1.9083674115164784,8.87726138703846,-0.09988023844174743,-2.453517784079329,-1.6263222982105168
0.2671112698978626,-2.481453438911583,-2.5672055099561817,0.9919850518564715,3.154114813686718,-1.7739166414062493
-5.570421296169546,2.403807338972771,-2.7854851134178307,-2.4638193925471383,3.786973177261524,-0.041918021868249555
9.50222234336589,-4.333671717178203,-2.786782420833916,-0.8505937752940449,4.585768006201086,-3.564831358709278
0.33084011654668083,-1.2323056593585808,1.681032649018219,-1.3566660357441218,-0.15895891235574822,-0.3452147157253229
-3.690769998848136,1.991712056649749,0.11681487534088272,0.26348460581411615,-4.184322747808077,8.492381502645301
0.21737375584677165,6.794791125492682,-6.031384421993293,-3.3254668453797063,8.443948299271902,-1.7209348333253054
0.840441637694226,1.11970234908052,-2.8061623731236915,-1.16882787193786,0.7320184374275496,4.98874120687007
-4.179470231133054,2.5916276190692393,-2.282275114266959,-2.3108272162054453,3.6922590080659403,-1.875881301598641
8.581815383909177,-5.7703827129979866,-0.675672355835315,2.321214168266269,-2.4814688350496783,-1.4344637932428888
8.994662479111662,-4.0554066217880935,2.6574101718511933,0.6992918752406616,-1.677123667747234,-2.827006582085206
-5.877441373783933,4.90617304477959,-5.870369842753902,-5.026655532513072,3.626423086403229,7.185527942834177
-0.34738785221698715,-1.101789275935025,1.7198614870796705,-0.12274828391536682,-0.48116584954681757,-1.2863868276076613
-0.1470537192617143,-0.4922453425287894,-2.7585443920197523,-0.9714907950863126,1.6447783369670064,-0.057708307605986
-7.815413431198669,0.5102867522948278,0.026011553843419546,-0.5185035469877758,1.2195413135767414,-1.5571518267759612
-2.278704506291619,0.31716481699203836,-0.09125136273139603,0.5751603833456047,-1.5807667341704643,4.1336295283363995
16.093761116721616,-3.252005608393205,1.0731534395611635,1.7560555884598994,-5.251301037643139,-1.7090716489873015
-3.4663035079424405,-1.3286765765478825,-0.6791032951620826,-0.17795255431214108,1.4809695969999963,-2.2748474418819846
4.253273746934599,0.4880802001617268,-1.5036785290304802,-0.3870565722015583,1.2166799846044178,-2.9737741384022933
-3.188106661658368,0.3195562274520466,0.410229653819404,0.22681752013848178,1.6444970113914097,-0.6690919163872772
-5.472549427803156,-0.8619776883361809,1.740373260800395,-0.843158713006994,2.54552977878056,0.23246557017474084
-7.663853802850391,1.009877854561747,-0.9809499780388521,-1.174896998413115,3.774580721029736,0.6419702570663179
8.593599693058058,-1.102955180457688,-1.5014981023764684,1.0190371595234835,-0.8010755253735526,-3.6901107791780947
-2.6384498780519188,1.6443680202639652,0.4298144394826963,-1.0758527544288115,0.9676643625112124,2.9528502140122215
4.686154261618201,-3.481876902661902,0.4808453009791726,0.8437868555114996,-0.7928466861758826,-1.6568403656415938
-2.6122622752935416,3.3644069071437794,-0.4875426817980228,-0.3626073442601702,-0.8227843337666343,2.7916235133039304
3.049696480856898,-0.5938510303768578,-0.9656851707935654,-0.6527152522705555,0.24198673101322915,-1.0208453528730184
-4.4734695846168275,-0.6877632783821376,-1.1126843352365083,-1.5025729042790261,5.239758902956744,-1.9386185085687957
-0.4248360746094613,-3.412305145326639,2.9924132814969693,1.4503943356753701,-2.8841433127000675,0.9308302038555857
-3.6126225296067274,-0.15666899400483902,0.31310514173546594,0.10027064495102728,2.2723385118652075,-1.6413409655103857
2.7791242477502434,-4.39737513933186,1.1248484524104816,0.4011173161068572,-1.9553185557799475,1.0993725253278175
-3.3051613061405467,2.8983431614497297,-1.523963864180476,-1.6276313519437755,0.11867670611327774,1.2246365576622122
0.2654121500541984,0.2890063714683186,0.09008658800243909,0.693052105369237,-1.3253085590742446,0.2512074892033534
-2.1103859244073733,-3.107820898538624,2.0844554199745464,1.5638121942658836,1.6940311051565398,-1.7427976523584652
1.158659077112147,-0.9575443537934577,-0.9555024704908422,0.2741466659736924,-1.4678554390401701,-0.31500971431338565
-3.595722301574186,-1.3251052645686963,0.603486613799463,-0.0950232393580987,-0.12440794452801812,0.9970444585744034
5.319272435333962,-3.356729458379733,0.8124942133212916,0.9325822302480746,-1.4374538486920634,-0.38938082451875655
-1.743416325225358,0.504775407730699,0.2170895005395314,0.20750608993884595,2.2396787053460865,-1.619758562825053
-7.428223703913708,1.419359398596164,0.798002578362466,-0.02724225643281021,0.9310263970234729,0.570312240526589
0.08331527614708036,0.8316093860434006,-0.6119921570655638,-0.5153615115988465,1.413833894852036,1.7529313112130969
-3.984024430421995,-1.7504834144297445,1.2365489559341976,0.38186375256321375,-0.5590333937055696,2.3861419477908083
0.705800093056326,0.6054845847902517,-1.5615375420083364,-0.48294279371034154,1.2051752271682787,0.07195591054338651
2.4870150517920497,-1.0541452956849926,0.36854338456434116,1.4801016424184366,-1.619484933516975,1.2393920781027237
0.8466585327708963,-2.46399430309403,0.17612524352169406,0.027772517182569872,-0.5814353579660425,0.7563563483145322
-4.408630204635835,1.2385004131722832,0.7355684041438721,-0.7714061720057727,0.0920474416195195,2.604036804337331
1.5842145845902489,-1.167737515203002,-0.1186647395858704,0.3027200025467566,0.962830520124392,-0.8482711624130392
-3.133477854029688,0.12090813159921343,-0.43290630784258216,-0.6211487868586479,0.9023666808820672,0.9841258262710139
0.13898474781406556,-0.9788806680690736,-0.5585297264892862,-0.514610151638006,2.80188099134215,-1.1160986582815589
-5.234737582687971,-1.5509769828567705,1.4022128097361435,0.5762743027490197,-0.8903182370509102,3.155864805308607
2.9189835648633613,-1.06973420295216,0.7018589349404849,0.8883530489085851,-3.252455758518814,1.3187493295655368
-0.39212282948235466,-0.3161615344126903,0.09310822596785048,-0.7417774002444354,1.9103572493646488,-0.2781451915398962
2.337763519082987,-1.2078912487783482,-0.36131671310965174,-0.6412154390440152,-1.805240917832381,1.3386594994726866
-2.242862683883946,0.1065903212459901,0.25790497305689225,0.08853745198488694,0.6300179225360194,-0.31353866713514955
2.426410235379469,-2.9808372070443276,-0.7013860942176888,0.19903440661273908,0.48977962918185425,-0.4513466328560539
-2.1740188588175453,-0.4999725238418431,0.3756121682217212,-0.3282020822171091,0.9446526879908181,0.3870358711959443
2.0341722586816466,-0.35784786273835123,-0.903829233252088,-0.4851975617993063,-2.1744975569744214,1.6272918146303932
-2.1083164183004848,0.8159377101282923,0.7440659468026434,-0.2452055867525587,0.3430621040987989,1.4677301073367341
2.8303831497998,-0.9433610799176393,-0.48785842417923503,-0.08471095396553069,-0.7431309442032759,-0.0956962148870454
-5.042885746132963,1.0150702807648408,0.6338630865281907,-0.5168837214622278,0.416464242178997,2.0006750036204397
2.5344160807577407,-0.594392909047772,-0.20419422071422244,-0.5778920035192454,-1.7210754609327972,1.338202521938402
1.9613474202713943,-0.6338352014039363,-0.5688139933790316,-0.7946091200523848,0.2571358631248468,0.6591549195989097
-0.11097483349965012,0.08930883503431863,0.08738104468815017,0.4475813196593293,-0.855446753195278,0.5928199768135849
0.8704428260734077,0.7660182808376068,-0.29532825658534684,-0.5445303116401985,0.2542131260984616,0.272446018240648
-1.2331560304057254,-1.6006990884717336,0.30056141160784633,0.38372402780156567,-0.12922315118212407,1.1970937818979936
-1.9444711771438963,0.14681328768096535,0.6672607156217488,-1.7513524450021998,0.817871062330219,0.5318580831753493
-0.06173329551752149,0.24294571928691333,-0.3033579123800919,-0.014059708748250535,-0.6175400497727129,0.6381608143389961
1.7062350058501927,-1.7413370659135747,-0.5961022202631507,0.07486466196148342,0.8466618450534391,-0.8097726479684277
-0.6025840666457792,-1.1741111892323985,0.5761147644298498,-0.2924185464551317,-0.7227304681280146,0.9625369074554707
