Gx,Gy,Gz,Ax,Ay,Az
-6.520235999999999,5.2770009999999985,-1.2086579999999996,9.626,-542.894,13.267999999999997
-4.103995942947058,6.770188305075541,-1.5228094595173254,1.0476886136031123,0.6736266933085785,1.650784927734042
1.3608546457502624,16.748158729404608,-0.12466407731874685,0.15199061527652996,0.5118875879074368,1.82394590993189
-2.3469381351703795,12.763056000686088,-2.3265036247802224,-0.30417187312803967,1.7570597637563534,2.6575947896541554
-5.54440462658287,11.237661026603734,0.0971369705040297,2.2100525296436824,1.3384372745974613,2.873601052409159
3.9781002101134826,-22.282166078040557,-8.314042331507672,-5.163098863997333,0.13254874005183787,-0.9342831908524061
-2.480580556235301,-9.326445402982026,-0.9498338989528095,-1.4600200710845002,1.1954561235044516,1.8840383142991612
0.3977648363175514,-0.8640681662076952,-1.3725680919179926,0.5349466209764001,2.9692262039683817,3.861231551432348
8.157111456540337,-6.66581417036573,-1.0918722702601482,0.047174101756724096,3.327501455030576,5.3633365802986095
10.810274932149083,-5.083885187048733,1.0940446139291453,-2.2450257959511677,16.715745507862437,16.70914013377504
-10.082321759093887,0.7630627299601782,-2.0116862773165503,-1.090860372236574,-18.88707232261593,-16.108255391447702
2.5080137862552525,-3.555220256163209,-0.3284066808924475,-0.23643115164851294,-6.545129016017961,-4.734757648292576
-0.40607813295614603,-3.287990570980794,-0.1495232524540664,-1.8239860035045665,-3.191608745080675,-2.8234216566628163
-0.6288222737870729,0.7251858437039178,-2.245347118155278,-0.9690747122932748,-1.6004858438627099,-2.862038166847592
0.9619992843301992,-20.298771617999073,-17.557180525278202,-12.589921161768311,4.565373733396829,-1.3070302547405719
-3.2953014120188113,10.71231837967845,6.522840629063057,4.918689692651771,-4.569531907529,-1.6133785270276055
0.005870344723207688,11.534897933345896,5.979736092733923,2.082983344777008,-2.134433973501381,-1.644564280817576
0.3411270120532005,0.7649902456395222,3.1634406825281993,0.6320762053009008,-1.052102677063813,0.5910067075118546
4.157118786025398,-5.354064942074577,-2.897611939639309,-0.13533956813116055,-2.845469896705441,-0.0997052100704614
15.182740432108309,12.061942206810876,-4.32405888060566,2.90716353537102,20.336502256766344,20.690127438194004
-5.040314238346811,-1.605268373891242,-0.7191672682284322,-0.7235212975806299,-3.896172218047494,-2.060485462643514
-2.5821691251852803,-2.3311589835526902,-3.090475578281291,1.3124946305687217,-2.092407860617415,-0.4704236451615029
-0.928247762601498,-2.63986350138856,-1.7377412971511488,3.244054929450616,-0.5615869515328391,0.2797125515100366
-6.228096492672787,-6.124780594369004,3.7669559210037304,-1.422622090149594,-3.7082196337960873,-0.7666873423486463
18.346219464720402,10.388750007562138,-3.234362318892694,-2.4116788958561837,2.5201044855824155,-3.379742878915835
1.8303414386495436,2.447785879354295,0.8440857648444186,0.49332899798877566,-1.841923253751705,-1.8584166384624636
4.271841260350206,4.178888399852404,1.6040558750549958,2.182372271023486,-6.417667472266471,-4.759130660070794
-0.6190509966919296,7.354394984435661,1.2591447443834038,2.9026086476265163,-5.69617426572478,-5.890413485704964
6.380483849860894,5.166971431126322,-4.91976464031119,-1.562571811925783,-15.801688125189177,-12.98687791089178
2.0528601293373976,-1.3455082796827935,4.096781327887983,5.596399288428304,15.671189133130877,10.862072288190365
0.43207792200697326,3.4296066725222203,4.304249623671819,1.8293954788459845,1.7668440546548099,2.1685793443559143
3.0791447267080105,0.9740550760529616,4.764580101705781,-2.0560602123089984,-0.4226840189670825,0.6232611932654057
-2.215940004142541,-5.416272024993801,-0.03880322992256913,-0.44868839049146825,1.4044281442653384,3.53007533858733
-11.200643760940078,-14.222940353747347,-7.553727859386898,-8.916186527287648,3.5141108194968336,6.333739622829662
5.279352868741565,-0.469877846914458,-0.8790275129922686,-0.4664382620034513,-1.375757150667483,-1.1699180469266897
-0.8779511731757738,-3.1029384415719012,-2.0583380921204757,-1.3876542238749998,1.0422794667577167,1.348618340357317
2.0531328246770775,-5.153088824935939,-0.3042400556170776,-4.096256019078248,0.18515932014558845,1.2252741086357202
2.022190747962599,-6.228194349338426,-0.8445413460436072,-2.1748938326728204,-1.1672754019726237,0.5805050990438821
14.471728923433828,8.376518563448812,-4.809819604225142,-3.6235278091062426,6.10253894799218,-7.170912219383776
-2.9979777762071778,-0.8032207047603043,-1.6950371569192308,-2.0287725387710758,3.2730990771945137,1.6868550643299027
-2.873024539355623,0.5356587668439234,0.3541976203002577,0.9863048733468429,3.242747565822345,0.4647507586011167
3.4106117597431407,2.7485369901002006,1.4061903633517225,6.192054981870758,0.7586227425918163,-1.5971541573180512
2.702487287798944,-0.3798032575553152,-0.9335556835353884,1.2704548331641816,0.5414339461667712,-0.6328790617868326
0.2368826252630971,1.6672898782435013,1.6216984308675697,5.779413805318528,-2.7864064938585535,1.7005753636566643
3.105713951849546,0.2168124299905363,0.6982665259006191,4.616385973762421,-2.3134854871995643,0.12556905333102664
4.720983094915114,0.8215587314020969,0.5318551262714746,2.4650505870899875,-2.8778064770838925,-0.718242690816362
4.7678527835949165,-3.867443167634103,3.6050331393118156,-0.7752132164681147,-3.4615581143915906,1.4389970048223661
10.37464533169739,-8.191728014346223,-0.19481764008180041,0.4826602728325674,-11.889183442020919,1.3328850068848275
-0.46436448743411507,4.386065081890479,-0.04506249389244221,-2.4558064140662514,10.45423348584781,-2.223077596487873
0.5674117798015226,0.6921038159281684,1.4530694827055097,-0.02888883273323478,-0.003657461689104524,-0.1954809240693375
-3.27574565516023,-0.46449909947860835,1.773457652189666,-1.033750497510856,-0.9269675359532004,0.976815114085421
-1.4204984965413021,-1.5492159262852532,1.8070036486931105,-1.0575282041957632,0.4470719103184405,-0.6688018917641948
-2.8766515974134643,-7.2329462910852,6.092254258852592,-6.962839517774618,1.7397734970705883,0.5394650608367556
-4.824183618798775,4.615835835699919,-3.1780421518148114,0.3300036900234157,1.0643599400254042,-0.2555598904978171
-4.044886320416358,2.42400976931337,-1.442380537412514,0.6400539514450989,1.7413911698752491,0.20457019674730537
-1.9686635542923236,1.322956239628101,-0.5617833212582641,2.193204473256939,0.6909781284633831,-0.20396723380351295
-0.57099521498155,-0.05300193417982646,2.0766525128705906,1.0049163258987805,-1.2614975023940875,0.48831838540806977
20.100546249484044,-8.92208952251138,-0.013392074926668052,2.5486398849094165,-4.782054710928461,3.643815253746032
-1.533738419691996,1.6654411953895698,1.4525282603378167,-0.35948654573555594,2.7721042819345,-1.379469211517415
2.117792896183345,0.5121706959078005,1.5737286263244492,1.4031105255719227,2.6755865213298984,0.25728920278710715
2.985712412608371,2.7034698223854017,1.0094065122847737,3.2802930985684475,0.3745190514141258,0.3301835061167034
1.1674274632368116,0.27948223354279955,1.428455888236133,1.3656858410098927,-0.6100192863715549,-0.4361316865754935
-1.3221466557348809,-5.436989892814917,-1.7886610552616966,-3.448807793527136,0.6862527071998855,0.043591505274623785
-0.39423744932726357,0.624483831422262,1.5281864976946826,-0.9376982944176736,2.2274535329392404,0.10786760497812627
-3.766028253450816,1.7058697700578254,-1.579289996005937,-0.9570581339612743,1.8924434765546518,0.46924983339533505
-2.7770943817149183,1.1307907103627644,-0.4233336389447159,-0.929292852813157,-0.893508380521878,-1.4585556020280566
-8.972440710942127,1.5508978649482534,0.9361731059314012,-1.4228353470384643,-0.010309336851631323,-0.8906692493836357
6.891408000058215,-2.089410429492503,-3.5656781144986986,1.5751723127162205,1.4181742281947294,2.8624712302318196
3.3474936237616566,-0.9524191124979277,-0.14339884787164603,-0.11138067626938525,-0.8314988666664855,0.9937571707949672
-0.09769925013510483,-0.5756854813214338,-0.7308266587958729,0.3058293862305976,-0.02925562493038804,-0.8759902946391431
-0.014144429929858204,1.2913406939439445,0.3705515381127036,2.1608811438950775,-0.657801958429804,-0.007411781147157792
4.399397722580718,-1.9054020197889643,1.5603201162092422,3.899037067345162,-2.498031587142224,-0.014593195878242149
0.37321638868658774,0.9434554302121896,-1.616007547684909,-1.1786406321444938,-2.150521887102008,-0.3171182020942828
1.9625969103222562,-0.37536843642403495,0.26432992237128206,-0.04836680030054308,-0.4079759978441546,-0.22398876347175137
-1.7094526055581727,0.8831846917567913,0.6287775021897103,0.702300791179168,3.3249110595393123,0.5224676694906126
1.7307001105354098,0.3076307010555973,-0.7446918943215929,0.19146901731399774,-1.7925552813455312,-0.8210957631140923
-0.6217425959884577,-0.4991326171330467,1.4283331251167062,-1.8324745074556992,6.05303935143546,-0.004986823309384242
-0.9046322309097441,-0.6580611018377588,0.5594197142532613,0.19302395276099615,0.38551089881811856,-0.30969391942340757
0.15265601219172248,-1.7146579354181921,0.14813160474728307,-0.18783336148222207,-0.14954578558293374,1.0947342392147137
1.333442177006941,0.7637318957710874,-0.7937186460793246,-0.195374024357545,0.7097255341497447,0.10103987070098445
-0.9640902753671966,-0.45998291386127116,0.4684619559040577,-0.8108623368051159,1.7379650059474456,-0.34930191546260203
3.5730655540588003,-0.9454400232592375,-1.4120242825793363,2.7542473030606907,-0.13589037496804246,-0.704174108089482
2.2865716918065626,-0.30564987605586186,-1.3237395353654602,0.16025774839342882,-0.4486966383233079,0.209633597975177
4.981801043026459,-0.4099653201287103,-1.1305903723939026,-0.8089319096349618,-2.494487636763676,0.38611399447865546
-0.7831563353288162,2.1084626104610336,0.020098184350257037,0.3358173139730771,0.22761950716121276,0.7595109305791982
3.854212998025538,0.9908209544227691,-1.1931350878622173,0.24902330349811627,-3.6647263965695487,1.0240123636626202
-1.647900070209232,-0.9447868262355956,-0.9688918351569994,0.28158046720091934,2.2353827062830955,-0.01753506395358155
-0.20646580358162026,0.5287503500154589,-0.502101129349094,0.1473236235829891,0.4891672178329497,-0.46281859312476636
0.5764489505900819,-1.2249392442069338,1.437243726019882,-0.7429228063277684,-0.5050278955004368,0.26041927746900884
-0.0817900762258529,0.7857176886863061,-0.1432194255263508,0.3676317484292474,0.6876035774208995,0.32797275088260963
-1.057868863319175,0.7358079243945199,3.065452536596788,-0.9352177280822906,2.1620365128577346,0.14028211954519898
-1.816887297498168,0.5606113404401871,-1.3335900904360434,1.1000624541777304,1.1495707415668452,-0.7182830625639756
-2.352802029581013,-1.0479793549837446,-0.6722482995624524,0.7615228407997986,2.51531717044678,-0.5582633853575385
2.1328901513431044,-0.3951646727698301,-0.2878901467599101,-0.5786069087926149,-0.7732307875936584,0.34176424669676125
-1.286591176366813,0.8327035541208485,0.13981030818177348,0.2389601214649327,0.8529348692720082,-0.08759824510008948
7.337139948951756,-1.5472949361010482,-1.1279858509613372,-0.6243048921638269,-4.688583360026523,0.49271554680692037
-0.6410405110146762,-0.01639370784426971,-0.10492260370063468,0.7559533256035316,1.1732351292607421,-0.17876848245007915
-0.5929970731020213,0.014758943048545064,-0.3655361160665267,1.486072930155787,1.0515642150556361,0.4443721772371897
0.5758281845996076,-0.647118676386747,0.17873908708265826,-0.4491177972430779,-0.8261155181360446,0.09523922377673699
0.4205683435249377,-0.5148801389431795,-0.5070290716957669,0.673129113447016,0.10484368689487866,0.4495889406813262
2.500754422166179,0.207186165011061,0.4147905945060705,-0.35429195682608866,-0.3777097483035014,0.3354105536333046
0.6328028718114992,0.5012923063488174,0.03581230999956969,0.20420211412830214,0.15315200965283632,-0.2705090780227213
-0.28856080927287175,0.3170631868425321,0.15027984090651209,0.5262146400991621,1.352684839250824,-1.242525566114969
-0.8186857447333074,-0.28489934262061617,0.16992023284575128,-0.2693773226386051,1.1224351695533594,-0.038941970093392786
-4.179310425588739,0.6784613528339059,0.3266761648962675,0.10493290416423062,2.094165391190698,-1.4541858513553045
4.72254048922058,-0.6857122654820329,-0.36740164354839133,-0.5828245700869548,-3.630749790957723,1.4562160749014266
3.3260790396507467,-0.713365998430721,-0.6128983613533301,-0.37852921200455714,-1.2682482781348867,-0.2571293236592753
-1.4853430817939404,-0.7017794564843141,-0.3190875859014818,0.9575960319915385,1.7174012792339381,0.3965574587661084
-0.47951204063488273,0.46342335322992545,0.5666564071293988,0.0031495884029681953,0.40378047751559853,0.04666951830776633
-1.1987747026991262,-0.33770146059182937,-0.15286725267718948,0.4360687845954243,0.2830014868786239,0.9100507427472538
2.4409679840355207,0.2879428917986566,-0.19258479947505094,0.2667386757898557,0.3255039956269942,-0.10134071654365237
0.568001996768901,-0.6886832125838644,-0.20835244085456037,0.17616391555346378,0.7215260720240511,-0.00308853735971084
1.4864945329246957,-0.41210937721470564,0.29796555840177164,0.12991915268486634,-0.9488159307242312,-0.22571572944067725
0.8909137766149496,0.1524448001155077,0.29811412663516723,0.32097982487076543,0.37226076165549715,0.3372891488752789
-3.2674300087513863,0.2606533326677824,0.06073092403255731,0.5141103494822336,0.546537685321926,-1.4621640737232515
0.8048298164465593,0.04426914792673492,-0.313828854688774,-0.39322170037366005,-0.43226898535580877,0.11602988261969245
3.2778839119323457,0.5704710862266597,-0.2990965271243468,-0.36463415051741244,-1.8667063132419983,0.4583533099086454
0.3055239268879614,0.26641177765842067,0.16531295001699578,0.21776274314873434,-0.018093411258596787,0.077391230614409
1.4310975142750058,1.206863114035204,0.7144988695341341,-0.22625445090130897,-0.7126511838314074,0.03340539761540936
-1.2828041068362233,-1.3438203737150585,-0.3331237849098093,0.8933322511119788,0.6389111819981788,0.11727628101674586
0.7249261407231683,0.6472861290962216,-0.25875568510177804,0.3655140524980014,-0.1401015540130108,-0.0027818963952062625
0.11359092716372698,-0.1874790610546635,0.03696874339712392,0.20828291803480467,1.3391065970436966,-0.00028503966175405515
1.1838640252113253,-1.3302347798752858,0.2326590125586795,0.25424648794687676,-0.3355126274886868,0.2650042427198752
1.0487629354676504,-0.09729908238287183,-0.3782161827137177,0.8953917291277392,1.8247238906270402,0.6139343699549686
-1.3204580200438614,0.8584286760482887,-0.13755101515507948,0.3380351451218966,-0.49418029641138944,-0.8898126208000859
0.021312724673312064,-0.3006337757328149,-0.1677202766287631,0.37848939467094384,0.4203445594339393,-0.22978615898814994
1.7455100048530365,0.7690625785440192,-0.27113057919842104,0.33530566137511963,-0.29660410158265366,0.5628965884588558
1.0247916507238517,-0.768506641388141,0.12884758626248458,-0.10664750929373852,-0.19360051075421242,-0.20863378309000327
2.311480257578177,1.3141609007842066,-0.2546486306216511,-0.16553862105723982,-0.8087596543436817,-0.03329872868483438
0.12180197318785918,-0.943781943256697,0.3705229717932193,0.22909587269434004,-0.2229468892973749,-0.23786540392782488
0.8563283768701201,0.04707313269504553,-0.6478186923845456,0.4038436842373737,-0.7108715003064084,0.29172809141078887
-0.35443043654800244,0.7198026348109287,0.16467631834022353,0.23728312675146163,0.39059334737831153,0.050352464884011336
1.122494914770207,-0.3074464088419141,0.3265162604438429,-0.2438738157929597,-0.8933699509994693,0.26863926162621904
0.8487638578546126,-0.15723274378564592,-0.46822703375612484,0.9288637066955222,1.9247050025032557,0.038557397174534935
-0.28895822425845435,-0.2538431391219437,0.17528354155914488,0.0746866644448837,-0.40928671312281956,-0.34569456724995645
-0.7025944127521393,0.043200731207877235,0.7729123080923493,-0.33504539906473474,-0.35119399346177826,-0.6527581708985626
0.4370813490642442,0.2228389406375405,-0.0886609767036094,0.43268829892293814,1.2188577438134252,0.35489457500067806
