Gx,Gy,Gz,Ax,Ay,Az
-14.881089,14.900931,-3.910833999999999,7.919999999999998,-504.316,18.796
-18.701191821119643,15.828344722453682,-8.899054216028599,2.9383974532952295,3.2318235709869474,2.759604844565308
-3.4039205241961095,35.88332164941768,-8.438841392784148,1.282405235126367,3.0871008151254506,6.0782418993864855
7.995297750569565,42.60814397430105,-13.433528199804162,4.019242650999253,4.2386502183423405,4.9756496320003984
-9.375753920200086,41.542225797527855,-20.522693668874364,1.9971329929690502,3.7031545482222525,2.9220673609108934
11.581315133006182,-86.57604586083738,45.39177836486055,-10.175009883853072,0.9207656018939326,-0.7725064136642976
12.952577376997706,-16.771057497750547,0.30705037915432376,-3.390752669533582,4.125965065939299,4.1353357739206285
6.885751920591657,-4.0576384823336795,7.237224665462791,-1.5457989608633806,5.396798249337558,6.199161123490159
10.102237099718685,-23.97247546393585,-5.371534328015276,-0.8718658985869929,6.337233528489251,9.300602428453898
17.819797963640234,-4.635881245595179,-8.876321574057659,-1.1377340729740921,-3.252639215890229,24.608754914923203
-15.054401597680101,9.888197190192113,-2.5986149980836712,-8.705176347239009,17.572794562710396,-37.850566042765664
-1.4914364309503734,-2.145576125412085,0.5547560725094565,-3.9457379324959363,-10.142025497807502,-1.1505795321915737
-3.974940890055182,-19.234943377648655,7.830376596718809,-2.176873981544168,-5.415674308590251,-3.490161002952606
-4.168961623659838,2.5383997649238124,16.77029224662121,-6.3231142237038,-0.21711339158228543,1.230424213637443
-0.40822286824382603,-7.53954969646428,47.05167578783976,-16.767947987156514,5.7824884327897035,1.9410234283311956
-1.8093941153405873,-21.131104904149204,-36.67421084066054,5.257885313085351,-0.8957774691752489,-5.199376789135502
5.460860718567959,8.181404453682092,-4.811081453059965,3.0960350904915446,-3.6081347839977624,-2.6025247224789334
-6.9259053957237775,-0.31920978680902934,0.9477876338127389,1.4211873500633891,-0.3997730851450517,0.1697665252334073
-8.228252348066581,-23.572575254340034,-7.077818395746706,-2.962574419991621,-2.341974925675684,7.514094863530477
3.5989560835490004,-28.920070683482464,-1.0452025175407684,-1.1723100362531151,3.1733742499528397,22.211238730217467
-12.251363683143765,-8.895461076026825,4.01935684165287,-1.5501328352692876,-3.8408760016590753,-4.512015639816202
-5.923379636122242,-8.506206793410389,-4.850972287286506,-4.513379711304066,-3.058360731736095,-4.138317534329509
-5.102381228931248,-8.774668135931535,-5.496123110869842,-8.009372427033382,2.6667901500917495,1.549071939679929
0.29889001692838024,3.2632794119189246,2.7067157243153743,2.761181416314984,-0.5765843901912191,-0.14575534521882094
8.877643432598065,22.71395221730576,0.63187844797715,35.870683792893814,0.8503115671708517,-4.7805203713822975
9.028696569866938,25.808093186894766,1.7482186879538566,-1.703319031278185,-6.71786438048038,1.1878362328333167
3.3452879209687785,0.16556348749962657,3.299999467123718,-0.18703779124990738,-3.662420948616898,0.3456718195923405
11.597326333997918,-0.9845681745088761,1.9753486068744897,4.0177944100349965,-0.02883577185300279,5.304426999997036
7.554402199916169,-0.13368387014505423,2.729079754549531,10.717990823280692,-0.6457926637514897,6.725061989419857
1.7679709789638933,14.17019224758221,-1.3189050217990812,-0.43692626531932355,-13.801150893579976,-19.371353844351084
-1.124165246039675,11.18697966337005,-4.20587300190156,1.3452793646569883,0.4767323137827022,3.6383198145793587
-1.7189645384588728,14.083403149937896,-2.628274499000419,2.8195093699555533,-4.051364912654225,-0.35416805840097143
1.5039169018741019,14.776782024087401,4.309171938691579,5.09219735636391,-5.01565539065624,0.15727867795668127
-1.3249414674512634,14.012438313921422,3.6110536691743773,2.4746500817513137,0.4439177102567502,-6.604248423196518
2.2306724199643986,2.1683502431949577,-16.005055550333307,-18.21312026628106,1.9051034024962359,-2.0280390558801185
3.387248066603564,4.862637655656917,1.5751614986053428,9.382532160365017,-0.3497503260499822,-0.47164604256811177
-3.0978158377962286,-0.9844141804044666,0.29672722901251536,-0.8253359577938364,2.5062593776371687,1.0924441425706963
0.3793415961695519,-4.591628830639886,1.6861757635529777,-5.530235350002499,-0.13831259858697859,10.722712542671884
8.272551883703049,-7.398149438226635,-4.934156326154788,-11.864854918283568,-9.650696404426233,12.185877804354469
-15.92287226372904,9.73723513460661,-8.773475945978692,-3.7151073155872814,21.513256228510066,-10.175719233116633
4.164826444055036,6.253630673413602,-5.041401252372331,0.060686446523060766,-6.2377370595554185,-0.09247941338075716
-1.1844196833838365,4.161800067179451,-1.3328166794334588,3.776965336023367,0.10245673978424552,4.73006181682946
8.474364440780967,-12.035074197978131,1.154406917437572,4.283050040910972,-4.720059582049817,-1.6096112625946226
6.694861693439794,-13.58821162871186,3.6629701531110017,-1.7306814952544531,2.437887841850719,-4.214861278253974
-19.58948068143068,7.4258218493634995,10.904922505442807,11.547833523388203,6.530043209872432,-3.212511404695985
-0.2779781846691134,1.781827344491066,-1.2075462419989647,-3.844109841954523,4.703892981938277,-4.058399650719307
4.224101438290247,1.7490510621481299,1.2948133079911885,0.01476259372164046,-0.5193589537862999,-4.22712542396049
3.7789259622683766,-3.3264635573179646,-2.441399642874753,-6.027944071691238,-6.284200763060478,4.210100928788905
20.8241064536807,9.497935852596793,-2.1484162739114545,-1.3556018242369043,-6.187947883945047,-4.734393293123237
-11.611662491441598,-2.990619639586164,4.422596082626201,4.0346559775616155,-9.65060932370086,11.990075284530697
-4.6260901154488225,-0.9744249229235287,5.573633452567858,3.369849400767862,5.485962330440232,-0.5972043981564594
-1.2271328603046125,-5.958641915117306,9.406370224662984,8.001442858854798,-0.781215563423729,0.7593877716908515
4.066575518010386,1.1052127846397002,3.730602282893158,-2.336711177370781,4.204333429941762,-4.753129142585348
5.39184460982027,10.828721882022073,-16.29204215246096,-12.136408948639577,-0.030774866743629004,-0.16745611294889517
-5.387707358405703,-4.541025628621207,5.14472509165933,2.6309790809397944,1.6724802915826542,1.352727216273343
-8.94573844796469,1.2233678379919493,3.187878939472155,2.7443615003399136,-0.9762881969366735,1.19097548084898
-1.1608779415288595,1.0120368238915276,-4.431725038689688,-3.689512980421882,-12.75781346444062,5.368933001980816
1.7591300974047979,5.167579105038043,-6.085541347701944,-4.275085975962773,1.11590770313627,-3.124111289304894
-14.689352740335558,5.512943383522511,-6.5254209664635,1.71796423154824,13.736010072192563,-6.390763621043433
15.669136428213882,0.6322258933417936,-3.5966601314204394,-3.6814823270914823,-8.215495209018384,0.8996445728737612
2.4022735480359962,-2.230308137886948,0.9852320636609173,6.024010744231098,-4.816453996433662,3.4896209918481222
8.217732260238181,0.6083760903065984,0.9013264863632116,1.6494434984574433,4.546604178346701,-2.7932695527745683
1.798035003866476,5.286395908989561,-4.977470329858397,1.3995630672164614,5.564728920110932,-1.3946398093038366
-13.290376968118274,-0.8640402457837788,12.619864821833936,12.967560429385337,5.337858586972747,-1.833362600656879
3.364064483968935,2.3020976184375357,-0.9968883203677033,-7.347969965539869,4.849643213807167,-2.1294966665679107
4.489135058565872,3.0796725758981536,-2.1266508494778464,-0.4291165552600238,-5.214560092974978,1.4368973251010733
12.851009055760336,2.1403536911927894,-1.0018539566091316,-3.393272412837333,-1.7453561015373165,2.857083732230608
8.181523669274,2.747699284849492,1.409865863159222,0.7988253095088962,0.8965973490229928,-1.9341435102248612
-15.938710939144986,-7.203759537037028,2.135488601456351,0.4431372531214961,-15.267225137752199,7.64632388488579
-11.39814657540939,-1.3919967446165291,3.1677455185318113,3.1595661960032655,11.385903140759062,-0.5274868330138478
5.500517948309422,-2.2743722952848366,5.93445369332878,1.1272723685808828,-1.1703675050108928,1.2296045229764432
2.328729238209295,5.043099341315468,-3.41494516954565,-3.807508675637519,2.573355569070176,-3.0178697949440263
2.4420146782749796,-0.6182852086043473,-2.431009641041326,-1.7727190645591453,-0.599313262702021,-0.4292453343048364
5.570616031948818,-2.508552187373679,1.5282300431613565,-1.3269555124380048,-4.244175663318967,0.7532982830360063
-10.317979122656075,3.791705080439336,-3.4014330160586765,2.3629838536987284,-1.4885693689547166,-0.7399903050476802
-3.6581275802223514,0.3928030911717624,-2.543261182238739,-4.971184836615226,0.5147438297251856,2.937824892575838
0.6563228160132919,2.3440142236018624,-3.76179264238323,0.8388028106071586,3.5904967924787083,-5.565138005105274
-3.546076977438177,2.638600418908982,-3.346821856382557,-1.5737890501129508,1.3059892789710508,-4.584128263438102
24.553364224932206,0.5297877289806898,0.056846691730779664,0.15961460327815868,-4.255441809982706,1.2170551132276481
-5.076591291086918,-4.646420859609636,3.571765150869093,2.796396143028363,-3.4048221742996363,3.976987430229157
2.868891351920361,3.2401415644452345,0.08016126267541024,0.43079250868968305,5.616128853037213,-1.872857224574366
-3.9594398703786187,3.205250475685004,-0.3545657637153252,3.8142104305669413,1.7859551190053726,0.16821422132355046
-9.654456958097498,-1.2465252375526616,3.0205059926201168,5.752843511873952,6.031804110922341,0.04134873235626835
11.324035398434127,6.185488614751924,-2.2958649926532106,-3.697834294807878,-2.8971754203850058,-1.5914446520433088
7.8166955897556765,1.0051942761012183,0.8171415631502117,-1.7700991343902432,-6.525105141491985,1.3885096348444717
0.6732948122621145,3.6452712799402676,0.12747657707000948,1.2130238106853408,1.5001273316629216,0.6076472064043443
-7.566691057351549,0.5189876457429575,1.4416458416226998,0.6538013430051337,-2.115322232989296,1.5747833199071444
-13.54768665028549,-6.083986957244462,1.5869510186639761,-1.6608056063684193,-0.5667937720869078,3.0809807896921235
3.7941226219369506,3.9358657783756605,-1.0592909141365476,2.0259073702060553,6.237074667524206,-1.6736709556470108
4.555332449809758,0.9825690792157364,-0.3582586071065248,-0.6480386484726948,-1.982505737483876,1.1302133523950317
0.0960027220313675,3.7957251324309906,-2.935366198815836,-1.6269291018694156,-0.027328018073297877,-1.3751941587793597
0.7621919295967154,-3.652104929133289,0.3645495003051348,-0.14755857602159467,-0.9360130750037339,1.5856925031457398
0.7397982254670896,-4.698715538110433,2.344158729140899,-1.019474369982583,-1.3167634926830867,-0.2598956292794472
-2.2196154991398034,4.297423425890782,-1.2464856857929023,1.8714753706964977,1.5584991044094967,-1.097917775590303
5.885420510101227,0.36093013544507135,-1.6219954452295033,-3.7766818251976497,-0.4516743744375309,-1.9438878473212395
4.936046917898284,2.053380637687235,-0.5862182196521513,1.5029676765915,0.4997323998908181,-4.4774266777735265
-0.6109716407520944,-0.9802916472476877,0.6398183805579235,-0.9574645477154209,0.030895238142514714,-0.5956301622333497
4.468141212194701,-0.5782638641981499,0.8214301774108606,1.2112979447609558,-2.927424246862361,3.0678534329533975
-4.487329313460448,-3.33532423214268,1.6531669636899164,0.32463729858438606,-1.1451663475573586,0.9021306592700542
2.5617831331712178,3.5748494392520827,-1.1960457072384103,1.3514596365675864,3.531412983417415,-2.5858156619426786
-4.51373063321938,-0.48687855287851023,1.8404082986594634,2.1155129359645857,2.309674764126046,1.2555440465544696
-1.574033379022442,0.7627726656303315,0.37411589761658814,1.5238181759545386,0.7520773230816296,0.8328019519502392
6.870482528740451,6.801639172072281,-3.192806826899652,-3.574234242949478,-0.7166865818711643,-0.6819412787489187
1.0910413286927532,-3.396424430791187,1.1217077948991951,-1.4983440692241388,-5.0195209568422,0.8645453447101746
-0.8441729956518405,5.1251218102124465,-0.5262820309094087,3.0994123833972873,0.5815713634751418,-1.8098216544568984
-7.776649740250754,-1.0069101157728584,0.9669698684790227,-1.6341531069261197,1.343880341554138,0.41485622358093394
-5.2604333741115425,-0.5229763693195948,0.7205132011671684,-0.6104921258848104,1.226531709158284,0.41656601955541384
6.037975719621068,3.8948077694125622,0.10901358064988759,0.7081305395654586,4.272449047648365,0.42266492691693414
3.635853201747241,1.97759175542851,-1.5533185271972825,0.8977737048487409,-3.752140213342013,0.7888010366587993
-0.01671070508465422,0.6503135489644749,0.26029535353261746,-0.08836992957425394,1.0877437995265322,-1.5685321638002225
-2.1141422838614776,-4.834979404068873,0.25275141554778313,0.2631813049102692,-0.1807065905781704,1.8156622698424174
0.3238843378019234,-1.1570515860347803,0.15090880481930458,-0.3883027875187005,-1.7516343186175019,-0.5375135423019661
-0.8640883527842949,3.967376223202613,0.0724003947274734,1.4464552694192474,-0.09230000851152231,-0.18666841155238603
9.055032141683334,3.4093793824314105,-2.296154237136487,-0.6404123218686775,0.19837799906752168,-1.4927620633844014
3.1186527929793675,0.4444192186773054,-1.1102472433029562,-0.3745129141322088,-1.6484671797056456,-1.7569378361720052
-0.6673741966718775,-0.4545820313966775,-0.022787919765302034,-0.32367112315011537,-1.4240552869349017,0.32386267747484987
-0.7355853320869583,-1.0738564675860176,0.49245415862450437,1.5229331535455242,-0.8626390392127907,1.9330600073212216
-6.094646093138591,-1.302853353420695,0.6418787999468418,-0.1693859656250562,0.05536777017321426,0.27378085558703125
2.708185093953081,2.6005294263344,0.31549235397531783,0.6349338475150299,3.600026846217494,-1.0580708878511944
-6.098436325433185,-2.6064745265930416,0.8192852028508462,0.7434571165238489,1.610852036759637,1.828587396346917
1.2312472894051048,1.3735836795035015,-0.5951492126818648,-0.27404542847956725,-0.35876763395904243,0.6752669910882336
4.450087070448309,4.928163627896173,-1.2178983499632987,-0.46382901058076365,-1.5602153699748547,-1.204265800385429
-2.0595018061123564,-4.223700597130906,0.5975022658463446,-0.44141651952652117,-1.4652957757808593,-0.3178411177189686
-0.8077307771636737,3.7088884520512493,0.9112947914297405,0.7917506181626529,2.1785778096371695,-1.1027703912619482
