Gx,Gy,Gz,Ax,Ay,Az
-9.328393000000002,5.731076,6.012420999999999,26.274,-541.8879999999999,-78.63999999999997
2.455520122941024,11.814839268624333,3.497346936480114,-0.8394393627983798,0.30679964450836006,4.658719399626677
-4.784858670593491,12.748315146143218,3.891447530946128,-0.8172215473466383,-1.0386846799645955,7.588597279038823
15.181722699857271,15.950624990628414,8.822913462340427,-0.7231575386619651,1.479368082752319,6.0335429436275
6.219191160529009,1.39157290638072,6.371113000484122,-1.3175134771901227,1.1320473299338902,4.407813023116468
-1.857194556240635,72.99587863441667,7.903997678157137,2.3113548979121443,-1.1478105330165658,0.3671713723419301
5.358495157044844,11.365189531442368,-8.634250504110382,1.5616889710426531,-0.07193014969601108,5.4593972442020045
6.71469098159214,9.739636682259226,10.13847947959547,1.014504481209141,2.0525687903713794,6.226205999988505
3.14521388943993,-0.7392895040979282,-13.090343745855606,-0.0951387175046608,6.1746040592536815,11.443124790722928
26.491785180041447,10.221898505211673,-3.5787168095734203,-0.7104789262296635,12.931950308586906,29.09314671920874
-26.218684802835835,12.879689670335898,4.461127847375022,0.14518716225874506,-18.11012105332071,-34.677358432838716
-2.5544032990654326,3.803645346297917,2.2723899788251356,0.8400499329237979,-4.599258767476332,-2.9404650063417073
-7.10118187275821,25.241898560711874,4.532025321696878,1.0817976541370915,-6.779617429380505,-5.182411383017639
2.955742128565369,6.481725484002997,-5.061654906541721,3.2556569024653994,0.06231727655387931,-1.0543837173778683
-0.9159739807532721,13.423966718171432,-15.408859812194553,8.309230802191635,-11.774848700114736,-6.312143571227016
1.927824847882806,-19.53313604303841,9.599091821041661,-7.207342090273448,5.69251662967844,-2.714105388948897
2.98897199946271,-0.8483091048603253,0.3898021218405052,-2.386014115023918,0.054787602932060864,-1.7795783692068037
-1.9870865333288361,0.42190192350503253,3.237439476408388,0.39407498506479177,-4.673283927908555,-1.3197503794191885
0.19208842877823873,4.513560899472555,-2.0519312026570837,2.9333685353812227,-2.490808216944454,3.066596292728791
7.424114294107348,0.6561263096195118,0.2804773764821913,7.130715474443577,-5.692936518037703,32.950576534110425
-1.5381863417223174,7.917964312302318,2.7555338368651854,-0.6750200981486942,0.22902906501609088,-11.093481027139635
1.287159677096871,3.7785746814876697,0.6794791201846895,1.111576222458893,1.3390884497080329,0.6631948061021937
-0.9410864882512027,10.358834998901079,2.9400333834974903,0.2408815967897835,-2.9151107983611757,-3.2319128019049734
-10.12826533955801,0.18691382105436755,-0.5731826059053875,-1.0936548199267557,0.4566353034250259,-1.5757699582842333
5.230271829182232,-9.435023070366242,-4.907004113081866,-8.109676594156596,1.839323797324444,-2.164903989724525
-8.404620268573805,-2.2457873974675135,-0.39891882117410493,-1.4822244248781573,0.27049250174608197,-4.455921374474619
1.8561344701702136,-2.359558352163501,-0.16886574124908238,-3.242451521471508,2.1273113653532554,-7.294013778053882
-4.001750986483506,-3.795292795889048,0.8142531249334448,-4.707519413528152,-0.05942886904266653,-2.0874000575953215
-12.139252599902495,0.18300049526226303,1.5147982088117604,0.4325931723934306,4.131021329568126,-6.982541733090667
14.02937870587407,-2.569704285273468,-3.246658930745103,9.037983922255016,-1.3262828263428599,13.57722502188318
-1.807536849651331,0.8287343427326835,0.627515645949089,0.12397907861327173,0.48919495734481266,-1.5065724252290056
-0.6570275462366322,0.8446198712171274,-1.5395245755900993,4.315481134448937,-0.2645290479560737,1.1938912802884243
0.6265730241837417,-9.765230571880844,-0.7258304653103336,-1.7552046295073052,-1.4836628164970234,-3.2601350413903543
-8.052152164181683,-13.708672519477656,-0.9711315533725781,0.17355102685824386,-2.506395304111487,-4.813710952285332
8.352782429327013,4.21004943057498,2.928010911971775,0.4335213714142745,-5.0355171774093455,4.004831640443504
0.46516344891183137,0.6290201734563954,-1.3770193206925783,1.0753534083960448,-5.906296809682045,0.7433550918989291
-4.785796105753635,1.9670275444809955,0.04505555023770724,1.7484049582019,1.2667458563432688,-2.0941183884241834
1.1469254973941156,6.160660301825702,1.7191275737538352,4.390839292866547,0.5870388082840952,4.187473929281536
-3.920881916497853,12.488915697765043,3.4329787931006353,10.572495360927537,9.232901095310853,15.229559686533705
4.2147139524834945,2.0363160433456837,3.565232047209057,1.2282936412830143,-4.802443546007126,-1.4147374466969258
3.9914092873246125,17.74410911976423,2.412014969561181,6.12512703272293,-1.471440875897482,5.191017070307332
-1.4052576873872302,1.1532877157794172,3.8454328223416017,3.8372402927060785,-2.094055777742051,1.3776896436307147
-2.3277912416170183,4.621906562754274,-1.2696167054321692,3.1783597742967538,5.878491578088297,0.3559483815951099
-6.77185420287744,-5.850301845889686,-9.416096330298931,-12.376780700395393,5.991563109005915,-7.042719355870848
3.6086310049917723,-6.870467849881998,2.950753248456,-1.2908176588000209,-0.9753886765426795,-0.9361138964973654
0.938646377489224,-3.86755267306499,-1.2690738151132273,-3.8158175296148182,0.8348832504250421,-5.063741552517152
-5.2013573029311715,0.1971667595527169,1.0663922016594756,-2.486711002443074,2.7840031861674026,-4.717119525671694
-6.9932911911253095,-0.6296608876578396,-1.0203934344401144,-3.936179876022372,7.32523226571247,-7.071274617175702
5.665913774162858,-9.847528234781018,-5.12821421131396,-0.21635499353777932,-13.037275032117645,10.237045511162382
-1.9048056593611702,-0.8838386719457445,1.5189247885429955,-0.4758181880604797,6.394858399661208,-4.013283624183751
8.520457881369925,-3.139895697624112,1.7834373683721474,2.092133628672146,-5.879346364641096,4.114005926516216
-1.8490705163663803,-8.803400436202061,3.812824483663534,6.843185117244602,-5.653605286143847,-0.9599630799476477
-0.22115719118235688,-14.297235058359288,6.25337272392944,5.777120198709777,-1.6871377544020607,1.4773160228409603
-2.2392320090020448,13.258240175570297,-4.9281769187254305,0.21095589801955184,-4.240023309592561,3.2490984667277427
-0.6067494999885317,-5.155312393662658,-0.6167206784129122,2.344993532387731,-5.1110565753753505,0.9781373493652317
1.2666134673018827,-1.2711257594692653,0.8933552617119519,-1.318260544388449,1.385677750024076,-0.6573227544142672
-1.4595044422237653,0.5709823988817004,2.6818568193495396,5.646888984213783,4.250301087572952,0.6655906490711708
-7.484393335944244,1.9334685551608555,4.209185244205701,-0.5638690550878643,16.50301373086301,-1.14625785115053
5.999135771578185,0.6147657032548661,-3.24151565219681,-2.661997961640682,-10.717506472843034,1.3079933752566628
-0.982370127210787,4.58294934611196,-0.9907369182403598,-1.2388373824409178,1.808330435531615,0.09299223409803503
5.295444017496725,1.6614761621434957,-0.999349907138379,-0.18736430763234257,-2.072180236922497,3.6346922602267306
-1.6632739181087408,0.7526980486613404,-0.5296899052380497,-0.4949320990492486,5.43464891431919,-2.1794210393187132
-2.5515250253244712,-4.306002447937647,-1.1267951873323516,-0.6821003145287182,4.024316550074048,-1.1668633357021556
0.45978347187938784,2.2130618781636042,0.25819550644233025,0.03442100395838904,-1.9574840983664874,1.0359594670387353
-1.8446055314777117,-2.6690380026422282,-2.1568893996196237,0.29152045227877066,-1.796519064488011,-1.3809374915904065
-0.44803542833186316,-2.0356350183194825,-3.7349698816823134,-4.11085052896346,-2.366753789172037,-3.7310534675003577
-3.851396995322339,2.1448450741882032,-2.705269681887457,0.7087951560388839,1.2437073336404587,-0.9296406921521427
0.07286536978904368,-3.0750433697484016,-0.37324836329885014,1.188260030544946,-1.7905922035871842,3.7303061816130105
-0.07512076732228734,0.8349876652785864,1.8076333538642875,0.20838776338460158,3.435862409758876,-2.5661649210802215
0.2768437014668277,-2.214811584395931,-0.667596871195737,-0.5714510208959449,-2.506999201493845,0.3291726764185212
4.349625163911422,-1.2847544440288237,1.9552769692571161,1.212409930472311,-4.293068337228911,2.109926338111176
1.0202472193473202,0.6946376520134958,3.3113496033093823,0.41416291260005084,-0.8277202862583217,-0.6784881871486678
-2.400255735284442,-0.6213601261501145,-5.7942932718941424,-0.06245885533666323,-2.308562835314806,2.9947001577512267
0.6224797281252594,0.4301268304353618,3.7600429450545594,2.097155614699497,-0.014497519090510225,0.37093155788045995
-1.5319636291371725,-2.5499509899672868,-0.14857368652539282,-0.07370711761474591,0.9599800263188174,1.3362554047923048
-0.5035626647153576,0.21212987665611893,3.51372540623989,1.2771795012764209,2.3204997252225485,-0.965444828117769
-4.281481422396689,2.8544086655553826,1.1472068921893988,1.412825742884435,7.059032457404001,-0.7985931621309645
1.820527969701502,-4.036178981847808,-3.0024603044163305,-2.908094415270087,-7.48959414168881,0.25465980947974143
-1.827931814486389,1.8851187905149969,-0.925311521430213,1.4443214984726285,6.061705912726154,-1.5155928721356595
-1.5660936236459388,-1.7287360843961497,0.7771127287131046,-0.6756338660009753,1.3140399744622946,0.10509303148665222
1.6134510721464934,1.6954341889550029,1.7175283345430183,0.019575051651496755,2.8774922920234776,1.0904085937734598
0.2974757586161808,-2.680840244497922,1.8755323718141974,-0.8244609608294018,2.9552643483826717,-2.275623229851676
-1.0377311567598833,-1.7432932569527382,-1.4336598426586744,-1.2202637296745213,-2.4190882950789065,0.013147577441311675
0.8538990541110034,0.8367699983064498,-2.169628116716419,0.32870399003654516,-1.8870643000326113,0.9439193796757329
-1.8465324896298023,-0.5664370064178295,-1.5001644881170786,-1.3288591250006432,-0.06876627387015954,-0.6569385280073692
1.5154454208309986,0.49457709979607767,-0.396543634398567,-0.11843979122356219,-0.19812345803758902,1.468390940638246
-1.514460240001029,-1.8531129519395915,0.5714664674706122,2.2059223678395363,-0.9202839569137078,2.1871485425716046
-0.13206984944308048,-2.6648446862528217,1.5840127238684802,-1.301309869082576,-1.4270154721850268,-0.23351285424877566
-0.7074730103275011,0.3202594098782304,-0.5395204841202464,0.4450662045290894,-2.0580291879272146,-0.3506154286476909
-0.24332568057056853,-3.1449342666953903,1.0416261399370328,-0.515789682708552,-0.4076751330547741,0.3700618225244452
0.9255444382909314,0.3456152555799873,0.4688494031273037,0.11565285142195725,-0.2763100736232218,0.5602828827147075
-0.6141801448438842,1.502123410115733,-0.6941266031096096,0.9733698426681494,-0.5520426937046331,0.7238594769462672
-0.08908918939046617,-2.760598259258658,0.9472531922280321,-0.18260336095293506,2.19547057709403,-0.9670626012613843
-1.3300240434150585,0.13277303634723125,-1.272026714036147,0.09145491236375491,1.8131256078074305,0.1723866946042731
-2.880296964726905,-2.4209077249834787,1.032331667327379,-0.9899254002599165,-0.3593458620937243,0.6539876365578791
-0.1875798173281243,2.138723824151417,-0.3948509782867574,0.539725794867215,1.1846992595536108,0.047637151943331624
0.3984052739988402,2.1708557571139036,-2.1922130507460196,0.5465409806757918,-0.8475857939366336,-0.742044389058362
-0.13533622722455318,0.07300699771923627,1.1349266062575354,0.11150309465273567,0.6691234134948165,0.8783540104425716
-0.8847175145959344,-0.5351648548144279,1.8324891442266535,0.19257891474748462,-0.3503664546475116,0.21798413456894894
0.474702869284081,-1.8672962085375304,-0.029299318439809152,-1.4533843401174709,1.3842778315123228,0.045663911907136145
1.6360127066914594,0.40214336914835047,0.4000942503796555,-0.2755459980001027,1.3644708264302725,-2.6836735571034156
-0.37117639315904805,-0.31454213194331637,-0.36979777358348986,0.10304544943117577,-1.771233704221312,2.2650058458164954
0.3164058351173396,-0.5133183597711882,-0.9890901466642213,-1.3696557761526706,2.0977866062307196,-1.779231254072327
0.5216602391063592,0.5837810132290477,-0.21884999595786192,-0.7378120705238643,-0.40656557758847534,-0.8104314685082633
0.5135520209773526,-3.4095643097887276,1.73855997888145,-0.2414719747025722,-2.108008979777198,1.8653074187003447
-0.43524744134786086,-2.3586315735391796,0.6439408682231504,0.505193958485606,-1.567341891170214,2.2821457414071826
0.09490672834044361,-0.8370817023542338,-0.7765931479993518,-1.0891604312895637,0.04894763098135213,-1.0490003104695065
-2.0768193466226688,-0.41575895331101353,0.4556877072380139,1.4550696168449333,0.7783482572949383,0.38641832724372366
-0.24655001609064908,0.3042432766125882,0.8845505667867924,0.7547599604352067,-1.5346941437744848,0.7338242908890747
-1.227949415813245,0.41377370722561646,-0.5706652954045585,1.0626315939714126,0.23233655013723464,1.5062919792452019
-1.5737911210868445,-1.6163556776643182,0.023560306304334658,-0.5520554581191912,2.199223844973165,-0.8592908180349788
0.8433023004352423,-2.1207459706977265,-0.17238612224145144,-0.8522456702407402,0.47734807863460926,-0.37897039031098556
-1.296723197798308,-0.32797481936564143,-0.6708861684253229,-0.7411449178783646,2.650137605485174,-0.366261604984364
-2.499375050769811,1.3534050323430082,0.20133311154171227,0.3272201130099438,0.1590268253415823,-0.9319364853618822
1.1582187001579118,1.290615288370397,-0.020315051764333847,0.25444922294922157,0.11215780589652226,0.866499290838223
1.0210450813052627,-0.8662618301642558,-1.1648357064667139,-0.8915492457627145,-0.06096228942560877,0.36756519897083817
1.1744545874247159,0.6404517163321071,1.8237730716303946,0.4469418677627752,-1.128228131340597,2.5337634708099044
-1.6142868795890666,-1.4588968855900777,0.27482152101608925,-0.1287933703694196,0.4154215220535318,-0.41279791939503524
0.12030903259163594,-1.4910991869724555,0.09591687422387007,-0.7232294075658475,0.9387765782240809,-0.35025990280665936
1.4898726531826099,0.22981751424283026,-0.2757722555957812,-0.030396477470540195,-1.4810375985775597,-0.32283282171640953
-1.2124070608024964,1.9058174823868592,0.06839143217754307,1.5362840871872052,0.005021140630525167,1.1400553491722367
2.6754556011088377,-3.0535393348334168,-1.6870186571955141,-1.4572941422754226,2.32968588110392,-2.712298795494421
-0.27503527123463173,-1.136946094441578,-0.30020144138906657,-0.5962939502662157,-0.021224188555568457,0.9538749041800345
-1.8331965527363234,-2.4295501164319493,1.0144538880229934,0.4218787991773079,-0.16244191616631587,0.14109087046535734
-0.45206116863441814,-0.005283600705270675,0.8706410183667452,0.4525064332973384,-0.4961001702810791,0.6286323166479196
-0.4387985073736311,-0.6500210367771898,-1.6656587198181534,-0.871109073525777,2.014097740567001,-2.3462088989186354
0.7522640736184593,0.5337009410804748,0.6564077603612813,1.2649036044806055,-2.3375364874702553,3.0478203020328394
0.587592147453332,-0.2990837748896862,-0.03903431715881989,-0.28584894552147133,-1.3715781203744393,0.24475038449924846
-0.8617871358914808,-1.4781409174400035,1.078193629083764,-0.8876303122859486,-1.303111243095895,2.516841251502619
-0.40749298223568475,-0.380173508898773,0.20660869370934776,-0.23902051367784327,1.2768472248037426,-0.14475078167101563
0.5896487268374205,-1.0182852637636977,-0.27845322719703336,0.027440717989589136,-1.2636473151917595,1.5456506269999946
-0.07091254662246771,-0.19504223140748897,-1.6350391493887138,-0.4630584792317366,2.9424968277754746,-1.8462080660351625
-0.16038866885218572,1.1201415580998517,-0.32568956202940913,-0.06724454684679076,0.7914024551831489,0.24325578174058937
