Gx,Gy,Gz,Ax,Ay,Az
-1.8251449999999982,2.9171710000000015,1.704260999999998,10.069999999999999,-489.15599999999995,51.239999999999995
2.476721603773357,-1.0599433429314256,0.5599545944130324,-0.0540970165112737,-2.253036065620246,-0.27707547460487825
-3.6174813972107565,9.158044750682713,-2.3465993091811916,-0.5766073765534967,0.0648078444471265,2.2658181829173003
2.088212074324086,-4.286776732531417,-7.222539230161197,-0.127730178601293,-1.3976053822944672,-0.33083106163686615
5.7113629978077,-17.207066574797707,-4.2411060418385835,-1.5021483813051366,-1.3877265972086419,-0.9045603769693024
-10.939461605029825,-12.195429646115238,25.573109074349908,3.441188263909046,-0.1805389151870862,0.46023785486725993
-3.6622303366454587,7.74551453156028,6.9980408769343025,3.05386499099943,-3.4877073221900723,1.1274127533349405
7.673872803352234,18.46292416551585,3.342659860648342,1.6923691914956702,-0.5890149666282324,-1.9157707199331158
4.774352382638142,-0.4917294896908816,10.293691910352464,4.4779199412184365,-2.5592333946042096,-3.928722505305661
15.903786249464504,-3.1653746155527003,11.99557273914558,-1.7254918057542512,71.75196938292972,-27.04187168506947
-17.237511440769783,0.05701560875608114,5.984080338282074,-0.9995814318594837,-2.4056086629394136,0.08722181071818408
-14.45034420171744,-18.178531008206598,19.99156197373772,1.953267677133286,0.056361864707703546,0.1057514279410392
-1.0219440708734044,-11.412171863072857,21.16607582726534,1.2910849424039432,0.27901112025079633,1.7801158906289263
0.022855750198806035,-46.35906226468835,63.711327649183275,-4.137276790900723,2.9391932414975486,-2.1572252076485636
8.201489774187642,15.941807119318792,-67.47084482623112,1.8481261676160483,-4.42977228292581,-1.076844551093269
4.966521884960809,18.654078347795576,-15.981730107529284,2.541418475698161,1.0373868456894486,-3.782062801275392
8.4156249453648,0.6380278052708932,-13.19230464952608,-4.630375778630725,3.927522358243661,2.137720416411277
7.979783846722661,6.6764694976281795,3.3459809466860193,-0.9694599508448394,-0.6507715715497044,4.313363633433655
-4.203557160689259,26.34628814013785,-6.307626434810911,-2.790683604906893,12.198904996352999,16.25608771122191
4.616415831912829,-3.004893166586365,1.8703493995410354,2.1075309154471453,-2.417216538149931,2.677132135775458
-0.8355861490223728,4.841569049339965,-7.191128560935207,2.875043918726025,-0.2510942753118114,0.3443755989906119
3.7298276864051942,12.924146330121847,-3.8727114745174225,4.425870864196865,-2.437299461868079,0.007255850637922473
3.742134663113574,-2.23644479815933,-2.8608898763489954,-4.988447368604669,-2.867191821847335,-0.3127814402085485
-5.395041016092736,8.545432039696781,-7.419638241329555,2.2473384671404313,4.13043131244433,3.48743553263614
-3.551226371041971,-12.626472982001257,2.0610564234638065,-4.119363248719131,1.0595601179119654,1.6633377515533074
-3.034831201046989,-3.4339916147427743,3.0165058313404893,3.163017044295457,0.9719723872020198,0.9276808829921196
-1.5924654243585523,3.6358133871956166,-5.678730349051767,-3.7911851836871273,-4.899241991142899,-3.8965696968224712
2.570881511150813,4.124603613397878,-7.846714756856361,3.3121961795726205,-20.664991909880342,-14.882714681266304
-1.0909632553187567,-4.139085687881447,1.666697527518413,-3.2982021700921087,2.6562230536494997,-1.4394059556584407
-5.470732273196106,0.7417475379742182,0.9240763904325515,4.811050515064759,6.414071438736654,1.9748974004383406
-2.0204543885580564,-0.47244591903677247,-3.423769460655116,-5.976299607826309,1.463733895970418,-1.0601448921772694
-2.5926760193614404,5.542427755983169,-6.556201536926089,6.819567604768897,-0.19398825542446074,-0.4931523704193871
7.70899506019239,7.1545818352011095,8.139423230142539,10.305784603625384,-3.212776835301094,2.5724479771823225
7.89822122600813,6.231827646191066,-3.237321066896916,-0.7299196720890344,-1.0334588145371413,-0.3431677940951894
8.489665592155005,-2.897250322632938,0.9258288569368571,-4.221103636754666,-4.764266129864665,-0.5903069331902375
-3.775437847700385,1.8528085601453326,-4.912854512394437,0.042684292821309366,-0.11333747944492384,-2.2466849740623394
-8.941702425411702,-7.097138533892993,9.32799546317976,-3.1645706669287765,14.73251674852354,6.772807489815655
0.4541741672865256,1.3053733081965018,-3.7291278746727707,0.2802196759457103,-5.47413459417197,-5.252668481679378
2.359102494118569,-0.4719438046297779,-4.77345020645382,-4.692422298155053,-3.72327595003322,-1.1374422797256412
-3.922090470942842,-5.350446457597011,1.453610061680962,-3.2148724457403266,-1.9900354998647387,-1.0717679155006579
1.5814796852274,3.1747990709952743,-5.169217004220881,-1.011436812103873,-0.39179901543953743,-1.0710057632118426
-2.736033222029783,-3.3787302530904233,5.012899550710649,-9.41937817307775,-2.9263391318918854,-3.651111730389188
2.937205189704756,1.5458987965942352,1.3585070480658286,2.968102296251311,0.5610057918898341,2.6449086127699903
1.6067112840621243,2.0016650163380416,-1.633556405788244,-0.44637434293442957,1.6902763268646923,-0.14305121161233503
-4.501228447364657,-0.17729080463259195,2.931227851808762,0.13725852120323312,-7.165434481879398,3.889921999349692
11.211960345694969,4.121908619336081,-4.579946145672409,-0.19835470276736591,-1.5130847439899227,-2.088713192239273
-2.9834755757414633,0.548690647568751,-0.43636434673565827,-0.8518591243083398,-4.102711716055495,7.721431606226346
1.0025126162412425,2.731679572305777,-1.9785735003198663,0.9422535992833172,-2.06894152410218,1.1743455768292308
1.0650848385375318,4.558042292989272,-5.102673414823143,4.749247701930606,-0.28504339617800767,1.166466096516304
-0.3666481613661081,-3.988524603614649,10.150850067098208,1.2929531283188014,-2.694013877272052,1.2645490460396722
-2.110624815106972,3.6167732202276164,-7.178109815654332,2.1781877994009777,4.769805995029411,0.996953198552893
2.4935446906532315,-1.250200064938892,1.3721283494858447,-2.6893758333906606,-5.348308733675401,0.15072302231320744
1.8239505394502444,-2.1982034304714086,2.2581033944861137,0.981845216995894,-2.7000613715662762,1.7798539983910242
0.373403623705997,-1.3120186757182613,-2.0952029840102564,1.9802735825983304,7.347492597915965,-3.9831036716436046
-2.128613478716132,-0.5976322999817267,0.3486508463991167,0.48288638835877107,3.200430704728319,2.21547852532317
3.7255334403310543,0.31810242531255273,-2.3846554866932443,1.2660939177461463,3.028287033121611,-3.3115517086089663
6.396431836735097,0.2970910573446166,1.5942983739276544,2.399385947908965,-8.674576980164531,2.834245287073142
1.6923335291041255,1.4868037718068121,1.9325194359951423,1.2096775223696932,-5.286821832943476,3.9297407542381544
-0.6936934212466463,-1.5763585780062677,-4.178771762655472,-1.5703374420850211,3.3219392655572824,-2.2834761614649515
2.499304700209839,-0.6552061904544703,2.2511893038785087,-0.9968950246420952,-4.5978067005303185,1.8083059961027756
-2.707820708302098,-1.7654588607829729,-0.04845916734090272,-2.397135902013496,5.736082383325218,-3.0091152159422356
-3.395575005104698,1.5180487705796315,-2.2380162922566407,0.8368050383823438,2.128749173975933,-2.02159659393605
-2.405307715905196,1.7618755592583337,0.2999259266361576,0.43784140269697014,-3.4049118534574623,1.9983860792348593
-1.210139382385322,2.202510773333073,0.8978547760870059,-0.07470708958294664,0.1552785437201788,-0.2932889927174912
-2.6748620709093207,1.0051880012019998,1.0387383003772361,1.1265492087808693,-1.4441249475419171,-0.8831695189584203
0.3408389490296271,0.5243936623333549,-1.5978352978669481,-1.4738288350827395,0.8155404215654414,-2.99272932126843
0.15511009545276644,-0.1917089567554433,0.28228572510666816,-1.0399599941444393,0.33988911224019347,-2.1549021449782706
-0.4447546355723462,-0.04557816917172475,2.125338854890111,0.8756525636491491,-0.2078571005261597,1.2964476778987901
4.160396608131792,0.6846391875360898,1.0413223943228715,0.7960827694381403,-0.31417193110220887,-0.9010217656758325
3.3032823405975877,0.26214298033141803,0.6181329765417173,2.2629653659024553,-3.3614420599557198,2.233465615512532
1.0590280391776612,-0.6433851625961926,1.1654296311030656,-0.7414084376747165,-1.5516116324418747,0.13932994474705196
0.824884907174704,-0.4932027173159299,0.5147128049447689,-0.6779521483307047,-0.14882262915686928,-0.8343497815249099
1.4771696240744157,-0.3664400701028334,-0.19505224122566217,0.6021330381285825,-0.4338957886708523,-0.4112478687200769
-0.9189840539035545,0.8617398090298006,0.4289827020837764,-1.196753999720673,0.13895790467981373,1.2449975619643205
-1.4473464770761026,0.8409998023681655,-0.4376125116077938,2.5298850209641133,1.2549981792687248,-1.0623654334795218
-1.1831148710631016,0.39657269018473607,0.578947216446442,1.7074426398520561,-0.3135602006292135,0.9054989517160164
1.1258201345556258,0.22978079637226254,-1.4399508968059156,-1.1304100453662276,-2.101761366544076,0.1407476630569502
-3.4673161519419278,1.5047320790792797,-0.8285699051838811,0.0350859819713345,0.8278690386788803,1.0924423389882554
0.4789270052364485,0.3980530193631075,-1.3686660000724786,-0.7696584190618345,-0.20425360003707704,-0.15320978492163276
-1.4641531319357752,0.6820692362985815,-1.163844648583777,0.7837324727091505,1.5733409868076411,0.2273475837757168
-0.9380578187774484,1.0620622828709545,-0.7322975879200659,0.9564039489910838,1.0952958395160204,0.3938851694348785
0.12536050067438942,-0.08961428221946804,-0.025361507595772076,-0.28476335497883576,-1.5786351689152314,-0.15078860425499707
1.419447597015694,-0.6156943067339815,-0.05662441699448664,0.1740800284448159,1.382071526486277,-1.2513246451957651
1.9379307079882928,0.089880481603899,-0.6488676231646993,-0.26158044045838524,-1.6525407269317112,0.33599229211391335
0.0818743557080604,-0.3178602217430213,-0.43124387981251455,-0.697174663137052,0.5611052980034817,-1.0739016520369897
1.7263629075037488,0.6784940233653824,1.6662983527583173,1.2082806476339303,-0.2759111950878903,0.882784107505822
3.3805019540308776,-0.11423825335789944,0.3176096853959438,1.4778625190111763,-0.8491414213670635,-0.15035424005636167
0.9893469701588207,0.17292082044229312,1.602059270753906,0.6697920569393466,-1.5591006656626232,0.8425710826624884
0.48989845029704276,0.3004549006048822,0.24871281266304823,-0.08208524333122619,-1.1561709614508189,-0.1224317489129838
0.7629562691548909,0.3157961091567485,-0.012775947018430878,0.345468642715223,-0.2812330888371405,0.24975026922582655
0.14795741238044569,-0.3122640266516768,0.045722162134353594,0.30455529766751,0.2377273301311229,0.3657133814238188
-1.4663288567966695,1.1172660954185663,0.5608596028531098,-0.4963083182885422,-1.3826305944204997,0.8115924442991282
-1.5225837844711356,-0.24023806667084469,-0.4147756415451882,0.09241491926417394,0.12876344526698089,-0.39593138561711944
-0.8295960820436806,-0.4461380799784,1.2736190045043143,0.3805303482671235,-1.228865103804374,0.3253514207687642
-1.487253537997173,-0.86301176710503,-1.1373362044780122,-0.19027853306243142,0.7897865443043026,-1.1956025351336537
-2.6381447460250405,0.4287521812304471,-0.22404517344333963,-0.8737121555889771,-0.027754906516289313,0.18203794134289542
-0.6622154314485222,-0.14656973609464952,-1.4106001572399711,-0.265905784876892,1.698141340223215,-1.492512496431357
1.4205231360446706,0.31718637004930517,0.052964232715666526,0.5283128705784199,-0.320630199919528,0.3457702203047896
-1.1621355923166528,-1.082437895661858,1.0215056586111688,0.1948603536045712,0.05402284695969395,-1.1036317896100307
-0.4600356571680934,0.4690562982457087,-0.11099696717924501,0.8624181594982734,-0.09243947216238269,0.26457401411545334
0.992433678612589,-0.2985332651212367,-1.1180903488495721,0.32387897202308924,0.9365327473426577,-0.7118914462590353
0.24485752142787132,0.7266781750226032,0.22566110778270512,0.2551992183572923,1.0377100488126676,1.0947076399583762
-0.0554592383873892,0.21021804606731298,0.3551362114483586,0.05494191486663544,1.293380273420166,0.2696582880790549
0.21152160439683754,0.30336197310725777,0.14398612098525798,0.300874648233816,-1.7967241357187471,0.698544551443202
1.371172114218767,-0.5963558505320503,-0.46980726870966577,0.525338287961293,-0.4147760353770109,-0.21140326273191212
0.24420025142520535,0.034513288708371226,0.6790891836048237,0.895312182437429,-2.1688275076122148,0.8400589275632077
-1.4658185251997586,-0.07458584198336751,-0.12773275931792658,-0.32200213382182546,0.6520663694699437,-0.27515909744460976
0.2729967404443282,0.8139792958630546,0.10416578695041828,-0.1361405635209458,-0.8269705241433354,1.0279706570219058
-0.48433703585876775,0.3165788034603092,0.1882651575256044,-0.26726007237948307,-0.12450066807557691,0.2983076721609406
0.6215425562737008,0.8709928406501388,-0.09495371082463461,0.010589608865510358,-0.7953412179591631,0.5419760570442642
-0.9729389484728013,-0.5034185921040993,-0.011697709094493969,-0.031176094131906362,-0.45006557574242123,-1.0449512690464613
-0.3829083899232067,0.12114825288736308,-0.029886268658948778,0.22203668676141153,-0.027495790806199072,-0.41021486139445834
-0.3485763906924703,0.9703342187791235,0.5006868934255184,0.0618834092575192,0.7228263859715658,0.2741791341983072
-0.8415068299540756,0.424520144214686,-0.10699026123641087,0.36564102202213317,0.06712898806158762,0.17813018008445952
-0.522869816525976,-0.40270097698654883,-0.14816902209717758,-0.40012739469306446,1.426838534821457,-1.0020936650259362
0.7149876845231595,0.3968861982307934,0.16558137104194193,1.060021147622655,-0.5213480551928354,0.2528355479919194
-0.5739805856991973,-0.010000046118126993,0.5378432731040873,0.4879579143131426,0.8275774988589114,-0.6573539129047077
1.18722275988284,0.4032412875909075,-0.09416002960099436,0.35431906827763926,-0.3876144510171404,0.6186385218020923
