Gx,Gy,Gz,Ax,Ay,Az
5.9891109999999985,3.818724999999999,9.984624,45.474,354.46,9.784
1.9359920025959767,7.183543815662777,7.2985045821294205,2.568597229024752,3.9982135458083525,3.942747564529313
5.930130777374437,13.655353958134484,5.472580538072475,0.34055313355374667,3.2636685489197785,3.3406484097367057
8.062186136381145,28.952035019319634,24.999919447420925,1.3735391499548448,5.6910479293702885,4.377022274155347
20.875114256477,88.83117208312281,38.7253462812506,6.640751389436565,5.093914347743834,3.531945365873722
12.261252496076791,31.601293524557025,9.034255947629877,2.8682707907803806,9.968919929880533,4.146017938609034
10.795518232952434,12.365024260666546,8.693238463489477,1.8859505734134554,18.54098410686386,9.203789048353581
38.959567552060676,51.04407551617595,3.2972786329320574,8.371831895947299,72.31370688815346,34.71206372901901
21.133516953396096,16.041956732081136,4.428310530497758,2.993560324547002,25.835481249017374,18.947644819140205
10.214421245098007,3.084703715932714,6.659168714408765,1.3634060209662366,4.07294258674821,4.557766561284297
13.811879539232676,10.477085318241707,10.705365955961405,4.4433430486459935,8.179951720745512,4.160766613524568
24.919197701905254,44.47944651955649,68.7650530716521,23.616972044659942,9.788005580280478,6.604207980039607
15.807964086988815,21.671143199537536,6.480544665731598,6.889169225063823,1.0670853756162668,9.238570579892896
7.48599134252885,1.0238435197928697,3.5488108774803844,1.3429549960282918,4.45197027997181,8.63536677331283
5.792937866058884,9.728583164372777,11.273155910811242,5.187136092523853,8.87119056295133,14.479654678819367
14.958515217819196,11.34605548311501,0.5698687100504891,4.046733982048369,14.941027824419784,23.579798027542907
1.094930647618807,14.816240763970324,4.220498957414096,6.658644858895814,6.120249120058835,4.735608834676597
4.486465823083688,8.242396820767423,12.087233401345557,9.276565258383124,4.774653277528378,6.326517289935817
19.070060497408676,66.64782139309226,18.270232746874612,33.43643218907344,3.387194709056487,6.245276476633293
3.3875283093661595,11.639967990607452,11.080540696002362,12.6602484232504,2.9984001842291845,6.319582416853923
5.66900483886338,14.381490363762067,8.8769496498428,5.969669761629113,5.679521921402069,7.876523347442407
9.001529503144376,6.480019260404159,5.170141365899877,5.456985671936966,4.1685500005997245,1.113320300706689
31.20413961604159,60.61575105962844,14.67781141307503,13.274058751855277,29.777445089835812,27.341103461253493
10.51403726154816,24.464729708405237,4.0524634691988695,10.225101968372977,8.847867655411278,6.8731836090875325
4.840683645739575,2.833029481959793,9.626751765260964,3.994423197548493,3.502513513215993,3.309364120238495
16.492356118943135,20.905485976181733,17.152498236640064,12.169722129598997,6.567340881168299,3.6490236800949556
8.162362400732176,30.126094692665564,18.18363005087635,5.787443083435635,5.893290368936762,2.522733223674412
6.823502933991331,10.256600852943446,7.146711134183688,2.1848175609339564,4.140286334544464,1.7608803080406665
2.8221732778258106,11.822534844087933,4.74632893558596,1.5021903167067716,2.7956577549553336,3.502889900641412
13.557765883188416,12.848707280450082,0.5553095963997414,4.799144158686072,13.478751858919376,12.135094002794297
8.194244307726716,19.57415135903586,1.8858645831585104,10.15471594000043,12.667922270416232,4.92908858315863
7.2198614877435014,2.11315997726588,5.688171821552535,9.559997069515038,5.215266493061447,4.105583321024249
3.988035868236963,5.472098677908598,10.717420271687985,4.90434494664754,3.3354127863068963,1.4179996170750928
14.275651428822387,12.784041446682231,24.593762815263933,3.1859776478654593,15.761825162250155,8.463197711619587
12.025304758021058,11.196340880518143,6.646784122672315,4.4751462637737065,10.548490771420395,5.565205924857976
3.7558503935508054,7.34995923513097,3.465431797225724,3.303233996134568,9.952824913949335,4.111827319257297
7.520791056836878,2.623569452514368,1.0389692331604685,5.32769786216306,12.024856720713013,5.843059684504713
7.9641306357558594,2.805243755137178,8.408353180904426,0.8894341875271431,13.29483182162896,6.639280639839528
10.379353784686558,1.723842390595304,5.0338978081523935,4.214298223839101,1.799443552087871,1.1811638504088222
20.705352089233916,2.384900670761352,5.146283623713644,3.0062239907295214,7.792632881451125,5.634369256010098
23.10495739348995,9.666799199067878,16.353166629239784,2.947215146876802,16.492147861777152,11.073072030941931
11.162778823704564,5.010556018999581,10.977654473629697,3.5239219941521425,10.936258949620106,3.02717647037768
2.794921254813045,2.6439843038710094,2.7016689947134664,1.562193224525416,4.912396878630482,3.2209191118332603
3.526569873511828,7.354413214076065,2.241804952885326,3.6049627765131453,2.2113890538819336,1.168830186187948
28.863814740194773,7.887872137002755,3.768441066825428,3.993005576779679,14.853774943098161,12.796266662223111
11.126182082315255,5.081799103790697,5.0188727508017585,2.9395624698073712,2.737831578531185,6.213441785699035
7.591918633478184,2.6692923097877808,1.7275329722893507,1.8260747330940137,7.630214321147234,1.7835694071348918
10.296691671596834,3.5056044625942935,6.695663485575159,1.8353712448738229,8.702433865108164,4.4470118090123085
13.071613058646715,2.8672302834395653,6.626434811074364,4.623318632433515,3.215479496915222,1.271878577239578
6.618622344356402,1.7327784259896057,3.33702076904356,2.2785930865876813,4.724623796554172,2.5436022777533664
1.6720583659875765,4.667424075403498,1.9036020764043653,0.3495683939572465,2.400098102738839,2.932414991475865
16.113444909347727,7.924993757672961,2.6822618842555737,4.3111785072348345,5.581369520530642,7.480663844985854
11.096080636813266,7.109988854808217,4.499834881978762,2.4024266472703317,2.9879817602575107,7.366512405029379
4.48811870088531,4.593903189341737,1.7200144125854584,1.0661488529554932,3.3243305344714837,2.770040616374921
7.490838634178054,1.8059592189529337,1.4865293556795949,1.132351710572497,3.745994655009776,3.2458189109159976
9.202731225269016,6.264174539179959,0.8632439407115282,2.097056945757336,2.668188460844405,1.6895214822381628
1.4346468312216152,6.006510064720099,1.963885308232168,2.284771971162885,0.5002360207390286,0.4491044103176442
4.447163723762248,3.2982459266998987,1.7927251954390795,0.8024140512904426,3.467234306078289,1.268767628658174
4.666888097005002,2.538198772110146,2.619856113587889,2.15400306300405,2.527499672227509,0.7392542095605686
4.714503348148317,4.471385155647513,3.2916343141434177,2.3312028036540684,0.4623235680195033,3.9254426496260546
4.025000268366389,1.9624864476599666,1.6992071314651709,1.1835576598074986,1.7230264973313414,1.0219604277932988
5.877158565385223,2.5932277443924003,2.00424596846242,2.9135762712872073,2.715654692457744,1.9757089685417903
4.671974417050557,3.096954517422638,1.8113048719878884,1.4298861981064217,1.5342313699281178,0.2583514867443942
3.198688549364759,3.5593264345670255,1.0321659790693305,0.926696639737451,0.7666624897363021,1.9993318435529146
3.046565915274242,1.6859692899113496,1.761120552058049,0.8472808065713648,0.771945259179435,0.7560367835824654
1.4024771306372257,1.4011671487598836,1.565854800034648,2.258399742129241,2.775908723942257,0.81885768938128
3.3521567590504864,1.7925107041763673,1.9835789581585213,0.4770846789206438,1.8525118054635514,0.3750218195253119
5.710104902132497,1.760789701488034,1.4027986724071826,0.8149206089384797,2.0465573906702024,0.9494434821917037
3.923862921269013,2.233662328519636,0.9137430275765323,1.8649202832003675,2.37897859928526,0.19919649837961012
1.8048002513013675,2.698905654120572,0.5449465601196836,1.33018980676151,2.353870408823049,0.8198887770250622
2.5121875864901484,1.6769492003868367,1.182505497098448,0.8194347271929432,0.12932013234575024,0.9771158286651916
2.3820123317850315,0.22408652985297903,0.6623847651920628,0.25712139777686754,0.6816849734374717,0.4301251252667361
3.1335327631331182,0.9490962245505721,0.8274664236963096,0.6463535928342681,1.323773323051535,0.9220406953521221
0.9491459586114365,1.2168516366524094,0.19989579065263272,1.3033602847850836,0.701131551489823,1.3523801044101655
4.88492369780586,0.39083587017363347,0.9648876823851297,0.23645846079680938,1.2924480169900734,1.6154661129464187
0.7677109520300566,0.9458831270094429,0.6487082512784647,0.44542800723750675,1.0726407763565466,0.546191278771344
2.349579393910608,2.2947861053185616,1.38714881429642,0.8461815099365335,2.486866205614614,0.5136617634571253
4.160255004900039,1.9146008892266255,1.571777709832497,0.762869782503869,3.0493995642274316,0.9092474480447494
3.565241313063488,2.707377678624114,0.6980971334358373,0.8474459616038116,1.1613745983770103,0.7392984188530358
2.5818613919560596,0.5608621450487893,1.4262192103133424,0.6065607091310763,0.9937535703398214,1.1311313770921811
3.0930888260212868,1.6029559301684466,1.109793435308436,0.7739602420724158,0.753427336754588,1.593365587983861
2.8365168613003404,0.698320956693502,0.2360589732921811,1.2377059850926961,1.1141979604317753,0.45259301675946395
1.6583139122659891,0.3674686806376591,0.37126644145702936,0.4204634367717233,1.5353757689885599,0.3347026143396823
1.9138395760985178,0.8165341486426678,0.8211552891108649,0.2520615884565483,0.9932600993655916,0.733416694246981
3.4280661625507234,1.6961788109057676,1.7888069044320372,0.7919439125345462,2.339316698774978,0.6493377638175941
2.541669057336771,0.9260883414524382,1.0746004829736517,1.0615015784005248,1.3070988368230232,0.44729867162619213
0.37162197580275363,1.452352825373863,0.06038326296013376,0.7965946423554233,0.8142788724464578,1.548725768868646
2.5222090890977418,2.4108952961014385,0.34362337507473595,0.36139837735622826,0.7598914277877786,1.241703560801824
0.8296534180278234,1.3764970780091803,1.182136817002507,0.8865015455441172,0.02951625906775395,0.4623632386306989
2.601211262731681,0.4500418965671924,0.9447992008393435,0.5109950400045185,1.5221179081353655,0.47740509208340853
0.0,0.0,0.0,0.0,0.0,0.0
0.0,0.0,0.0,0.0,0.0,0.0
0.0,0.0,0.0,0.0,0.0,0.0
0.0,0.0,0.0,0.0,0.0,0.0
0.0,0.0,0.0,0.0,0.0,0.0
0.0,0.0,0.0,0.0,0.0,0.0
0.0,0.0,0.0,0.0,0.0,0.0
0.0,0.0,0.0,0.0,0.0,0.0
0.0,0.0,0.0,0.0,0.0,0.0
0.0,0.0,0.0,0.0,0.0,0.0
0.0,0.0,0.0,0.0,0.0,0.0
0.0,0.0,0.0,0.0,0.0,0.0
0.0,0.0,0.0,0.0,0.0,0.0
0.0,0.0,0.0,0.0,0.0,0.0
0.0,0.0,0.0,0.0,0.0,0.0
0.0,0.0,0.0,0.0,0.0,0.0
0.0,0.0,0.0,0.0,0.0,0.0
0.0,0.0,0.0,0.0,0.0,0.0
0.0,0.0,0.0,0.0,0.0,0.0
0.0,0.0,0.0,0.0,0.0,0.0
0.0,0.0,0.0,0.0,0.0,0.0
0.0,0.0,0.0,0.0,0.0,0.0
0.0,0.0,0.0,0.0,0.0,0.0
0.0,0.0,0.0,0.0,0.0,0.0
0.0,0.0,0.0,0.0,0.0,0.0
0.0,0.0,0.0,0.0,0.0,0.0
0.0,0.0,0.0,0.0,0.0,0.0
0.0,0.0,0.0,0.0,0.0,0.0
0.0,0.0,0.0,0.0,0.0,0.0
0.0,0.0,0.0,0.0,0.0,0.0
