Gx,Gy,Gz,Ax,Ay,Az
-16.586662,4.0312519999999985,-13.855507000000003,-42.333999999999996,-583.9719999999998,40.406
-3.8884642096346216,13.311574090539196,-6.569884648992765,5.28836156113542,2.089458563684862,-2.4101222848186774
3.9345568803870203,21.726000522476646,-5.197682734682292,3.5153840955002886,3.5043254228940035,-1.6509676624293759
8.197397983582448,30.73843331928543,-8.663758470548908,2.281074993817466,2.688564138429025,-0.7121608954970122
17.466028188495024,41.995672228395904,-5.249260920615149,5.314957207159739,0.9133940730361048,-4.756015808135319
15.973414167207247,15.774428779499535,-10.451577417349768,7.118370681423965,1.6237786520735598,-1.5729323527582406
32.4017402657012,107.91676626426687,-37.56472128050024,16.764314955916937,-1.6320022408152877,-2.4673517076304976
2.893200084406683,-46.86253122837213,9.605065044767807,-6.1196260277242365,6.8224407335734805,-2.10908418751674
3.4150263300359653,-0.2607449435460101,-4.628132623486181,0.8903195062283138,6.447582286381113,0.359741573987983
2.9200350522878713,-12.925344860143003,-5.558977401959358,0.6941355270772829,11.071460889537255,1.7602933627557775
13.408233925109997,0.13214566786894721,-3.0664893207443917,3.520947483667528,15.593768530332873,-1.982287620727617
11.792612490756932,-3.741265878412788,1.3596248479893065,-1.956992275164672,25.954585119194654,3.1998767756913065
6.71783834117884,-16.309473842924433,-6.770110721657604,0.35171280653005654,57.77556671071041,8.148587836004012
-17.728361306171138,11.40292040200053,7.024724623470086,-3.256130458850406,-73.32944363583191,-11.923251439348524
-3.84943296394279,6.407486488510636,-5.224965251486877,0.26805954067167326,-6.002970202294684,-2.112853787054707
5.332320572730606,22.87399830306355,-12.086899090844623,3.7934126467174814,-5.330348185233475,-2.0581516147525876
-1.69300390645544,19.96454629454296,-10.46396484751654,7.132111563206836,-4.881771456069863,-2.816054520083191
2.2924394055868014,3.876242033554565,-20.710833783563242,4.083080343429264,-3.651000881323913,-2.2168351893699643
4.273567366996295,0.358575077466158,-7.005026487578154,6.2173108267701265,-4.41245184041027,-0.4621664351578294
-12.1187262192051,-35.77524282145676,135.84091396326636,-52.03293548681029,-6.94034234789914,1.950070502945735
4.3713789017571205,-5.682173705402031,-10.027034153151758,8.024527776313132,-3.9757837471805964,-2.406001200757202
-1.9823097143818718,2.2031768863692434,7.952380949871303,-1.2653559084792088,0.7480186419998347,-0.08320449868945845
-5.657590142305479,-14.314325833431681,4.515012137453676,-3.1032205473179157,-5.541680298052838,-0.08690023264439328
-4.998301178239759,-5.524772446882106,5.77169719414333,-2.311674315852169,-3.3324033412043237,-0.43892009610280747
-13.00949977314139,-13.742633681014393,0.01357196685166917,-0.445799858599758,-5.61608864677758,0.6866663815277971
-30.209975548466215,-4.265408114565531,-18.13163874205748,-3.465307932289446,-17.66286588262256,5.743249026869236
3.026624495924084,17.085573233656575,4.5457493027191544,5.456330363454927,1.2816606179413674,-3.880527269114108
0.5923929411094955,-5.026386847712269,2.0239810967527196,-0.5196766532111037,-2.062063748603817,-4.5154757633314215
2.098897224803265,2.4198728405324816,0.34661259939431055,-0.6344038453320122,-4.920207882745609,-3.164372589909406
5.943790828944087,-20.189926778949104,-0.36528407020564657,-2.689464289609326,-3.3232889560702668,-2.83941518230814
14.069783497237502,-12.451705647642415,8.812398949743661,-6.865057131915726,-3.6048972395399206,-4.219842651544191
8.710771050652724,-30.941695051104666,16.559286428932488,-12.400193772866338,1.0502318964241582,-2.708153653699564
-6.1291628383422,4.434906911038347,-16.162028698757613,19.63305641942364,3.2233925512082564,4.341544701905361
-0.39383080146710725,-6.4520396626851415,-0.5621221095188345,0.3009722026925976,-2.0210744517515,-2.8834917499647537
10.131441833191497,0.4040930491312169,0.7197360805521935,-1.398154891304987,-10.163535134484093,-4.830830591212148
9.068712993031902,-16.03132279429106,5.6774605144337436,-5.511377075626997,-6.391927279923727,-5.827211220824629
23.509152597488416,-13.2660321424746,-0.2342275223613602,-2.533373097442006,-14.654594166942069,-8.122243101193993
12.404899873556982,-14.538046373607475,3.5829665890617672,-6.14258198719725,-8.926300120902226,-5.755422927295907
-37.8554835087306,1.7543576556066691,-3.367559149717277,2.2171918780656417,43.5409434552146,24.151437767326094
10.224890863208376,-10.27056561972957,3.568032669675219,0.11536124425062622,-10.362464821959406,-6.056987776053457
2.900919742431286,-7.41951886575667,0.031657304876364645,-0.6107264882665584,0.20049204997818038,-0.6453358820872803
-0.7852743899668955,2.3987259092109623,3.927836105906094,3.0113946480069007,-0.6930453225608826,0.8766591615543233
-11.877032902378593,-0.17413495823754022,0.13177803805654387,4.000891413982217,4.18464942930995,-0.05763728887408348
0.14452486332568704,-0.5881074348428248,10.446747196212272,1.0261107606043804,-1.545750064357672,-0.21186940847472568
-5.930520155554799,13.32810904382175,20.19319956924543,7.085778992636656,7.250564411333575,5.054752643727534
-1.7988690690498834,-4.464869811675038,-5.411932935927301,-0.5217106892178682,-0.49561134128233375,1.2047895985043557
-12.082931890721685,1.787909354662708,0.19666942454258185,-0.8258492094576078,8.121495541918812,0.7379772347470519
-0.36780281973643797,-1.6883585018375582,1.3563772700575654,0.40239110027176883,-1.5958527802816294,-2.2790043879166246
-2.1847965885645264,2.6261201138400767,-1.9158550381195287,3.949102640487611,2.3467986419773474,-0.1184155141494534
-10.735877495471506,-2.4149315160469174,-5.529727283910171,-2.4260321840791903,-6.687831986812809,-8.983022554003258
-11.605563147218772,-2.2010955350042822,-3.8342919439170884,-2.670073957683811,-12.471529472004503,-13.14628963078675
5.495226547113047,-3.1940704548796295,-2.949065869302638,-5.512971723023117,11.952617124639461,13.878764979568356
-4.857342843275155,-1.19121439649457,-1.552625410319095,-2.2064010627565365,-2.072710914891817,-2.038252724139559
-6.200621461636221,0.8411000027806038,-1.9413475678723948,-0.0759622696356641,2.8515176441578265,0.7039333425963814
-4.497755672460341,-2.7766491942066733,2.8289635798564596,0.5255792474143193,-1.5483438479483915,-1.2066576318975077
0.7384960066760761,-7.431632656981208,4.302592418753773,0.5875741481113064,1.977960614211925,-0.5062949608075558
-0.4869128454943691,0.09063251378041848,1.3323778273870186,2.094790813730681,1.2665651527460255,-0.6477243830753325
0.8533976183158847,-3.5031824025530134,-3.26742221103771,-12.035840766963808,-4.652885923061904,0.6676335251460978
1.112917216239893,2.212105799314169,5.708023417807171,1.775580939624379,-2.4476254362502003,2.3447699248751728
-0.46196310912906036,-4.975585838025646,2.153432942899899,-2.4904231672053427,-1.0709275666204179,2.372487048532124
-2.4241744441036834,1.1520945414345658,1.386822960650958,1.573419212970914,-0.7110848234352232,0.5235087275848379
-2.725706012306146,1.7688149294557611,3.3786429945358676,-0.29123093298409275,-1.52094953514134,0.7613026979574204
9.873067659253485,-0.6991417409011231,-1.547725852578649,1.263717398453477,0.4505443906995472,-0.45470063773616687
4.779167701459415,-2.176756810924533,-3.913243021425891,3.8140421514611247,8.590492292186612,-7.996139786835325
-0.16455854851256202,-0.767307806892966,1.6597941223139792,-0.2890479042789229,-3.669843274474619,2.944283227201858
5.011650267785411,0.7561293088013092,-1.546922501304387,-2.1758988788046882,-4.19416518636509,0.09143765455921393
0.1666166195955423,1.972019355006919,-2.1938656724222567,1.5898124395496873,1.5073789129148376,-1.0221322977736627
-1.2454758695050638,1.667911135277545,-2.7835296289680116,3.501544839679827,2.161561824393278,-0.752001472340212
-3.9056883521448986,-5.977787165343344,4.6342756502993705,1.8889362621270658,2.582737634452209,-3.3833626301911304
0.9646759947266601,-8.663671888795381,2.7211276358205945,2.9601326732512163,3.3115801623091965,-4.368546438937573
-8.59230481878975,8.814735940206457,-1.618750127703751,-5.116645696630196,2.3517669531144874,2.8538421659301063
-1.9050752388574106,-0.38204309181458695,2.703662392145839,0.8996905594255313,1.2934089224796892,-0.037035788838851
-3.7393540314295577,3.6528440940290485,0.9914188607228411,0.034593681844033886,-4.073727529215681,1.5238322828837603
-4.367675070228893,0.6630431060208264,2.159045367775389,0.3858893936688445,-2.798414572499871,2.3509587283771562
-6.22073266357208,7.150474324085282,-1.8122736287682555,-0.0353117655989581,-7.585889230111804,3.312918612793366
0.7811663873524368,-0.7236360329532507,-0.3323860048600382,-1.7490157603419376,-4.82504697942359,1.3310899868057915
-1.4055868507782119,-1.6722683486559635,-2.462933389776556,-1.9909910390304864,10.922307606100752,-4.07305141785855
-0.34459337002340523,1.3777413865058377,0.10850092234166664,1.882846299038083,-5.1556168388492996,3.006639654202232
2.9690212922154293,4.843919183975849,-0.6792267604789417,3.096234056988445,-4.9848665530386125,2.7745546288819707
2.932772821549818,1.870888073971743,-1.2936339533694043,-1.0080885089338798,-3.5425372523074437,1.21288151779641
4.985594443398541,-1.402168243856479,-1.5726808426184922,1.3663900366193373,-3.447976770615556,1.1327728960418533
3.08188131170817,-5.011852194393395,-0.40290033295393596,-0.9269602800558574,-0.14249836731168308,-2.070972590637183
4.480612151599686,-6.877736949542637,2.87516216865368,-3.62485296651307,0.6787267841695939,-7.320253119453999
-2.487128339785275,0.14745036837331804,-3.0188807532307718,0.8742615773997373,1.1152285917618565,1.8020977941473866
1.534266591305363,-3.7427410649675767,1.1122567219824187,-1.426970305534396,3.672415872314656,-3.1140131303176135
-0.4675311749533926,-2.84767682200798,1.1392615631351357,-1.4311784537614587,0.9435593379722675,-1.5465852102938717
-1.4359205140244558,-1.1242531333260115,1.5973649500475045,0.6038748329809152,2.8630067259683485,-2.9139384709085547
2.3041593006714316,-1.32833596259473,-0.8129536115411955,1.3013582813553384,-2.1675853513505396,1.3478253399670281
6.140758731388777,-2.754742069811067,1.2288940824196377,-0.008891386606485363,-3.2729532866413464,0.5534493538425955
-8.592987690402758,-2.108706838398718,1.1510682919829396,-3.448087152237833,8.052876576091078,-3.033950802132603
-1.5342200585775605,-2.72782272159434,0.09044522126988885,-0.18746904654243873,-0.7526241877414193,0.5069128014119004
-1.9818788627374144,-2.863316077828223,-0.4939753355562432,0.6542658014890437,-0.557797460812797,0.7094223019048916
-3.5690244193970706,-1.1797766921590418,-0.18275356533460685,-0.2771819347041854,0.05956685469037293,-0.04579690903036071
-0.6076706820953424,1.996723880715174,0.7676704599640316,4.015767191469873,-2.7277020757728816,2.4339946365576846
-0.9945633574686281,-0.47091570131972693,-1.1183440653095564,0.4278917411698995,-2.007191022047125,0.23755096745896243
3.286418606090818,-3.405901202704798,2.1483234477998585,-4.737476345863929,-0.058422715035074485,-4.180967505046102
-0.5333892219143401,0.8034431966538702,-0.9875768681241042,1.2875946526216124,-3.11184832189522,1.8744381105087853
1.7266884351639584,-2.3880832985323366,-1.2381307706324227,-1.084438557461905,0.2714195691964737,-0.1953589920399612
0.1964677695930901,0.06624333101393287,-1.5707872046313265,-1.6898542081821515,0.26607824964112314,-0.7346826619601423
-1.3209399673017361,0.8987220677499234,0.6480014374754781,-0.5828981528601775,3.3021232338935795,-0.6068808895229343
-2.427287638053527,-3.192346952847366,-0.552356124534437,0.16679259843774397,-0.9254429455402975,-1.0612911511666907
3.331322920090887,0.14839506501749522,-0.22808910715559172,2.58449148861517,-5.324060790754693,0.03855219860233028
-3.552726691915616,1.4865444454462584,0.5382747509515593,-1.552814149299653,4.256791045914299,-0.3848310728443969
-0.15645181905582994,-1.106556262316063,0.7561966799145344,-1.6377468770874415,0.41569407133242464,-0.4351083558460458
-0.9578958434858135,-1.0560661190351246,-1.4439155265485533,-1.2538479783076488,-0.7550375924572581,-1.0154257940009221
-3.615639017679653,-0.7876245064538903,0.5223491498487721,0.19124852925408076,1.0417983339473222,0.02435664695610798
3.3917913368806376,-2.292326142366609,-0.16307556570897855,1.2281338929025558,-0.8960476315442332,0.3336354187686251
0.0325937626218622,-0.15584466581794598,1.2728848568049727,2.2224106325453645,-0.8020601635265421,0.7557416340628196
-2.924685171790241,0.14371899514666975,0.5159953319533171,-2.1828689154292045,0.8781401651209272,-2.424463979903447
0.9301731721574975,-2.6176395314031433,0.007113396611871492,0.7626120802502486,-3.004208776522682,-0.22049964980090103
0.468670811728477,-2.069913329516684,-0.5464380333781973,-0.21556698312867018,-0.6212511557278779,-0.157410603332665
1.6172697290214364,-1.2657053029142746,0.8585312843076535,-0.43296628475324994,-0.782778068334115,-0.3334695278896933
2.6298920589563193,0.7463030915425715,1.251543865692614,0.8413548070339686,1.2410859685380498,1.774481834401747
0.9053354013054872,0.42016846474611336,1.3847183776586456,0.7662711187076175,-0.7542256174651405,0.6823862980919213
1.7309095927634826,-2.223161604488801,-1.2970397269462257,0.6028528219756885,-3.681598239184092,-1.835495261961635
0.39323161736794987,0.6987045467491699,1.0653282550647587,-0.20824340442225198,1.769147334607008,1.0662411295415908
0.5176852396604861,-1.2863212998850857,-0.6429730560391085,-0.6960661015842975,1.0415391469662147,-0.7495127966607851
-1.723078630603102,0.8989812448200843,-0.16748228370934393,-1.0428425903222949,0.9098924444865353,-0.5718599868131815
-5.134335141360776,2.7047002370402113,1.1656866817435134,-0.14099337451843674,0.9603494580850565,-0.5244143060157294
0.4216288490679261,0.41552500797823266,-0.78123740780082,0.5777737489008006,0.6511295433288147,-0.32347335230094093
4.31631135261443,-3.4974198263256384,-0.5667709092208143,1.6462335185914223,-3.198509905430347,0.3179203415690379
-6.041116904408582,1.7101054602754808,0.6926224160403973,-1.8803145192612036,2.035492439401547,-0.6164564530955242
0.976176840251644,-1.3262519311532937,-0.6694414859492623,0.2519310054701168,-1.8747809796258306,-0.7085751752901962
-0.9002474942663585,-2.2493095858752152,-0.7136941273041089,-1.2932699567957866,-0.4035028338423686,-1.5458999467586247
0.6270056927407222,-1.1970697361081595,-0.8587420699570392,-0.1738398024737834,-1.724393111388629,-1.0309459940320953
0.11861492231569704,0.5147351705907456,-0.2975655224203688,0.5790950323018199,0.7945843228596468,0.9769733085353338
1.0640338017270672,-2.576262880401493,0.7698447294827978,0.30448360531823765,-0.659754512919462,-0.3627457130626961
1.2649369531629415,-3.548106203934514,-0.694253056032555,-0.4663125162829603,-3.1138199931848103,-1.2087468082156398
1.1437252878881627,-1.7312758478955257,-0.41147505103681226,0.5978305426717487,0.22263853618284557,0.2547495919940316
1.3240147464576382,-0.8069594481275479,-0.8715615672013921,-0.17082960144302967,0.6209448515565545,0.4492018148494669
1.0339232734154997,-0.8919634457276931,0.858405401306447,0.2723964462581379,0.2739663038744456,0.2863574289585235
-4.512716659378048,-0.1274651342234026,1.375423774341011,-1.727964014975754,1.703926608421646,-1.1462072680704383
-0.6438230540754507,-0.6897820144745987,-0.19415674010602602,-0.25081559856770524,2.4244147252989574,-0.49684605358565836
4.856561795851605,-3.6843753041765526,-1.278204942294541,1.3810220410373848,-2.6526520593140357,-0.1528684181966823
-5.746592353728407,-0.25715289381242046,1.5929077824758329,-1.366968672666299,2.6050493701317654,-0.48550216237446964
1.157987234683128,-1.4723894356713334,0.2503923249850529,-1.205710764217275,-1.3306459041521004,-0.6477935456289118
-1.3975619587012544,0.34378708045980244,0.2144346773887903,-0.15909122371736428,0.3478351451616408,-1.0132137983666154
-1.1655112288570002,-2.1707490123236806,-0.5873334706348434,-1.1562629904915593,-1.8682991623604706,-1.143445552604589
-0.12706329817159379,-0.45490764802014305,0.2722032102397135,-0.6706984395765313,0.21960868178372372,-0.698267274973919
2.41847840599039,-2.1566156496871636,-0.6661806684648055,-0.216661826015781,-1.2277982972552381,-0.9825169475142821
-0.3979479159813383,-0.9170362654333373,-0.43056021242266546,-0.5675217105882948,-1.9353764364264314,-1.2115087702460166
3.072730770460497,-1.9020191691801083,-0.4382264873600832,0.005898770744449888,-1.5240993341466795,-0.351438746980959
1.2597081737318387,-1.8673532666134396,-1.1921638068727818,0.31222034905693846,-0.4703121951398065,-0.6391927780463579
1.6905553722382853,-2.625135908401721,-1.1818930480269336,0.49274592007903895,-0.7184029333411887,0.3135931572318378
-2.05322613785076,0.3515594461033624,1.4802876834147272,-0.433779947857234,-0.4829269780153158,-0.776686916888885
-0.739224847476445,-0.02033968217238935,0.9158030545245359,-0.4469274496467731,0.926134494570695,-0.4055813931810332
