Gx,Gy,Gz,Ax,Ay,Az
-5.445081000000011,13.955164999999996,-9.283592999999996,-41.78999999999999,-447.43399999999997,-44.176
3.6510613931821183,34.19711896821918,0.5191384820893088,-1.1425368702498264,-1.039249639720441,0.497211000893785
-4.732203314406342,30.079063224791412,-4.1138146242948155,2.5792027913834934,-1.9845178634908918,-0.410840046806474
2.2524668483563914,23.141381214593515,-2.018492231676377,0.49681084959919586,-1.497763409001442,3.010257056801997
4.488192717749654,42.86052014197132,-9.706316649834985,-1.7054669916783403,-0.6326738651524831,3.3523740125338515
-14.215391131517366,-159.49201173822993,55.45285037825184,9.72797884588132,-4.8211144134388775,-5.8201018867911465
-3.039405672681908,-19.471677766052533,-0.9134617949347443,-3.0256153441642564,0.25224150195261535,3.033986024199616
18.129559527489498,-9.578073525719045,-1.5552163832195058,-0.7676818084728606,-5.042459058114103,-0.7406921388524009
15.530931432930593,-3.446844254985867,-3.0294040116821686,2.8544560452266627,-0.9991892854556346,0.896030922363222
-21.57455785423866,-12.437894287265532,9.755837967171502,-2.582793525919841,2.0329288037762163,3.836713787693882
-79.69955806846706,-43.801725138566724,4.38344401174027,-9.29185145526716,42.299304609693074,-63.86259583821605
-20.544852689482056,4.312568421242089,4.603989027577934,-3.4752311826652393,11.28706290436641,2.776941523091552
23.594799374230213,2.9643249517281642,14.687745870873712,-0.05391538371002502,8.939801721077824,4.629211753706484
18.4947318495785,-1.9765776478158132,5.42665401866215,1.5576614131609208,8.289616949798129,5.956519205901427
0.41593875816404613,-31.00414349885583,17.024569524028927,-12.083030948371793,4.055424967297132,1.1757491283886774
-63.8653426568029,-57.976953488759456,-108.5070423159182,9.442746950030145,-8.38552985485228,-11.530582287904634
17.213533754166676,-16.726664461883075,14.715898990766405,-16.242233526557936,2.420918652252302,-4.214152057852923
18.826363259552128,-0.8258416318160604,12.454783179537122,-5.059202236721181,-1.336529440788077,-5.076535903018408
-17.761569597841092,-18.95041746541885,-5.981933799225623,-8.39579604963492,2.8553234648055503,-4.783500339045198
58.24022567558163,-15.061606574625333,1.8701496644843818,-4.332298521523704,4.487043963001243,10.224022568274913
-167.2371296728616,47.695742723341866,3.686497838275413,14.453522107053109,29.740812907302953,42.29804971910514
52.76589182705162,-23.682345566988687,-3.9188234747447757,-6.614881073648512,15.288004208337895,19.577129252720084
57.313372404743056,-1.9643287274847971,-6.191808337514271,1.6277830218140297,-1.3571940736660468,3.2955414480698244
42.06283041356707,-18.421419297247084,-4.770635213641228,0.10663163878416852,-3.055995040453814,-3.655796074549533
3.403752485838556,6.765804760120232,2.3194519177023096,0.3694551640361639,-5.230617861886274,2.330808519243184
3.7998236166029393,-32.83945901280738,27.608108489043357,-6.412158039347737,1.0383139904371763,5.150943117125529
27.693145030509232,22.675952832122356,-2.6874436335331113,10.259167709185657,-8.061527696807477,1.949083560518764
1.028745060360852,29.86563853771075,-4.712312255312836,12.105508760230935,2.7531131420869013,7.756947947572689
-10.04883597240741,-4.893905385446645,7.001504992562692,-1.6491076640024458,5.621874577681605,1.7764826369412268
-5.482723543807367,5.678697639594871,-7.541805711608214,-0.36960252584641995,-11.473125907903395,-9.962473131576115
61.28633591914854,-36.651751368005016,-0.26845138119605316,-3.4547134623659965,-2.829255852205949,-0.5181117688442609
12.665658773218292,11.847021650183073,-3.661481774459851,4.39446299285958,-16.713177133974494,-4.52650736010847
-16.325441781135822,14.962586154574225,-0.6538291456063936,2.7577342422188034,-0.6958615884679524,1.6796436541752402
-10.15173585861003,-5.342895378302722,10.511375618346042,0.8815093134148136,-4.916384185515238,-2.6948798339905977
6.044892466917063,1.7938204825687192,3.6672226521291225,3.961024450283801,3.794480918301654,1.9003267297120838
17.68182275721437,3.3724674657014235,-25.31763790512405,-5.422823825681838,-2.962007528932473,-1.9325521773817806
25.679381746115507,0.019281685184331376,-9.284174804221317,4.180338803776737,-2.3692802841152867,0.0223509540171154
5.716438117815163,-5.07944110105687,1.4583957901427511,1.7974966471693412,-0.7036367992411094,1.2482346886395352
38.117936398532194,5.478059573856013,-6.82152581279619,-5.408791349219081,-7.857643072688632,-0.30212543542840786
-26.220295905464916,10.093538360089754,5.391877879211053,3.271117159719002,9.720314916380811,6.337387899386357
-25.10097694833167,5.706114139399403,2.2597339169461224,-6.51983930214012,-5.451263304509434,-11.675216739111287
-43.41234078095829,13.96909640731767,-6.46465467558887,2.8879340822164776,17.68025039179435,4.083229389470091
2.756953850780765,-2.071364605652286,-3.1865181977508255,4.135869560454797,0.6860745441705784,2.8014680441231286
4.145203798343015,-2.0575078318526048,-13.507204488835487,-4.23253914513946,0.8414758025465683,-1.0635032025678597
12.579038015824574,-3.1512857178964935,0.09303711721407382,2.4842903603494255,-3.9721392678842786,-1.8749784126909845
-55.60526263239674,21.862549534152443,-1.9649734269276686,-2.5459480578157008,12.183422195710747,-0.35285663908127624
-9.466148823686282,-2.9288677009608177,8.376030272526311,6.885258649471369,0.2807255511194623,3.2735011939430585
3.089777618965246,-2.9550847695278164,4.483279720459055,0.9006813586125607,-1.3252350487912912,-1.7652499218785744
-15.676660019191557,1.569868192622473,-1.8804424057841973,2.4126648122886407,5.371872126677996,-0.09191672089868258
19.822201767715928,-16.89862355576451,3.8168984350495085,-2.021587987749246,-6.526988216968539,0.06396189728269808
-8.495979843985625,4.13481384877443,4.306431812099919,-0.07293048134236016,3.053814330857983,-0.15944326806184175
32.65088747082829,-22.859252568901717,2.063567671241946,0.8810655152662152,-16.989414402934614,0.4881380244652121
2.3509878608875616,-1.4679415770357869,4.701690283704751,-0.022852715728638895,-5.379839946800301,-1.0422710733541973
-20.24783017213318,11.405804607252193,-2.0651612815470823,2.1628215232971355,1.9404189802128453,1.2794794024485077
-6.135477938551882,-0.4312339914829525,2.014916564184843,0.9348827904613294,-0.7576911519599998,-0.7015945354891149
23.711247089087028,-11.75502007783394,11.018275293522006,-4.391993370909114,-7.176478803376179,1.4509842779418596
12.485011858888647,-2.865232870285333,-0.612151014357158,3.3550852596044893,1.8707964161645947,1.3467540354716283
3.0263172997999663,2.594778761380795,-4.601568775144038,0.24251574653445201,-2.919677526784553,1.1325879676947583
9.990149570479003,-8.695140047790442,5.394726478795402,-1.811196891454908,-2.589554146922684,-2.403797171710011
-16.044016367410098,11.308718542805536,-0.48831270162050355,4.249010854394605,2.7512438518023714,-0.2115896917975244
24.173423678543067,-6.673679950079923,-1.1571804371264536,0.05364811690103782,-8.704583879006929,-0.7508669599968167
-0.7042169757713381,0.5383404427749818,-2.8162190444724295,1.239595004279911,-0.6445254894914871,-0.81329326533856
-13.876144175256313,2.082806803428965,-5.864125194855811,2.5299981447056226,3.6346606283117278,-0.4812218400003848
7.53192805452992,-5.09214317299655,6.460443150279319,-2.3113881837575105,1.929985599849707,0.5234391540074257
-4.501138627573887,0.8904125593053829,-0.31367787495217864,-2.4910241346505173,-1.1346525776234913,1.0402905383202294
-5.402469856832992,7.799549445471882,-6.763431394118328,2.6899742806554294,-0.7467696415698737,-4.40653640835917
-13.252250268898273,9.10519151976763,-1.0502417508066897,-0.4776215995217967,1.8890857499055262,1.5665315934791404
-8.769420159133254,-0.12551443576985877,1.9031970671387275,0.3908545609079461,3.2536085094552867,-0.7025491759217687
2.2475428310470686,-2.9876327981182778,-2.1846693741193643,-0.16680951448859976,1.2913279177209906,-1.0104055687013067
1.883667521603907,-8.549910851945258,2.1080409946693406,-1.1819635006243985,-0.8886498507101077,1.2334035090615678
-18.148021833802012,6.419416073041429,0.5860059339496542,-0.7706280513871885,4.707944994812553,-0.7020916630903742
-15.405103450035028,-0.0024982493507161863,1.0226252502814845,-0.04667649369544005,0.3894118516243512,2.460281922781494
13.786627772421703,-2.833270957100769,4.82946305145386,-0.2780086292562643,-5.004219121787187,-1.874198323912156
-2.6725986338641254,1.4561787657866307,0.047756753498231934,0.19325248385628385,-2.2283287432249677,-1.9153875266308926
5.4538480500665605,-2.181761385627981,-1.334301870008123,-0.007228402240162024,-1.0649839317506768,1.3938088888180342
-10.967573387949415,-5.140420708693908,1.3853100566812964,0.12314527038933765,2.1541361118955327,4.175939249240922
3.2909070255108723,-7.299282921830299,1.2013439518392257,-2.708106774640359,-2.531182710527847,1.109640811448685
1.592677680932428,-5.020358027218357,0.20953529760647988,-1.3344357235724857,-2.274556123551418,-1.2315381082171122
-18.266201112381733,6.296665097490614,1.149308796730912,0.7382917408220875,3.5216195546659383,0.9429783818541765
14.762391381482539,-0.5296547067184365,-2.7365779483759876,-0.10295942676474606,-2.4824997740710795,-2.0845963550155897
6.9731721731355325,-7.674649562188221,0.7821461565369867,-1.5532624500137968,-3.166959313689718,-2.1264183767640734
19.967691857922652,-6.487759498650261,-1.199182398652539,-0.40698617140393156,-2.304004700549371,-1.8262880401255062
0.18320220300298296,0.7783243975181042,0.30664540777629035,0.1974031089646936,1.5570737610573027,2.9685757624401683
-2.5519700538577093,-1.9662053480622155,-1.318030060865932,1.146699449100704,0.8018849281599039,3.3737067999437937
-4.760139398588534,7.918080900959814,1.1988006357749699,1.4678960392342373,3.0831525453531183,1.8302108590202661
18.045869554638582,-3.9455698098805203,0.474842366469146,-1.6174273882200265,-3.824277525984442,-2.204391507620371
7.222901643784477,2.6454175311860006,-1.5961508905067914,1.9627762597043097,-0.3223406877469097,-1.0600522112103834
-4.037245739888101,4.117015695887856,-1.1265256692387413,0.9285406953447827,0.9433784942950862,1.7812327797181495
11.01440896682502,-8.112260399072918,-0.033975791535528516,-0.3982647927246636,-4.7480168011486565,0.13022377289277315
-10.6792202089104,4.827014621953067,0.9810882892742078,1.1725831602877221,3.278336021726767,2.1279010336221456
-0.1811724906235893,2.96675792874025,-0.7417138541215229,0.2686987345483567,-0.5523249718309649,2.7265746031186238
-8.375243736760797,7.510525258181717,-0.36360433630137257,2.033031652310211,2.8026738403501845,2.2538189182961696
-9.29411929478733,0.6956899716304993,-0.8971839734941756,-0.5850056569872543,1.6102070445017067,-1.7286574682490659
14.868594783007165,-2.1323906103384496,0.7349139784540941,-1.8109571185779811,-4.841853350808316,-1.342501433940956
-1.1780730128060044,-6.43427237974651,0.9188204697122325,-1.0108854758192094,-1.9584921970718125,-2.96954936352728
-11.671630606578136,6.628521961826312,-0.7992604477471772,0.7613590163249341,2.7812532082813597,1.7408626226446584
-14.365035834865907,1.9942039800531044,1.2333615365212387,0.688505138273817,2.3668817693575592,0.15877494848084667
2.933609355472382,-4.031240248633166,1.1721735544434038,-0.6023429367381321,-2.0962352667821307,-0.008957506308629348
3.1981733744883867,5.714477335626796,-0.9700563489059875,0.7568230377056768,-0.04684444219368622,3.281232319715337
1.641352843438121,-4.964731041998478,1.4744442256379768,-2.7133597357390853,-3.177699192253053,-2.280235512214227
4.510991028328345,-2.7182672582009793,-1.4173733576001888,0.27734448353717256,0.1574405270057554,0.17433694678587697
-3.3344364830668782,-8.57483773369577,0.8540161347611278,-2.132683940181048,-2.024300750569918,-4.344571250769637
7.788451850329403,-3.9167508199441223,0.34123127008119664,-0.03283401295411088,-4.107615424497945,0.29164142792139147
-12.94394582792007,8.013805876298164,0.9382101647746734,0.8637470451751453,3.600591520327986,2.6210345926118648
4.48674456618309,0.3914461094084456,-0.6397575924046018,0.5647122674397793,-1.4230209791741077,1.8769619626620302
4.740549387860903,-6.183785610933111,-0.07333163745614348,-0.20854879796303025,-2.4969169540893477,-1.9753766844529188
15.627521927504848,-4.117978322051978,1.1878924695721227,-1.1015685826739858,-5.9189829838496495,0.16827290157159602
3.0916276975880335,0.9722317429631786,1.4004685602573113,-0.22364307646085385,0.45622118702707715,0.06162332313062496
-4.832096010819574,0.6547243941086531,1.0199657902012782,0.396149676913639,1.830932982559594,-0.6698084099970452
0.8836967841552248,3.134509999295237,-1.0075293888627992,1.245947923280534,0.5368946209874247,1.6835211590134622
-3.728801518780614,1.9646971062782597,1.5409947851154082,-0.2667175228206221,1.6200165316276063,-0.6195907822845673
3.8535253934331153,1.8671370445161786,-0.5003571629443877,1.0745678085901935,-0.3295832531884815,3.335996863022711
-3.4080361460821553,3.0772443098523867,-0.08249611197048437,0.08921336901693326,2.4301257364530082,1.8306674952857867
6.268822769509262,-7.2088122970196,0.7169857572716787,-0.9435756039521485,-2.127601607524102,-1.9042090712545097
