Gx,Gy,Gz,Ax,Ay,Az
-31.944727000000004,-23.214515,-15.871758999999999,14.258,-703.626,27.290000000000003
-10.676183800220056,-19.341053997673498,-8.69394709397273,-6.11581184963185,3.59374392378965,5.118859253492428
-0.07001537198668473,12.989080354023049,-4.26614051710961,-1.4214491920705286,2.9547140560888563,0.9429831207485244
1.0516552195296422,20.709318097488065,-1.6644529159418409,-2.094748183027669,3.4045308621594583,-3.071127465302373
5.362049771219524,-17.797505904349045,-7.776877927013905,-4.834137474953918,2.7950859660098852,0.9444860879713597
11.30997015848553,7.925973153377087,10.029702846702563,2.5284697110825616,2.280505203083974,0.9327685802141179
-16.684527750976784,50.50461730251443,7.516864408319807,5.772326794585174,2.55761081907193,2.6434131850838494
-4.571906272656337,45.38703003665007,-1.8120103565300105,7.15964231295774,2.4296065328510066,-4.677216841847182
-8.3538180128461,18.857443401906387,-46.38701978558492,30.487371609744194,4.57720677429234,-0.8078761905354206
9.501113473123011,88.40857939582834,-0.956468947184749,-8.885917229369415,4.108579612798714,2.942132428318197
-11.69060341691442,-7.853407943642939,3.8152367969965604,-5.27803448844294,5.940062988292521,3.5068402339573623
17.05336230481486,-36.07463210739725,-8.725494012168431,-4.159095919696162,3.3281250492275456,0.6694269769712671
2.7228623185806935,-12.559029385099127,-13.209150309268459,5.361087853299146,2.8456139295420235,4.535181429134773
27.900987267042602,46.359217570673096,-0.05611286392853376,-1.8574116225481188,10.579564732956992,3.48173814954915
14.603535578927376,19.103732931235044,-2.171188470399377,0.7162664951614283,1.5897442087468638,10.987022087708155
-16.548861474229334,-0.9875492950063367,-6.089848544984873,-7.296977356706913,11.62852313121919,17.492396198859865
-6.385466881630132,-37.65593786343399,16.055400466761128,0.6266055921436653,-10.08176739738024,56.759009018483866
6.7476789483808775,-1.2756162930237664,7.747655944189731,-7.0423687173772205,25.43805936059243,-58.11634760507993
10.481037818605465,-8.45100102499128,-11.108786610585163,0.6411000584374213,-12.980877638300061,-7.010718227249636
2.87815244586566,-4.861714302134159,-0.6225936655916622,-3.2629986790469516,-5.712685680616273,2.3331691966261494
19.128485467562108,-19.444111700420883,-25.53055775711298,-7.514096070294671,-18.557761453179424,-0.3376478251746766
-4.91962796954721,22.66858446234184,-2.1032588081545174,2.8126777389946933,8.267023629875794,-0.9045557695542583
0.7379696378416849,-22.71274772615843,-40.27765141173339,-0.6369103904887236,0.7484841922322281,-5.971182441473351
-19.157291065125385,30.37067519842393,-8.042551483031104,6.842206688572375,14.808786858795104,-3.4163686065837844
-14.74476386945978,9.529393834850158,-39.53265341276819,11.939113418097303,6.587368718751112,-1.9677581136405151
18.788104118757637,7.574628165455976,-8.57101584995685,-14.340975779236672,-14.239031279903696,5.520681586352037
15.558819127800103,9.462752844189632,15.009632968972564,1.6647182746473008,-5.582198626182908,-0.09786518517844733
0.20330663323990872,-36.95861510836964,27.170947669404008,-11.297659399710875,4.198655268477898,-2.5784345670279287
27.696158082572985,-2.7874575470671847,16.539689706169714,5.128037758886316,-3.4146852170455597,-2.9122302306039503
8.889579334689756,26.851274162047357,-5.953655523116452,1.885920712954154,24.530925707779584,-9.996494024967692
40.809896108743075,17.457848870578886,16.4997342346404,0.6130914875284075,11.130916452886513,-10.084119978131378
0.9394573131298858,7.1510438182526785,5.162739832104018,4.512823075912139,12.553928595512684,-12.800179109902517
12.195417927009569,15.543253075817047,24.435682454419037,9.476441418352742,-1.3632742432616374,-4.761754789800715
-22.855217595066726,3.606494471570312,2.4810202388011517,-17.3434236808111,60.329751724848364,37.45374539561756
-7.699480547732433,-7.032533377650224,7.641477224165401,3.2074259717364426,-39.25618755440694,6.681985789879214
-21.87026876788467,10.533932117198546,0.29621141100354387,5.840066213563346,-11.156255959283298,-0.7749076720863499
8.432806592113087,0.5659922869738512,1.229772430150161,0.39087711178219686,-3.757441544007224,1.3352465154185056
-16.542388388036635,3.6839090023717223,-8.268274648310294,1.9478848326690628,16.35980618340958,-1.677024354259661
-17.289582574887763,-1.1278982334733993,-24.694160427925787,3.172364421568971,-5.5974821777054125,6.406936237925457
-7.35359233644076,-8.46376291566951,-12.777771724428206,-6.42640113417298,-4.098490631933023,-2.8183332332101108
0.07156850967762529,4.002469406969337,-4.678933541384332,3.671583079556565,-8.208096241680666,-0.07291665037217238
2.4391358702229815,29.817930558754657,16.757318617363968,19.43403940578343,-5.087920838016554,-1.8943746601438314
18.783577500540275,2.6829120613455535,11.576756875183868,-3.0543333163579427,-14.149475710812663,1.5411197417643134
17.470619066804687,-6.425634647810846,6.484035691612061,-4.441671694388692,6.64830892014899,9.12156760381424
-15.604525648579889,-15.451038603955213,-18.955488541699914,-3.329215817525893,4.5128606149477495,1.697729315255185
1.2479556584842746,-9.286280158317394,-8.500903309347395,-2.7061803342501913,3.4518263018892097,1.1349848325653522
21.497764700622774,-0.9451535433853473,11.312508798570034,4.065798572988232,-3.548606834781028,-4.246082186263903
-18.72187605543509,-0.05344991877002714,5.306107634497668,-1.1102383458305045,17.5286900297442,-4.155150478846648
-17.70891678771572,-4.855968137740767,-4.394171513723473,-2.856935155750195,9.972413874144868,2.6226669668465465
10.500163783054088,-1.8199781615207447,-3.4516636341349853,-0.5441634133361744,18.13521773099614,17.30902380882786
-12.979572515309517,-2.3215025957684583,6.267690258371444,4.001541663021366,-21.9470138557751,-17.982227994684433
4.815448004972018,8.688682294489118,-13.93243451714615,7.3955711389040655,-6.464741669704945,-3.728077620169553
31.953978754008027,-1.563081676722047,-4.247875860068545,0.20942196314432482,-5.764432818124954,1.824662736004722
-20.655554808468196,-1.8804416017980214,-6.022120005679323,2.249185402972642,13.078028177468893,-4.8677182352473425
12.045923766860334,-8.34666143059771,5.904848601745071,0.014914579561968289,-9.99655490557091,-1.2837829815417043
-11.513185180063774,2.8686599106424264,-7.260181257268935,4.120074157694019,2.5674562252470032,-8.681752475689887
26.732434652669497,-1.09017071626727,5.591825625078124,-3.206619643218322,-9.627045268632845,1.2197460620027027
-3.3323305205402254,5.715149906090428,0.7633846655393481,-0.7651237268613169,-0.9736162635698129,-2.292328620410485
4.960998117905264,-15.330588464096422,-16.529562477439043,1.6848043841704918,-7.404491799573379,-3.701712137621528
0.9804072611470105,-4.3126418484228655,-1.671234146613486,-1.599198974016839,1.7472035921308389,1.449784473061277
0.7727682154603892,3.072062740719561,4.7216937485285175,-2.9279446205588133,-10.25631397006691,2.0444143646588206
6.425193145275656,0.5618578936948997,15.078693764585172,-0.2938050050865746,-12.89522911462314,3.5064654718462935
-7.595141313555322,-5.139579565690943,6.033032008666151,-3.5998788508925177,-1.1385444326750633,-4.005770505760913
2.9923375721592906,-2.6418358849258117,-8.298495195650288,1.1686454144067344,11.697553052351367,-3.5036489942459506
-8.719486385242192,-1.1496335008614134,-1.6546247108668581,1.70877462264938,0.28306241618799155,-6.830901557243492
-0.2916357224241235,-2.900191459090452,-6.599675630832254,0.9839194696020617,-12.337103040476743,0.9492154779424333
27.44287936783908,-10.218277811819688,1.741221240327097,-4.100989561010888,-18.55851289528882,14.480580263289214
-16.16366591862188,2.4664178758118442,1.7999602679494306,-0.8940113701846526,4.1309149134982395,3.0873018336723845
-11.462367677105561,1.6042113596806482,3.767704624797778,0.056857754058459165,-6.120720523493541,3.2759061331923522
-2.1640196267454415,3.6162152452124845,-1.4410815296129835,4.166960651225285,-1.4654740465444394,-0.038009195581834465
13.716305372225507,-0.3163769528746485,-4.069688619088784,-3.564618314022332,-6.4148589538947185,4.272503752222313
12.87396458152859,-5.5693342076309635,-2.217100856231706,-2.464551662448981,1.8990158133571429,4.15185898590974
-5.0818801713061506,-2.9315009671248626,-5.010571225407687,-1.4678883739065938,3.2386801549333173,-0.9384690858634863
-3.3801992449765086,8.964067370712996,-6.049986033116215,6.090186077981658,5.522098071736973,-12.476130036336578
6.128205099670556,5.760962091669852,1.161592029380393,7.554476302081202,5.416682809170752,-3.5868276784016855
-18.039575068053203,-5.4866539482180805,-5.334736630782476,1.63447683976095,-2.9701847647827377,-3.219089329745005
-1.0870775879557097,-2.6981828587758194,1.3657332826744888,-2.5306651350093725,-10.579892840370473,0.16457476737421883
-3.59455730178656,3.6646175097059173,2.399616667994562,-3.8426084090294044,-2.960659089362811,4.751888180764703
11.374935791008884,-1.5667912386648029,-1.5076730718287958,2.743450795202102,-2.937249176941421,3.877429949496136
4.93424201009288,-1.2277143866548226,2.0808210487070373,1.875206541955593,0.5308370066806027,2.661770056722517
-5.840268086948317,-0.5769607339099849,-1.6323049642283518,-5.905598514525349,-1.9620284940756747,-6.242937661775505
-6.3222709645527635,0.38164039234944047,-6.505925670392982,-6.466618913565112,0.4332630364385319,-4.4726230946928185
-15.583892250143744,3.337670395144538,0.31373413426458363,-7.274305386060319,-3.7346361249737012,5.749095286545144
21.75338258130872,-1.1920155080587702,-0.3762138068969816,6.546474586890137,3.2550717225299515,-10.735298416302086
8.538128342135781,-1.2931613740093137,0.887977238415889,1.136838835125047,-3.3634867130719552,0.5039567856081995
10.792726233801032,-1.736157057748672,0.3493065415231773,5.435290243124788,-3.7842416926622016,7.6038721981137725
1.4476018914844198,3.630628498116414,-0.5163037666424528,-2.413328183636656,-3.355186697774437,5.420307227008303
-2.1087277703167446,-0.6455192772449863,-0.9892504206001056,-1.7129642896069044,3.015782145586156,-1.9374128012412344
24.152696685373694,-10.002814677305572,-6.343799627721464,-3.3603935107201095,-2.665099570079076,1.5772876549555304
24.686600422679774,-7.042698704495997,-2.236765287747623,0.6664283588735007,-3.068886131931366,5.003200379273456
3.5808330116109905,-1.0631025456648282,1.7195660244698119,2.804811093981769,-0.11283133534468326,-0.19159066653622148
-7.600635246423309,2.399646180389581,-1.951558100500941,-8.943457854727745,-4.051727149097388,-2.537536753120405
-4.781824744217043,4.973167156587628,0.4716957737843277,1.1699581856655312,1.6384011936426164,-7.332998397281385
-6.411418737562103,2.6280218116092815,-0.8699495575114957,2.788473171098979,1.0667974445302806,-0.46692423553618745
10.55494106341277,-2.482655853077093,-4.474957036270304,1.5517709198643572,0.37324554242706787,2.4478633619925554
-3.383015949363784,0.9836215735177172,0.5783935492546655,0.01737147320274829,0.5884103077111296,-0.9701243200764345
12.831260190054667,5.652805713128063,3.903568105634449,-2.6255493254214555,-1.4149193960777346,-6.6883808793639545
2.995216587865169,-1.6242343735636515,-0.5029177277059853,0.5852707997038932,0.18852210537528236,0.3587034034002736
-14.383656665239686,-1.5566511362945485,-2.8292859689700527,0.07783198970130345,4.590947948748909,-3.5468603923072974
27.597548060517852,-8.476669318569435,-3.1894381214136605,1.9827878722101202,-6.699284354981704,8.598520354612022
-17.475011775815606,8.627454261853464,-0.16193936911376117,-4.6946751689149,2.6369726854701696,-2.3953093800058873
-16.721574663444883,8.609521607058182,3.4354421672334174,1.4133086609440335,0.32803533672511564,0.6692453632887543
-7.0655495949916265,6.587993534366699,3.037243348643229,-0.04738754571319009,0.40596732191723817,-1.3103085844683
0.6783723084118636,-2.4068479254462245,3.4301047190171055,-3.0011251647839163,-1.948611551831721,4.53868916311185
5.114082037571219,-1.9552721878937738,-3.6683575671509447,-4.041053370104432,-5.522075621303505,10.68501596761156
-0.34398795885658107,-0.8336560063358227,2.0282886999949294,1.7843390705929987,0.27915646462082294,2.147995275766217
-1.6203175462445945,-2.1511323155476236,0.2734114771662477,1.4590677673724597,1.7687873448577656,-6.794328398002273
8.366884537898589,0.22545626312014755,-0.3056172262212271,-0.06573737037315697,-0.4464285524844361,-4.190819923786413
13.92439839389889,-7.442302042452976,-4.155596250848587,2.592487893898222,-1.7902101017869028,-0.9110418438759664
-0.04083316440356066,-0.9824625968971514,-1.55557586219318,1.6240553684260344,-0.7785070168614945,-0.6584983216828689
1.765287159891696,-0.6610548208029177,-0.2746115061154184,-0.4830428497287569,-0.9876047371196348,3.0368487462913567
6.656051011684376,-0.8138637735940972,-1.3218351113758506,2.235466889393565,-3.8756649121815325,2.293853207260902
18.06503810963962,-6.586164765663114,-0.7215820292028812,2.522100729410133,-2.151839235560059,1.2647392323960043
-10.625362019593496,3.449276803430336,-3.167251736639913,-0.48696624232833274,3.9754374388398928,-3.2363395656404945
-3.785027356628824,2.1682048259567,-3.3988656010239175,-0.721477449159133,4.8903677397898315,-7.009263445521707
-2.1633773740903166,1.1362135299590737,-0.7349134437699899,-2.2005662152917203,0.33343760088403007,1.8344185568778628
-4.732014062355756,0.08747657264515107,-0.5670648020914789,0.8758560856293931,7.674854422605371,-15.706082720671803
-1.6792448147605956,-2.290957618265054,-0.017219966824645577,2.7649933462656917,-0.2555024839943616,-2.1296198288033796
5.855830821063384,1.2697701254353553,1.3142644903564296,-0.9082710971650552,-2.542468169330067,-0.37799571626233597
-8.225788799197682,3.193489292609029,0.2367995993034775,-1.5305564797451625,0.20928566085520203,-1.0756180398422415
-6.978930706464302,5.030607797509164,-1.0145347681022603,-1.9199808894588506,0.5014693123683827,-0.8202123140136335
7.951855199536186,-4.263556384938266,-0.8653129329061291,2.9511964308056005,-0.44786621037177243,-1.6012824583717227
13.731955991110539,1.5320720920559998,-3.3418831914607097,-1.9559546557142677,-3.4734828421517645,3.381251562827902
6.356891502468446,-0.7232214837744024,1.494979304469111,-1.2752945684310961,-3.614046640624605,5.471339702635722
-8.001615444366436,4.568427851011215,-0.76458385810722,-2.7245508056451935,0.37622483461912903,-1.0328214824717166
-5.6328560169901785,1.9687271414837642,1.0427223273939719,0.43286336066837927,1.2464511336963935,-3.818092550925443
-1.3547220308540915,2.2165418363851637,-0.14803672621927078,0.5828973168356506,-1.7963741596503215,-0.8867673279549442
10.038548403860267,-2.916185814938717,-2.9958581865411196,1.0209791068300325,-4.455884365064286,3.0915978138332028
6.086270396569187,0.8877699226275735,-0.08215784332690612,1.009004718516122,-1.1811274582650504,2.176149040720737
0.3289438803740161,1.5055760412012926,0.09482601276194513,-1.6664881583021396,2.1898497337729674,-2.912616729092428
12.904320917737802,-4.104322573959617,-0.5041390468010614,0.013615140921296787,-2.3747037448891675,2.4585256566287814
2.296638251585763,-2.0687692108123423,-2.021769957369994,0.42180266262175103,-1.6690881884332442,2.2573134600404208
19.37585752083059,-7.461324713701282,-1.9305959408595164,2.13172029937098,-3.853922116581738,0.6824734856974131
-5.1419807023558315,4.003264561282377,-0.21081512162014127,-0.4825249875508666,0.7115952532004357,-1.5680303803461637
-1.1756106962729476,4.143901872756203,-1.3228728817508724,-0.3474983748122389,-0.08713663402360616,-2.8144188154885112
-4.660871572637228,2.0380602616943215,-1.4477545681612964,0.0293038964845187,1.9455708246694803,-2.846571912782953
-0.6183202632892844,-0.269410932668538,-0.2016361861420477,-0.3090501485054131,0.13684761239471993,-0.9736669963782427
4.495341332636271,-2.2324512773443854,-0.6634998581637328,-0.15476413660898036,-2.1089150696084493,4.329796345651545
-5.097200179298213,5.9804976484131025,1.5843230124140733,-2.2949027090892087,1.1318411654389418,0.7146683445646622
-6.731923807840611,-1.0513963764278045,-0.2541858405840687,0.04067773028555527,2.9520968233593443,-2.158121769258474
1.3847877579923082,3.392197462492308,-1.3247495411281982,-0.8955185471849552,1.6666532089799384,-5.360268417382252
4.18404343007096,-4.073006661308319,-1.2118385441619508,1.6591735063665252,-1.2542753452405888,-1.3201397973066984
-2.230846208472584,-0.007094891828402616,-1.3075616460336006,-0.4950487560439649,-2.246656634003323,1.2179496056352912
-1.379005093526514,0.759487157025621,0.40018266659616714,-0.004882647131348672,-0.9827829687317613,0.41794176253622006
-2.641268715847497,-0.9676507690693976,-1.1275074964272132,0.4908895287571706,-0.6583182535887317,0.20020855259593506
4.942292955977154,0.7352053256270152,0.6199615518967625,0.17638133285799418,-1.5726052306412834,1.101393249127879
-1.723822887369403,-0.4685843077115588,0.19730081191598403,0.6917102655830984,-3.542703508379306,4.435697014744658
-1.4118830516369236,-0.5773625563981442,-1.8755585429541073,-0.11487525017429934,0.4396814073424,-1.7546922599379173
5.357218722687032,2.5638127301837224,-0.6563949844417454,0.14087329124470196,-1.852393618783316,2.9006902521166227
-0.6716304579451622,-1.2148239307476625,0.17660257514633138,-0.39721886732339096,2.968814784816688,-4.491871707851946
2.7468878599873667,-1.6072168587871458,-0.06456425477896577,-0.08388932194919674,-0.7531837393834913,0.779469340135762
2.568025119058225,-2.4871124813583343,-0.34391465846025837,0.7449994768725006,0.16952263079006258,-0.6295236812477327
0.4080409211038347,0.2574559287044327,-0.02615845157887353,0.6210305796238402,0.3445759120750438,-1.9956533466933752
-1.2787354282699361,0.9931473671022859,-0.015425455986576964,-0.1638458691197524,0.529565293217777,-0.9132782446725543
3.4481673847761805,-0.4618014442672217,-0.39086248160216464,-0.17553109508153542,1.2972617231546608,-3.4662057666225903
6.386651292813832,-1.7321743108145018,-0.3146941914750139,0.6498681204830548,-1.4507176105941142,0.14236813090814826
6.640398383617249,-0.8089229481089468,-1.6145499274335808,0.31573967285636306,-1.7561141735943915,0.7932361056147639
-1.4919073714458664,-0.31661806023210337,-0.5655873216116847,0.7971414329201714,-0.16215012084089642,-0.04609431412399623
-3.8724565307572636,1.401814478531894,-0.622643566729935,-1.4410146867960085,1.955004829217069,-3.2091973789913792
-1.4578678677812305,-0.46931413505580544,0.26826026914274337,-0.30235392134857264,1.0523747414844977,-2.8003544689420696
1.2851144428813983,0.9491718742615511,-0.37459543957798624,0.4746597034357558,-0.11339888914576779,-1.9941033619960087
1.3680370316922121,-1.0805770294587629,0.258278401028444,0.5135892801051418,-1.413642319152327,-0.512894282005594
-2.2856494417215503,0.7630080203329621,-0.5050979415756292,-0.43469083671754727,0.9267356355140262,-2.3166292714172614
3.5287925505919784,-0.5217250717298705,-0.591472350841975,-0.5437825777854652,-0.057355190952684154,-1.3073303712782256
0.20141868766838922,0.13619023630795468,0.4210861093831207,-0.263840497849425,-1.0526227064032665,2.956183591900521
4.416044777534307,-1.1813623499282828,-0.6995523818708517,0.6951979707371794,-0.4193333873057048,-0.015675234008882266
-1.5921481928006815,1.5257576405376168,-0.42886287551141855,0.12521302197985462,-1.1891010928646004,2.902507296100118
-0.5414729909915277,1.7201845819857113,0.7491679036180365,-0.5036780557664713,0.1780189098328222,-1.7941315465411307
0.6930733581575774,-1.2134681359463606,-1.0966154747464554,0.9271429902048416,-0.8220860349820457,-0.1288634009087244
-1.3538082995716605,0.05554155179896236,-0.22768973538767767,0.06443154622998648,-0.6613383086931446,-0.48631958695432864
2.7640561251239184,-0.888351318873772,-0.39857203451290424,0.4231367752127493,-2.014727892496425,2.077488986481516
-0.5695080866630979,2.8563566380618575,0.9295287528068306,-0.3574441092623911,-1.2768933407623173,1.8227092772576263
0.04822204099696492,0.13867259951791966,-1.2155923962555333,-0.39490460651940884,0.5721342654846298,-0.09286911564592537
3.2159410916484292,-1.147398616898446,-1.1039746933630799,-0.5565807425316516,0.6666055753934153,-1.7926628031967742
4.177536994013282,0.0233007441319808,-1.1393626949877422,-0.5318038901492084,0.3632269041582026,-1.2092037360792185
