Gx,Gy,Gz,Ax,Ay,Az
-7.647421000000002,-5.167126999999999,-0.2133290000000021,37.98800000000002,-539.38,-76.236
-6.818269837748209,0.3358697693668159,0.06121323401597678,-1.847867650152539,0.6046052931989131,4.419900134145211
-7.022194536863274,4.611052471752224,-1.1320383030932426,-3.0885906551813544,-0.2718213042607419,6.819716833999809
5.357990835166473,-0.6431339357911564,-2.0063148521775824,-2.817789565022865,0.3891807023224222,1.2481540229035473
-7.781351531602459,-3.4600672993808734,-2.2999948857157744,-2.235863362938419,-0.21458323019278858,2.9453167182984323
7.135440890900607,21.403641030512503,-24.420473573724045,15.51649727991579,-2.4132500108965047,3.9258616228923104
1.2729230319030882,-0.19533804030098212,-3.4116446397831597,-0.4046373225785167,-0.5600313206819423,3.5369384636490975
-2.562387681133322,9.616053819375022,-1.6258369948411246,0.19046696886820624,-0.5129804306893581,6.386236383875051
-3.625926631879263,9.942644957343381,0.7396516178697397,-0.5084532270005497,-3.9543407190482025,6.416721712471325
0.38020981445998236,3.573375166259412,-0.3120797589524458,-0.3764852017254078,-11.298136078446802,13.577709550859279
-15.264588031979073,19.98492730613131,-11.572828859770762,-2.34375560675884,26.005090688076294,-36.45553937991588
1.5890041220445044,-5.573569692377396,-6.900358177126277,-1.2862637753389103,0.5946972020859866,-5.049811451787109
-2.207030377103987,0.3486264930823628,-4.240912350704868,0.590726276857402,-1.0258981304271746,-2.5035243473514326
4.79960082230371,9.102055666998877,-11.125359777722881,-0.8738644524692658,-1.0327634297354482,-2.0722518145348774
5.373939611910991,18.951876413217935,-38.03679035708939,0.9812123056586095,-0.8448477031746471,-1.6545261681869654
-10.298650037534568,-22.14953822058393,60.24539582518439,-2.524156266182455,0.4797480887273693,-0.3417301806219877
-3.2552456006247583,-10.467232508371048,15.4410885207749,-2.161792559009707,1.8964480943003323,0.03779634012527566
1.6750745001897682,-2.335326813470054,9.126128299169896,-2.151677348647455,-2.7708707407647237,1.0302854230588836
-3.2390003988660943,-9.390003491521906,8.589319421951064,-2.991967231242702,1.7403497509570478,-4.466207040019777
-6.540328008019671,-15.297633800763894,13.054924425159633,-2.114321148120886,2.245808019272527,-14.119727327762009
6.829315668149378,4.049738718112465,-3.7941404171612763,-1.01863053403326,-2.4144332359533554,11.978121271646003
3.7839714478288533,-0.4562926991082037,0.20776367317344846,-3.669287309006152,-2.4003094047421336,1.8603982963958838
5.7317403213858515,-8.274664925069576,-0.32021089921162016,-5.087188537970188,-3.3006138021895537,-3.3412400907502855
-0.3132581844307738,-1.9756831247750097,7.355688223420472,-2.7346689102170156,-2.1204479699572825,-1.0600253693851915
-7.39350217370157,20.378148736991132,16.207169394140475,2.0599394256318524,-1.3201736131912654,-1.7553356343178343
6.838763019243219,0.7066052556496576,-11.268054495759127,1.2668255340308252,-2.152389119961056,-0.293548288353901
1.1628103407075492,-2.4102150396224102,-6.040514898066078,-0.6218021354372167,-1.4987355192565197,-2.1747253113683036
-1.5656027335324536,-0.4049855169546598,1.807917679293344,4.085943796433102,-1.760732286181887,-3.330928969889859
-1.947334713955307,-2.733303299176505,-0.647271801055525,-0.7050775673205436,-3.7453231251952595,-4.051050085130512
0.6274708181116626,1.7466817577465328,-6.802277571503322,-3.6124367517658786,-7.49927445640914,-8.001364757295281
1.587602526632406,4.143016890858672,1.3650362062142611,1.630915400814275,-0.42193018794515136,1.945275266744142
2.7551081305670193,5.1636572842031745,3.5380607195112876,1.4125566724432483,-1.188180382610998,-0.03555619175997582
-1.1242842335937322,5.609408929174234,7.84951140205219,6.0592520303743385,1.3510299758073518,3.5206305166730347
-2.4594163621514857,10.343667045742,-0.546617246949253,7.6973067514756455,-0.22853439213164256,1.4503676272611967
-14.123108815849738,9.713487396706793,-6.668930051634188,9.805581594342168,1.9131216840847933,0.17894193486162446
2.331337821203606,2.503108161021987,5.5378758486918604,2.3775097622326173,0.16498398887304022,2.409831861361857
2.206052857899178,-0.16196711896229843,2.7978992045971687,3.112484195589699,-2.150794634981004,0.9263476540023681
3.915071676806776,2.5776963028678743,-4.6715029137242725,-5.567453296097952,1.310672929736882,-1.35592872242784
3.3434449662882226,2.1929266838412165,-2.0418430014481297,0.8477355149553683,1.1624091829059704,0.6573045256449892
-13.33856999195552,12.25975595664779,8.412985077282567,8.016528732560591,8.621514961911732,7.622903528359165
5.336344707983848,6.01636925309133,-4.692949230231915,-0.5820042070419789,-2.2369357825065723,-2.370174592295992
-0.17493931070815005,7.396679441598424,-2.02692840653711,1.7995711887541042,2.996810917872101,-1.6581234317216218
7.023355287807773,-2.6222877726153326,-5.668060043996692,-5.491200204660045,-5.847089943218657,-0.6929857307607024
2.4372548832597123,-3.2069517899177287,1.5336903713279721,-2.6055614228193,-3.616928717033424,-0.05566861991463057
-3.1737220019003827,-8.241066033511991,-4.6375146333622315,-8.310721517104499,4.99080007474935,0.17591699821543427
0.6716007449581466,-0.027896247475902358,-1.5498762398687649,1.1373609385175967,-0.22794728297948708,-0.5573279848399444
3.7027905546564686,0.8759122765824499,-2.5499206810764514,-5.096710078613617,2.5930829818838474,-1.215649471903264
1.9468756648449133,0.38380547105378815,5.206753409657827,5.807907586405728,3.28279628551682,2.0817905249261686
-2.2351310875413106,4.7839494382069585,7.4065396799042365,6.084685680403711,7.785733761749402,0.7764139528274727
2.2567595162457748,-9.085404507890178,-3.1789592804104947,-6.023529776315444,-21.733286854672087,1.2378320972770078
-2.1399659375845763,-1.4402818929472114,7.832284339699716,3.376332487968857,0.9136546117784272,-0.40813978302504705
-3.3472469263790603,-3.3539832742647184,10.358113210358333,4.130622670462135,-3.6190198205309807,2.598193815010755
-6.331400320592124,-0.013673430327582503,4.027886912802084,2.4187006556178825,8.541681748335089,-0.005897493642476714
-2.466537561016569,0.0035899844972655526,1.1555652716904907,0.6778235844866658,7.680768810883187,0.20378737555815185
1.0196785378617113,4.600313241168061,4.048725854690466,5.558192541362339,-0.5555607414408972,-0.3261347253775068
-1.7162331044155952,0.6664725136855525,0.9489663353524223,-0.3476621888313818,5.258931211126637,-0.9631100187031816
-5.768142299073849,3.201862993751053,0.6842031090765204,2.7124630453895273,6.003597375511525,-1.3386316622018355
-2.108081207397754,-0.9798419760056101,-2.6591179451919182,-2.831476048068268,2.32579365805072,-0.8016252017644833
-4.361387006817947,-3.246342509394692,0.7131520691602293,-2.1856216367113106,-5.491255873142427,0.8656454844879287
-0.731611437902014,1.5325751865938608,1.8948952242090824,1.9252231499449268,13.337346770996593,-3.103784185155788
-0.8249965843627834,-0.6541893026498762,-0.9083285833194408,0.15684526017312006,2.2739876137827615,0.3255232014592764
0.20206228069111581,-0.9201626431900265,-9.01452558461316,-2.1055834309137267,5.519252440824699,-0.9982202037671895
3.6240602039258225,-0.13347065002055358,-2.3412239726471675,-0.06316208438758775,-3.195260079014406,1.0221481772409844
2.650828774363553,2.4356601350669767,-4.181593544082539,-3.1639818398269757,-2.708714481154256,0.4447053118256451
-5.128818609702163,-3.4422991921772437,3.3181424980980285,1.517291302092247,2.2237310883988695,-0.6994596634307337
-2.0807027409240004,-0.5613895846734385,1.0889406767929453,0.5388932652188474,-0.8244140978507435,0.4143654317990648
1.379064474440135,-2.490617433940669,2.325753932094553,-0.9267819808064564,-6.947632448008666,2.8647004664083164
2.187113404143818,0.0021105654164799703,1.810270224098324,0.7168223463321216,-4.777514521556748,0.9174183023867605
5.237793444048965,1.2428583668926176,-0.5575959236562857,0.7240198201850734,-1.4828499457008189,2.243009266055369
-4.394261379664934,-0.6932649728866722,0.056715288677811726,-1.8362622320684174,-1.3424023961279954,-0.34516034172344934
0.3011331919158994,1.986807597489856,-2.1093300457358826,-0.7746028686567935,-0.6705376045064959,-0.8233395356680866
-1.7567079734583115,2.001487233753163,0.9903955358247238,-0.7538084133084134,-0.527322810711093,-1.8024996539414166
-0.3193337549522709,1.0757866264138434,-0.7068373310046128,-1.997351861962758,1.209465618309384,-1.4261826408802123
-1.1307959387630975,-2.03807236840488,5.730608482514453,1.539693561280536,2.0007876907449047,1.7489831779644598
0.7613761676175761,0.9456391787860059,-3.8911055490453075,-2.5681065729040853,-0.3697386937783144,0.14586143702463095
2.3283194396601012,0.9605558154906713,-1.629461377016026,-1.2324359275692078,-0.8399838022529267,1.4294934244864907
1.4270488437865196,0.8240292951595618,-2.0027835068830133,-0.7006579884012603,2.4190131246940902,-0.6183551858537777
4.1048422908292395,0.16215925179973145,-2.0869182644215813,-0.5173245768360162,-1.0594718521074455,1.414221365505427
-2.5306579486251266,-0.31140097067452593,-1.0833401146536086,-0.6904670753303913,3.948187666092589,-0.3209253120011943
2.949884375763357,0.4130879094737385,-1.3339540911595393,-0.6054419834650888,-3.563769445666792,1.6074198994584734
1.988158480754065,0.2658833866296957,-0.0901852377618082,-0.5943615365059245,-1.930533324779919,-0.20601687543893576
-0.062419900424539154,-0.04182312989893086,0.3734216882397988,-0.12988995457447713,-0.3466036779869288,0.7688294969714164
-1.3023018464574467,-0.6717521617939006,0.6232041615595323,-0.24313130314802367,-1.6239186508591936,1.2739417504225228
3.8296261301953254,2.141233808678103,0.0777722595165502,-0.031170090959278696,-2.2047889476884035,0.9131014702879562
-0.40028261981360747,-0.4826181766595238,-0.2006323430452681,0.03312138565159772,-1.3807471331953423,0.7852089325076737
-3.8150464831686466,-0.8349906348205801,-1.8552141375548623,-0.9765052048190693,1.3729491527854822,-0.7672401092900194
-0.9344202684073726,-0.8625143898398066,0.8980887090332698,-1.2007952218388427,-1.2532379528317044,0.8714409631902118
-0.3233597224503466,0.19656922324205514,-0.45213246927278405,-1.6373603537653711,-0.7969435720094487,0.22126916795816753
1.3938605829426547,1.7823757232275366,1.126405764300965,0.23611417940474344,-1.105136005805778,-0.7357027326743883
-0.4342070874187734,-0.6095390055812311,-0.556624460338988,-1.1154555088228983,-0.1159272740303357,1.4064377025800685
0.894536320569209,-1.1160658956798128,-0.21983137266141484,-0.3674727243318088,0.9654430731501318,1.4402512873369502
-1.029934336535441,0.6123222671940534,-0.4871437807514981,-1.4002764998443762,-0.4202852732542042,0.9166080299067946
0.8447203033293573,0.17496262241792482,-1.0579337250329361,-0.6243021385290706,-0.6228929381955357,-0.20734146590319358
-1.80388331438335,-0.6674484553165183,-0.871310244207935,-1.8868530770201262,1.5024303951362086,-1.0115743309026257
-0.457914588748206,-0.43824383763188685,-0.8663242285203513,-0.38661987356641364,-0.13017375014334664,-0.24186026288994578
1.233470215453095,1.1123236932998797,1.0803962326346843,-0.2671665562541252,-2.0013915565473352,2.037714868718234
-2.055421956549668,0.5563380429595584,-0.5727233310127933,-0.2819245771275545,0.3195790945914343,-0.6390588654955498
2.7755034816750292,0.7252066440357259,0.5901222830372894,0.3844467529853899,-1.2274346806940308,-0.2053730848542954
-2.8702253424876103,-0.34470888292719887,-2.0839909012597464,-1.2808236169052443,-0.9751366804685542,1.344057102182207
1.1015180577600043,0.4974419518941627,-0.5464225503887925,0.0663891614229043,-0.4717507887193664,-0.2536383319157945
0.05216508142886195,0.0034869806204861353,0.17456367684308405,-0.5554748859449318,-0.02596488849499945,-2.233492041814908
1.8713756259233354,-0.022892700113867792,-0.1366325693671853,0.4284304667305661,-0.7055473112355803,0.271594639907084
-1.7767914586018814,0.35876177975467677,-0.09670760754513652,-0.2995180845836557,1.7509951639485482,-0.4676657248362872
1.9091376883725886,0.1323355503669188,-0.17381518192433482,-0.02256839528846208,-2.780163497128217,3.0984688965303286
0.8218868472552727,1.174249826184512,0.22982279116291193,-0.2182456527758252,0.9042987758709318,1.186956053467273
2.0582987812696194,0.009682281669324388,0.08922178297937994,-0.7207099151448925,0.25579974027921426,-0.041825553287919925
0.8874865581438384,0.535041452601372,-0.6591322515688176,-0.5251965924463469,0.4392010838180971,1.4096901305868808
-4.147200545156501,0.13256399587955095,-0.7693884927382422,-0.9663953971844665,1.4096956239505363,-0.13218982591924644
1.8050253741268807,-0.1606938251281792,0.4220023538483004,-0.35617508417662,-0.7965898969300733,1.7595160917134816
-1.6257145023985753,-0.3217110947830074,0.9272897574664092,-0.9105234605769422,0.05261000123949211,0.552404167159874
-3.622138373809965,0.7624211295916424,-0.6899171153971622,-0.047141549996773086,0.17184292271282647,1.5738923421020397
-3.0969742308053467,0.7165190975483154,0.025129358407202623,-0.5397004552743112,0.7366515444101194,0.3861604325268977
-0.3910101456548887,-0.3911134555495288,-0.8548002401818328,-1.402286327780331,-1.4997941195895583,0.9558604821185401
-1.0025790161395507,-0.29698579687256554,0.363233015809586,-0.12129321029038542,1.0296810634206832,-0.980381761853119
-0.09748832118203499,-0.14821704084511406,0.03591229300048698,-0.44909491476862207,-0.5025431852705103,-0.5666678444000839
-2.5406576323413885,0.699964184605619,-0.07881286780863794,-0.7577198350027772,0.1129757968999488,0.5664556952316594
-0.73875777209245,-0.4005845353801508,0.8707184029176404,-0.8652316827346995,-0.9767019920031159,0.7735097818526545
0.7901171022298813,-0.365857028222383,0.17778755096223953,-1.163863660329627,-2.0603925870270743,2.072083929419269
-0.07319551712923392,0.3183633185057843,0.2412529764586929,-0.27450681453881953,0.6668937605105872,-0.47343083118204254
0.5865228458382952,1.1846239693815368,0.30434723654438,0.033657545968565766,-0.03946982146741107,0.6189445568122012
1.4976365335060267,-1.4624529221035532,0.5292233341213008,-0.7078529505788345,-1.4688380754713584,0.9937466316067615
0.6625456234089926,-0.9650134749631947,-0.27131756089321757,-0.6553030658448816,-0.8056970818799725,0.8662062590087825
0.3125017880122819,-0.2175128200052514,0.389240472920364,0.3464119564258361,-0.711043321542833,1.4837165893694049
0.15672859745539613,0.4819899523534776,-0.6330890102276243,-0.45629018734194393,-0.44370104297103596,0.7382944833415644
-0.2794383115626783,1.0211021321204705,-0.6631384959693996,-0.6557253015744033,0.21699116566280985,0.8809540824819434
-0.10426304557943378,0.05741989742630044,-0.06307724861164382,0.013730016803961187,0.3586291208363176,-0.2466006814874112
-1.0527848752692148,0.6056689392389091,-0.11175232150348949,-0.1779289027839405,0.3318463533349046,0.8173978308486154
0.20580495432103252,0.5848855104158444,-0.33572061284925914,0.2749831245086473,1.4863297352418097,-0.5497709018183031
-1.2608657125950247,0.28436493251658906,0.15965510154074564,-0.47084289145146896,-0.38829818247856984,1.131793645772671
-1.7542595840381492,-0.31777058235822886,-0.11774068101259055,-0.6494127543379664,-0.7289788877952106,1.3149027075460693
0.46633245149841024,0.5356242167764513,0.2261788120421857,-0.6568661417942834,0.5859814780478976,0.45775844572878754
-0.4036466163527229,0.3934696881898633,0.158376502177417,-0.5904896581437304,-0.14561270099629442,0.5381262630921957
-0.2368472157076597,0.894015068827606,-0.14397518419939753,-0.7352414404736297,0.6932292148009109,-0.6279447089039915
-0.0018211952495449657,-0.00026830765042762383,-0.4113170746854266,-0.8069858286170987,-0.1104066253470685,0.4455324289250743
-1.4377181186085262,-0.34684572296036353,0.030308366947377208,-0.35536912095427664,-0.00355705230226655,0.38650183237551106
0.5368945303662847,0.11032202678301731,0.7152372149842986,-0.39524216694040337,-0.5889328725616929,0.8374953658144407
-0.0024432894592400223,-0.3592570609217304,-0.11161971172084495,-0.5601248306768696,-0.3057411703476465,1.0114689595003918
