Gx,Gy,Gz,Ax,Ay,Az
-19.400338999999995,2.134215,-8.446807999999997,40.214000000000006,-606.75,55.636
-9.43367519032944,14.365570599726716,-2.655083922210213,2.8982115635637298,1.5429409257273823,4.635869066148348
-4.125921332641794,13.661819831320887,-1.8027715622595222,2.8976885803460775,1.979248612466435,2.4528771395135935
0.5507184528496849,7.990925294797843,-1.7397724462411643,3.4163971570900746,1.8622864606123408,2.5018999768707046
-2.37971774616776,16.477382063162874,-3.5208993435983658,-0.09377114042015644,0.5820394991273323,1.3352952883823175
3.9284718015660482,46.486743543774054,-6.449459646672579,0.8018713976234199,-0.3644483216394163,1.2458176386094415
13.626457601022038,-2.9989362614770174,-7.123622664763668,-2.254043650699001,3.907046772651851,3.3380442201034763
2.4223459670608674,-7.66643125185973,-6.449685040578989,-0.8848175837483875,2.826016368337609,3.7481792378194805
15.641021028843387,-1.3277185321252936,-3.629469339987633,-1.6929204200420571,6.824591375413603,8.110528757710139
11.369061167989598,-0.32472040347921527,0.1400712876646779,-1.7779956521512479,1.7598811926712368,12.663811244005577
9.143805912188048,22.419225503117328,-6.6911065817403195,0.2808839261740756,3.901943326118138,34.30064316700485
-13.605283810125165,-2.1505891806612323,4.257109043583275,1.5191106482435512,2.8215299358929626,-33.63052451897631
-7.773868071025879,-10.5484749904387,-2.6528197492150443,-0.07235936490543637,2.062527183905472,-8.844492703070767
-3.5746188460272332,5.592750966024994,-3.8607886149557284,0.39088811087907777,-5.415141416106922,-3.887196745848822
-5.775745336136245,3.16092628876254,-5.96448107615593,1.7952823809625489,-2.6496229839566716,-4.084330644627033
-7.160287378425263,-25.747614826253773,1.53751841325786,1.170830057580174,-5.486101940778706,-2.7479823052327284
-3.9157814169677145,73.34077705462391,-12.631409473777145,8.543238703309846,6.510761968699574,-0.9494949749137764
0.09146793174320411,8.39727671738708,4.655506944892737,0.6315143096390294,-0.3959596114260535,-3.339638723746525
-1.578890036549096,-5.165652000954632,5.092488005343009,-1.9656905791573673,2.349692225499921,-0.5408946182704177
2.1706852206654386,-2.2407666803721598,4.852996276929148,-1.6827980045322743,-2.2177219534045047,4.252900065785207
0.2516190416906836,-4.321765198048611,6.164334221623925,-2.7141533593916107,-5.372149716559027,1.594466088928896
-21.700114626925505,10.55815747777001,-2.9620352464351414,-0.4171891976081026,-22.740807970928863,9.036945877104475
7.142333088665175,3.979035078430056,4.842734193919202,-0.6190666542400526,1.8691533956400446,4.508556541261393
1.1095703587915655,-6.838005556367342,-0.13177364212012987,0.525283812210125,-2.0968809276299565,2.9776444051340367
0.3693764408819049,-6.5478277415539825,1.526164227971385,-5.435732093504997,-4.6967763346974944,0.08503494785670695
-1.3791713109199484,-6.822535600861051,-1.3652657251948563,-3.406976320237227,0.9702405561006293,-1.2989370243897824
-1.8527280238125718,22.971709916162407,-1.420464107379343,-25.199728201114652,-0.9849529049230697,-3.30993777236722
2.517092823183888,-20.34969039673416,0.4488233153351464,3.0570527822583426,-2.444419464630047,-1.0069316674474282
0.6235789363190041,-6.943132129244885,0.637952103571064,-7.159917062165459,-0.6860593435837572,-0.6174895425745435
-3.2910421870672053,12.399250778205005,1.8033864772252843,0.7154486688392316,5.19765174687984,2.4493965506920476
1.4197963445674961,-1.7243665829507488,-1.8319424769760495,3.9486126725290003,8.248574002227588,4.615189532875814
-10.667917704450943,0.5364346577079364,-6.114982860976507,-2.406271201196733,19.526506059329172,3.5653508158139218
4.2945713875473475,-18.040574585488294,2.11212356453891,-2.4881729875421272,-20.701581523913042,-12.177640527989382
3.3672378451507416,-5.934359213195736,0.701162401720629,1.247884468314179,-5.044027038389126,-1.2748621300593261
7.08834873639819,-13.482234587165006,0.9115103878772517,-4.137113697909536,-7.184237392931237,0.39816065858322647
3.3190108579031605,-11.156824108357526,-2.1638018584583656,-0.9817186749423803,-5.116822234360816,0.13532879651132212
3.0364329450974923,-10.576011836894132,-6.4357136000331705,-9.438713787385378,0.23254641775147356,-1.3046359464607642
-4.3077236198414175,10.84765434482727,3.863279853524767,18.107849778035074,6.142662146980561,-2.307318396497788
-3.3102738296416208,-7.129519288910405,-1.8512737115096671,-0.8278079586328374,-0.38643847124792763,-2.1545401825207193
-2.690531865217343,3.894345457519131,-0.5813375500189015,0.14832703979256365,0.18261817067017816,-0.4331332775294563
0.7531246628179993,-2.304090100988013,2.456259351437735,2.6304236930041727,2.3032371933044087,0.019468707140017583
-2.569251734528015,-6.022281927722554,0.5862637410214806,-0.9342886200971099,-2.770952089363755,-1.5126500656432105
14.461888909278546,3.5869389844322903,1.642174494713183,4.345801797100438,-23.286923889136084,6.429649954047142
-6.4852822247570945,-2.499672355317532,0.8097289117646834,-4.097488024830033,5.808834870817307,1.664202351228007
-2.711105486523615,-0.9876423542477896,4.602446787470817,2.1447767853525734,3.2680940480461413,0.7747617072472812
-2.3296352106497835,0.5716315508933518,3.1283601646540786,0.11614487856152203,-1.3822745756515789,0.7666827489066597
-0.6943385413611693,3.145715644622251,-0.7458255567383639,-1.2299547808892852,1.0898233905861119,-0.19358771819891574
1.0427426704616047,20.88906645534237,10.507202976101677,10.803717332336129,2.5484912649844222,-0.2940523192925595
-2.372434468167379,-0.9538510385758192,-6.01303137966537,-2.645884789786698,1.0904241828346726,-1.3660028847930625
2.944225715411447,2.755676440846969,-3.0908752330306086,-2.5365260883463367,1.3003763344342514,0.9932338103177746
-2.281107750858302,0.7742396529946554,-1.4001842799807125,2.099007705606351,5.335731738387084,-1.859472028448508
-0.1682740678206922,1.4820948076411073,-2.8001092124973748,-1.2109157464256564,-3.839118251809499,0.1801612492473642
-8.070139095478497,0.4301990626583354,-0.647065418942336,-3.16579037881882,4.61130663910223,-3.251267137059875
6.612636113827907,-1.0002597315164268,-4.723098990324218,-2.8527408839142105,8.633096431003422,-2.4128124880010757
-1.6834523214661172,-2.0239996628730954,-1.4452656984874352,-3.5863652729533566,3.152875399102207,-1.5419139178898955
2.221293465025437,-0.8714772877852148,-0.6612377785592529,-2.2923495888445142,-4.867744457287353,0.47519081705318356
0.43993329719174423,-0.4766661517558811,-0.41982721857541605,-0.939305082526876,-2.6548457369041607,1.05500408395993
-3.3427912373691235,1.412515739027067,-0.08860151299257724,-3.5466260948426913,-1.2913749771036171,0.11334542609829468
2.23882071094724,-4.88719502820479,-9.213100497377848,0.7372046834560735,-3.1431647904302684,2.2069590902873557
2.770022075714116,-3.9081488918151415,2.3951848596352967,-1.011904769672395,2.9239377296501936,-1.337120729063673
-0.1277280349248593,-0.17968280748055598,2.537289044102072,2.73574359982239,6.3725363737763026,-2.7296301033707695
-2.0637256160727135,-0.8134672139269901,2.094524796063873,0.6129596266258841,-1.0045544721032553,-0.51122325634815
-2.7211873742517128,-3.848646703399776,1.0446952941000307,-1.9299254355015405,4.239294273410429,-3.125061040269343
0.5040565677784028,-2.7566556937421223,3.749414907102099,-1.6882306862509506,-20.565850034962924,6.059604782483935
1.226982739648212,0.06908224219236792,-2.9315881304233855,-0.6990898018344809,-0.8575716254468353,-0.18745619419857196
-0.6100464357299067,-3.176908918191078,0.2629771267899681,-2.2056021576915805,-3.1534670177575377,-1.7492469842491194
3.452686014343544,0.35946246652409997,1.920080635368546,-0.8571398040937142,-1.2307797230716107,0.7931831029539917
1.0224670536574496,1.0797249437866658,-0.20405986626013806,0.5701593432495364,1.7868189431435724,-0.9987873296696923
2.243759391113188,5.633235178434166,5.668955506627072,6.607469742799145,-0.13043642463366445,0.921187381659351
-2.459173759103952,0.4689222869317804,-0.9080124866448969,-3.4262132918468327,4.771701672178493,-1.7399946934052697
1.455706044342949,-1.1373121993035205,-2.1627670377123014,-0.9739259832302338,3.2501451250653695,-0.31869652747692045
-3.400220107153404,1.6335649180721101,-0.8949298259299695,0.7052473141153555,3.022615152918866,-2.993727047573575
1.263365446018092,0.4128556883429013,0.3298850000257052,0.04746793333383925,-0.8397908799769669,0.8339125660588206
-3.232998536712413,0.40384713688304397,-0.035593909234708815,1.6896679104131085,-4.785159865786146,-3.0482880375259267
-0.137445764193181,-4.187350881034565,-2.910735565241145,-1.3059386040734675,9.237930502214535,1.6190422620741118
-1.3056031728409159,1.2632084604265457,-0.9029887926775075,-0.3329213293710235,3.6726045936201537,-2.8692850208092406
-0.7082656844831099,-0.5530133765203261,-3.263437854445812,-1.351233357299045,-2.7707230400200924,2.135398668787437
-2.0032625364569014,-0.1601127404799676,-1.6578451932016498,0.6658915469497141,0.29401769530944044,1.7666322884527053
-2.659827050630331,1.8775517329658322,-2.8333410726811916,-1.1953833731437589,-0.24976264903062373,-0.9192233323513603
-0.14173699069557888,-3.704420410905569,-2.5686295698987043,1.824059674606858,-1.2834296575682975,4.520472394468241
-0.5869928351298427,-0.08255029492430238,1.0195465792865592,-1.5253845010027123,-0.22270140276182282,0.8616750201903143
4.281212716184308,1.5842516220999063,2.3363824753623392,1.2561873450347962,0.5635226127549655,-1.928749048993524
-0.11260541871918983,0.20728633163125787,1.5643651626501178,0.06296653846087047,-1.0321116780860038,0.9110638112133023
0.1093200502507592,-1.6425673510170042,2.8782638290262805,-1.7967123710818393,-0.15880996578930362,-1.2769104161516478
-0.5571942698427528,-2.18300606607981,-1.678609669433058,1.2552414191734416,-4.935194544702622,3.3761118728315496
1.0061492975301674,1.6142019378357602,3.0658992035206283,0.3798815870181357,1.769495669343831,-1.6068334379046778
0.4702748509352185,-0.8199043900049585,1.2589215606516784,-0.28779960406410143,-1.7030981454807463,-2.491712442283288
0.8000599203135745,-2.220530512055512,0.7246775924696313,-1.2092155417974533,-0.7908866670889471,0.3329510303563685
0.9097052632679141,-1.2909994806661134,0.16799914173855107,-0.03591000837404257,0.35066536915863344,-1.0498889119053345
-0.6718155274484134,2.098543089875217,1.9171948168548816,3.228229267434667,-1.688313697130406,1.3033444394483724
-0.2913049313168199,-1.3413916739169078,-2.4238979347354923,-2.7515197570548025,1.408968681863565,-2.3426249650465087
-0.25459601610761573,-0.6337702669391343,0.02962696406416565,-1.2952527504407627,0.2117977337322385,-0.7559418538666426
-1.7961352849897745,0.5456739923726284,1.861759719153894,1.1640843270024839,1.8504273369393964,-0.2207341535086209
0.616195406965989,0.13383688734312404,1.0326641807309227,0.456762124533564,-0.6302301502528165,-0.08441394455632034
-3.393435222381915,1.1462723593779989,1.0709982970697514,1.070050152118742,2.1347176554980556,0.41281673775526984
0.3006604429871438,-0.12165532916419791,0.8849994280765592,-1.1409899461845145,3.0844678939954973,-0.42959169411946685
0.9861891728495451,0.1761697650414766,-0.8656735802162394,0.4342036101134314,0.8950999533576219,-2.684787027571754
-0.4029929411308002,-0.7095520605402286,-1.7343277546872622,-0.6267502895226067,-1.848897365532223,-0.3736527607077216
0.2942071782815989,-0.23306767400790784,-0.2621519612114788,0.4740944420913247,-0.5766549228231774,0.0901545501317571
-0.3826716494921441,1.810759889515765,-1.5077843555431285,-0.5303848251384098,0.921937023344322,-1.3649947541033232
0.7489713050287935,-1.096111252968568,-0.3554087325513897,-0.04687281247953462,-1.963860199384022,1.599401931603188
0.19801958171859396,-1.647012026724215,-0.43479229328841873,-0.7124697457870907,-0.36512306290204144,0.14362853213959087
-1.389706840617274,-0.15434897489458266,0.28735469971489863,1.1678045671230517,1.3908115654167743,-0.4413080540417742
0.417970393973877,0.13345587614067084,-0.24743827205900282,-0.17396486855119353,-0.07693540696161383,0.41710824268275365
-1.4499500386873456,-1.6443647114213278,-0.5255494145921692,-1.3929161181689156,1.5478611187116793,-0.08552408175465737
2.568704458768522,-3.1262361677361628,0.7059885826802597,-0.09629426296334254,-3.1371395683499124,0.16674532568304684
0.2945377936039027,1.5421112860576842,0.473268068007181,0.09438768193333602,1.380454691178261,-0.6558995281347489
-1.2906303126472962,0.08950855910557376,0.07967818884532196,0.05001655907856728,-0.6525798903722708,-0.07123722635941432
0.10530527270939627,-2.1074645954061966,0.7526054303281995,-0.5504998614601297,-0.7539316861991204,-0.5320525444199715
0.3791653332480929,0.07423426854566872,0.04442068549125444,-0.03109386935569558,0.6562227270961892,-0.20447029294680064
-0.3513226531061917,-1.214720755119916,2.0416140695532703,0.697493125022049,-2.0463255688447637,0.6368813090373111
0.5489472828096833,1.7515479437372852,-1.302622188277224,-0.9040609025543302,0.9649804869707612,-0.8214266132400083
-0.22952595504605577,-0.8978804291116627,0.6196657106721967,0.11207070638262373,-0.3158417059776504,0.4348477464827376
0.34321746871296493,-1.064020563565706,0.35813807155813554,0.6025585911063192,0.18993117068490584,0.042335938697266706
0.28239606431082176,-0.6024859473735545,0.10201761413053112,0.31071839420503045,0.47716612949316406,-0.9559084006192382
2.699658398285509,-0.8767464953781524,0.07891696329499563,0.665434678454843,-2.236733245489247,-0.47432666587376093
-3.67219121445387,0.03736219948817521,-1.1083690437916651,-0.5257248401660606,2.875750385406878,1.139556745910566
-1.0094622352952405,-0.9562827407025621,0.8068030732435209,0.803838520538156,2.033873277580727,-0.8559377921500152
-1.8058157584547643,-0.9253528004403707,-0.024489911477993537,-0.6915502522293248,0.4495084609896307,-1.6193754886299585
-0.48102659932869196,-0.6630492477271079,0.024805097789188046,0.17877084626411255,0.12019879665689892,-0.18859523351132493
0.43755421110873416,0.44792980129457893,0.3297956776367694,0.1545622096736734,-0.6573886968795126,-1.51333885144006
-0.8792894980721383,-0.44336144625844265,-1.6340243227228743,-0.2646784209851166,-0.5269414550715854,0.07733075034877454
-1.807665082098843,-0.3247263880766308,0.3774658546532385,-0.6075174173293221,-0.3367728696224117,0.466699839322118
-0.47891203662861503,-0.13334950144653346,0.31542973462407176,0.9620936835599216,-0.09064951384374859,-0.5350371130731331
-0.9418543632619196,-0.22934696556417905,-0.2426406295068125,-0.4243109787997379,-0.50079601074693,0.24956622633907688
-3.4730505589844,-0.9740969608151122,0.5233692126653726,-0.43056879139427023,2.031906511564683,0.7609674748168069
-0.33627712933974885,-0.8661577995443095,-0.3907393163845316,0.20668681927336818,0.584896643280878,-0.07888671753074705
3.4880618957245506,-0.4654369016850015,-0.41459158702291243,0.247018371148737,-0.6678766939479797,0.5429418840557318
2.150674199055305,-1.029488331091816,-0.24445934161282162,-0.33650368171824074,-2.208415386968489,-0.4199339727113323
-1.2194487690764788,-0.5987613650792016,0.5621767038809977,0.20733386096260908,0.028932533183566103,0.2326554409669528
-0.15027297508289073,-1.1548695884208584,0.3277671526799561,0.11289876972940666,0.07370232507139504,0.4772209057058896
-2.1119609447102956,0.17640072137148896,1.1137628307325829,0.4902711220226489,-0.5789819692855862,-0.21080851047925134
1.4356574582221233,-0.8165646835083203,-0.10623377745492091,-0.44644855718324883,-0.19389281165375719,-0.8607790964009829
-1.5105417881358365,-0.4900897631384328,-0.03181649693062899,0.4891916040320573,0.2832137752625238,-0.4061908011097597
-0.5919678776658767,-0.37527610800522704,-0.25313159386372003,0.569415123034485,0.10304050138097315,0.1696231847205597
-0.20029041154794824,0.15934855431793593,-0.15826737204736602,-0.011434805733435638,0.9615890520957204,-0.7375800282153727
0.446391456323884,-0.4693366915393488,-0.02499764261892501,0.7191001230895938,-0.8675626880607261,0.6989053069776039
-1.5834458015472337,-0.053186030109676485,0.3790530985386412,0.2088210475366327,0.561803904356547,0.7394257752842306
0.7615740807250271,-0.16153405440892615,-0.2280422659397845,0.14896836760402976,0.06635165023366862,-1.077362819266934
-1.8816710214695294,-1.1581723760637614,0.558509169364032,-0.06754866455232339,1.0393102626265913,-1.5576822953909808
0.21818993814239418,-0.6848339962970248,0.13185340581161797,0.012230297291494052,0.661922476052883,-0.2990570448992682
-1.0492214799463988,-0.7812114611868052,0.48446731834695594,0.20378963790319982,0.5496306792488498,-0.9895916598248502
0.12839178234713272,-0.11877416502518426,-0.379301038692089,-0.012836151806708246,-0.4263351536676163,-0.1451125034756675
-0.4291703436877503,-0.8844145909672542,-0.16645666474713527,0.05465261778443628,0.15811123535227836,0.3228924860073764
0.45093391486188245,-0.2532400932624218,0.20953137541739666,0.33381483905505976,-0.09229228704928638,0.005140658819827004
-0.48042343547894295,-0.9222265920614869,0.17795704874328944,-0.2510460769298746,0.1777979609708446,-0.10576574620004564
-0.8669193068842516,-1.1326305809445065,-0.07802999116318898,-0.15569639966056564,0.6455051210475973,0.9069333741317191
-2.0023328125355087,-1.8531698182167347,0.40946840317299193,-0.4273353803209616,1.1001930545296614,-0.5029722137656315
1.2729368359671338,-0.07735317234275008,-0.031895475692583344,-0.0640998107452016,0.11285631713254557,-0.16983683419130052
-0.3932215811966554,-1.2868245977789385,0.8428692370713747,0.24828188463964762,-0.48887436766423664,-0.17663850588432273
