Gx,Gy,Gz,Ax,Ay,Az
1.653067999999999,5.575473999999998,0.277682,21.798000000000002,-499.25800000000004,0.15599999999999825
-0.6886569266751882,8.979275416037497,-1.789374668823405,-3.976598790022997,2.504875917344455,4.411033895390708
1.5874318238593708,-3.4007313843193305,0.07542881287445424,0.5209939112370658,0.32423155801571674,-1.163197611095704
4.70720244655847,1.8574161623208012,2.832846510212231,0.019794744161127698,1.4191314751790396,-2.501723117055048
2.672445733423929,7.206560918131108,0.9523305534654123,-1.2798277021877895,-0.6805560593822351,-1.0817244412887799
-16.06430265996645,-37.502059539812564,24.706177685351793,-13.528282382062502,1.3892822827022435,-0.3227240838290343
8.714636109383168,6.91351700222022,3.7327253915748426,0.5317004101286038,1.02279097864279,-1.0699857097039267
3.21695048867693,-4.797975795356743,-5.923945288952423,1.05173557553923,2.0764154242656194,0.701058844669269
-5.314099646890998,-7.659068177050546,-0.8610637582214289,0.9838261775664223,5.466879887459433,-0.8277786643156945
-3.0983186346763025,-5.608544199766919,0.5886275798446409,2.2840895755897046,8.841471065650632,-3.0405099299968175
-10.794448641209748,-9.408544050328027,-5.663846250516544,-0.5824247618875242,58.52222621729238,-22.326127701285333
3.039053225487112,5.042754043504228,3.04125249362507,3.536184834423148,-9.002769455376342,5.016566720935515
6.459059041165001,-1.649058879170696,0.8592605785413417,1.3590957044447816,-1.325705227535996,2.098577182720822
-0.4424248226446068,-15.81070995342247,-1.98868656506014,-4.717616111979757,-0.5362807742379179,2.0637655808003035
4.772014552644435,-1.218205909923745,-0.664025558768913,-1.8227177433860862,1.7454967266342531,0.04846821666108869
8.717808539903183,-33.46906892116641,1.1850101367122416,-8.08726273970678,-8.84414668190831,0.6684727349454175
2.45766326701135,10.667046489785744,-0.6461938203572538,4.413316910023892,-1.4448047424274917,2.485877317531854
-0.2253245471499778,11.366527070140629,-0.9674811829285358,2.4195697822096025,-0.43892373163199794,3.1568638679087733
1.9804298302373953,5.041192070529821,-0.7107213010326175,3.331791396091867,-2.7892436462582073,2.769897045596095
-1.030429172187366,8.572195534997261,-0.8754376242030553,2.070870727035894,-8.435611701314397,1.8578584190729945
13.314643342513463,1.0934076061929172,0.8222175325830117,3.6132928004581513,-9.17287001760094,15.040998550544897
-9.29978974363852,7.998281119534115,-2.8891025077343255,2.575832005733127,1.8876371160168208,-6.670682869642172
-4.80720876557755,-0.005407379660745448,0.9114317894173325,4.385298278742706,-0.5504862121380174,-3.5354676890127985
-2.2006659084979274,7.487772932416506,-1.467699731926885,3.369176226008005,1.6443970853508345,-0.2617141921929622
-0.07476495794143623,7.299107378480873,-1.120722746524753,7.278975993606076,-1.7196257768670413,0.14404794049156888
-7.182767048734371,22.561414003558497,-1.6557010637616039,14.655501285005483,6.376339798667088,-0.824205957958105
-5.2052714964061675,-14.075450728885642,0.31735691160126966,-12.5820876784757,1.5207010908840983,-2.4596010944825775
2.3502975402253288,-11.34046006537307,-0.6221704679447891,-9.913275247651818,0.2518337152666622,-2.090624950399808
0.023804247646200594,-9.905009794280645,-1.0550223812706947,-6.541302562456819,0.08207870100625625,-1.2687497936332135
3.839070280970043,-2.7995494387149873,-0.3029930960858751,-2.063626004695586,-0.7235998802124318,-0.5578105349471887
2.588828363163509,-0.6230179398594444,0.821452508948278,-5.455061615726553,-2.359527025919961,-6.422421027066738
-7.645468776150764,3.801141625073759,1.2142812073553746,6.276296560159928,2.9287160650426594,5.277774708867855
-5.065167429638671,9.30444822674467,-0.37638128476117694,2.2850415406562754,0.8909662874420227,1.8372724301156527
-5.483186350521185,-1.1323640877049863,0.5737139974757872,-1.513595981168974,3.589838634788732,0.8350259450750837
0.07494278415891387,-0.7374650567016001,-0.5454711545603057,-5.631616080805594,-0.10698704793405556,1.1944159559071807
3.235446783008723,-2.615912266368775,0.660646786822515,-0.47081661659698704,-4.448520367115364,1.4714482451700368
4.103847421311195,0.20810658774376617,4.625853005077546,0.5059765570063135,-2.458694063555413,1.8595762378318745
-1.244998821037171,0.41299067346394724,1.9486205267817829,1.5319568189245343,-0.44253831308310976,1.604827745624703
-2.7443495594894056,-4.146651693872828,2.1837047663648015,1.4230154156514023,2.143025615662726,0.9872524557683777
-6.050833763839703,-0.4136292772146457,-0.9638463402043104,-1.4115443565536046,4.566529730660268,-0.06073061753485298
1.9214987388899645,1.5718320989722785,1.9259408615606073,0.5670455161140867,-1.7740229324534624,3.9515069822114572
4.646457690489841,-4.7475847533631255,1.9731861621494025,-2.794598713641629,-2.6318031631712078,-4.907398482207995
3.040048328821931,1.9842742503181283,0.38929828756711915,0.9138358631314685,-2.0096825040815367,-1.0466953291907153
2.7720212833459943,3.464303159440605,0.9837698239390424,1.6108321878042255,-6.347233689457157,-0.7507064320491467
-0.9297937722010943,-0.5597452796495596,0.8721448296185599,2.521393400909003,3.0544925110830823,-1.9374347423072886
-0.7702207694073728,1.3693783564185722,-1.1515984923556788,-2.446964991336051,4.3676792955658374,-0.16334815183690832
-4.534111197476808,-2.4351239490465204,-7.635337018983812,6.452026932927748,5.246119695031426,-2.3330066923912973
2.2028996117109747,-2.773818049786043,-0.7072826330666566,1.330581122698874,-1.9489397345834698,-1.5518442176119651
3.2472347844798692,1.8788331286792928,0.726595032094697,-2.1251691426512926,-4.7709625176267485,1.1702768829147336
1.3931489487896405,0.3426998412535682,1.4495077770129305,1.1386141057460277,-3.87975016159505,0.5544413164603919
-1.716375244652661,1.0677405186925444,-1.8199395827984526,2.0273124135384064,6.110105096369855,-1.058687824285871
3.0148457905971298,2.030038352328551,-1.4090746004232266,0.5025477063907938,-10.168104055412112,0.6541604725366869
-2.922043517246148,-3.3640234837424057,-1.5204974025401294,-1.2481991113449538,-0.09052704860640715,-0.6188982361921577
-1.5100149949306552,-1.5821666694981,1.8558383226371888,-1.643451044424642,1.919093834855514,-0.8954341890912968
1.0214746706907785,-0.002340655431341432,1.7296894261372326,-2.201882732980946,-4.665619927233619,2.1537921658270593
-2.192096564924267,1.5159130933067164,1.2926353157460513,1.6135078143995438,-4.84684668674131,-2.01185437013633
0.9464104064461308,-3.5488617496537542,9.748576405970832,-3.980678500934376,-3.095024459533575,0.06712837857059939
-2.786800972877491,0.5784164772820977,0.2547850738170817,-1.6589152426913265,3.7699234630556715,-0.08385022367224998
0.16972015845221544,-0.33271340359412194,-1.0063564732092776,0.8622070689574878,5.020081704901427,-0.9197570211425607
0.5784592301911686,-0.1248686113053672,1.453323938333908,-0.5788995337719983,1.420250570611528,1.6053381273101306
-0.03123975019193881,-1.5784278797195346,3.308044354788815,-1.1450374509868542,-4.239031448057405,0.24705217482572017
1.2455252177655756,-0.9872485549086345,0.5985779873664516,1.6878923092757232,6.170890705085771,2.868262644606136
1.7503758306312907,1.9454811606864904,-1.2128841911101642,1.4693181262081922,1.3703896221644425,-0.17125870660225084
0.646670323129064,0.5434773001040636,-4.107993683097834,-0.5200210461022869,-0.8826517855503953,-0.5988088093808861
-0.7447128462412544,-0.22278674475638538,-3.2577854195634695,1.2671117801512153,3.8403421284159034,-0.8482655860092783
0.639285821820774,0.15645914026385466,-1.5330720369338835,-1.1117962689964085,2.750319548660406,1.6932729143924468
0.7133820671798746,0.25232257146632003,-7.831050045118991,3.519072698677337,-0.1258064412999782,0.42274615757933565
1.4094112458527863,-0.46933031400059405,0.7021530503249054,0.3226561862854568,-3.403797418031907,0.3078260776458503
-3.0637587515268745,0.580185334220725,1.3479442108259596,-1.2019790360106934,-4.400967760261622,-0.2786384249379359
0.3637287471751504,0.4457612483681254,-1.327380635401136,0.11532352999188045,-0.4433268152330121,-1.1080191080240065
0.2467860616816583,0.7974123386467742,-0.7750760420380483,0.617095701401719,2.0758141296702544,-0.06306965073769533
-0.028333951784574096,0.1495214822989881,-0.3460052898668775,-0.4557736527441326,-1.539105472220098,-0.6355639817368244
-2.2392375078741242,-1.3543917301326567,3.2032056507549576,-1.4529303318646447,-1.2011682376422972,-0.7957582078201524
-0.3354252012401857,-0.07284558986376471,4.494532078005788,0.39353628493471293,1.027709633130576,0.9774973211934952
0.6128749359909923,-0.09605649327758906,2.7562480276384487,0.13737494509185288,-1.8127375972040858,1.5723457214017862
-1.3312437360152356,-0.47070957843816474,1.007470978778564,0.7267208482076708,-1.1630576618101571,-0.6245002409620515
-1.0641911791172936,2.2029272479728457,5.098539954671286,-3.713601296659039,0.9872898556180926,-0.03567844165018086
1.0814404404967735,-1.691068583641325,-0.7083959017169141,0.23719665083371108,2.80076405846692,-0.40942334519116064
1.8536146341446436,-0.9187626324589486,-2.318121122250731,1.9915720575647078,2.309873894685441,0.5309398248190795
-1.3790297589180391,-0.8730342622980073,0.5415639102812828,0.0059377316579404815,-1.0415927378232428,1.4672511138877469
-0.7429347991040097,-1.6497711225688876,0.8299605893166644,-0.2985106532951488,-0.9641788164815281,-0.00950051825114101
-2.321886963933566,0.600406693579907,0.5162071830552292,0.5446466862212436,0.7759265831945605,0.09961010578610896
3.305453301278282,0.3848367811763452,-2.3088867183040898,1.260791681214564,-0.26202311673725576,0.5948082299379394
1.1971476892538657,-1.2504091344492445,-3.179692980247822,0.2162980152236089,-0.4171791675402592,-1.5126256337068646
-0.39105672886203824,-0.2783902723404884,-0.9343001108165994,0.4881517835549849,0.9277547561138928,-1.080782648094777
1.1462873786785792,-1.0580160658557942,-0.28132274786459355,0.3506169757989367,0.5194661866916501,1.037389174142262
-0.528450884869684,-1.6736900379277364,0.24839919795883353,3.353284315300381,-1.4928269132712098,0.9687861004953203
-1.2805478845780365,2.1580563150105054,-1.02916338009301,-0.6439488640036632,-1.9519964732157389,-0.6948416464470446
-1.42142036538504,0.6496293378482905,1.4764334544070208,-1.845688906196708,-0.622095151907756,-0.1839013105612311
1.702583529677926,0.45420564869372115,-0.07163292791472964,0.28519563734910397,0.8672341615586899,-0.25481964927265044
-0.6694480609343358,0.7829682190779748,-0.23522078610841501,0.2220965393146066,0.01375764465035445,0.4095756695183355
2.1023623645662806,-1.6774245114902846,-0.048070132120100834,-0.4081064054594421,-1.6248695841195353,-0.0923394502699926
-3.2464967522798194,-0.4987176904584471,1.2145230247327297,-0.829780070658434,1.1926086079993703,-0.682494061072652
-1.0637591295551514,1.6383705359029195,2.0957126201859135,-0.27156848952497237,0.6728964231535062,1.8847394301314804
1.244620254945559,0.458514696004402,-0.023301616526028787,-0.5134147850818427,-0.36281574122419946,0.08300380954208825
0.1658719679949091,0.7614501328219345,0.272360468868848,-0.5340174800860982,0.10423521124598967,-0.8465372275080686
0.8403494895398023,0.023801319181393915,-0.9571495349162179,-1.9644350060190863,1.5976608445847864,-1.0065737406580666
1.765988623251514,-0.894114885213924,1.3961632962515198,1.0119512162874655,0.9464384272386872,0.8767182539299809
1.8966967818493126,0.2674186945268886,-0.7834069902712663,1.339160589451263,-0.18191628786404634,0.12203110174293852
-1.246278884299006,-0.053196977379676436,0.48524288709875973,-0.3403566740677985,-0.5501049367266965,-0.8655712932408809
1.4512458701113045,0.12144652132699563,0.5415709167020484,-0.002722457318522109,0.17784391451295845,-0.3556400767254546
-0.25976796195733187,0.8706343363503529,-0.26845842118039814,0.640112599936473,1.611883798908007,-0.5128637318255287
0.36810170396164243,0.21793071977193962,-0.28941006564689975,0.6025778830282477,-2.7613361696401606,1.9066926769084416
-0.7680052248488165,-1.3419112687744918,-0.4722510492458454,0.32908923565799414,-1.0579119196216125,-0.8994829343046961
-1.2529550233723588,-0.009409889390655277,0.8152066987882988,0.07555540694897034,-0.08139941662819894,-0.025576007378509902
-0.6186029451716091,0.28764964563859696,0.47345518960032673,0.3988537329647919,0.045270613791742687,0.9416728758840369
-1.0318086906587414,-0.09064573724622972,0.19083532532421843,1.4035870095994065,-2.1394355813236983,1.157666493424769
-1.2737520513534326,0.586664613840838,-0.09854146110280512,-0.8837647350928308,-0.0032624229010183026,-0.8593208028494173
-2.0742206355569204,-0.937433773281705,0.8035279757309446,-1.1447840882612905,0.9376679901533765,-0.7646682184212688
0.9719130558832961,0.020215546589088973,-0.29205701525712346,0.42355565808286744,0.6961715326644047,0.7649894484995179
-1.1916168156719278,-0.29017351918906376,0.29729002084699185,-0.43279801459441003,-0.04387933499776242,0.001734987484194206
0.16093420287445764,-0.5611291745140489,0.2519670240004008,-0.5698426104977565,-0.9422418973263368,0.5116336115315487
3.193813742301374,-0.3990770467063192,0.5341385022334821,-0.24493539095039396,2.2988417300497317,-1.6948815821904915
1.3858030136222985,0.9249603329049416,0.4390666113525149,0.011644866876921234,1.2350639962170233,0.4099909037952103
0.20927316058731282,-0.3058653407235179,-0.1764379494105044,0.1998585596411474,-0.22253581764427066,0.30266559432855694
2.295240325039818,0.0429430309878478,0.23668369316795845,-0.27354623543670736,0.13072936347287456,-0.9407441227934459
2.4345545635878327,0.001176058599878238,0.07489750313944406,-0.9284578808007358,1.6016716677872378,-0.8731625771672228
0.338959882153794,-0.8830644243534396,-0.23845262848006232,1.2663028161441674,-1.432601564002622,1.215545014200701
0.5961563288254716,0.2785196565550845,0.22970637042173395,0.8781160401407289,-1.5882173884995747,1.58383374942615
-2.3106991213984207,0.2011237255943194,0.021436530504430673,-0.4452020735797185,-0.6173412544383822,-0.44559523479970814
0.23531986322961979,0.44981718456981357,-0.432036767927387,0.6612495736781854,0.30697522787289966,0.16508583389619186
