Gx,Gy,Gz,Ax,Ay,Az
-2.591115000000001,0.2174690000000007,-8.308654999999998,28.072000000000003,-428.4120000000001,108.29
3.8364067307353,1.7950726940507318,-7.535044107561442,-1.294774006332502,3.034374877313788,-1.19608388301203
-2.5413836918946298,11.693355076085043,-17.37602444143788,-1.942331275842053,2.652360493727498,1.7491205844997717
2.702294111332309,1.8748681724091754,-11.851731332018018,-0.2171231308275614,4.018471934726861,-0.47822772051359785
9.579467754632866,-7.342853202005188,-14.66137135464652,-0.03724473907750858,3.4509770481108166,1.750356591313448
-6.165788195856478,-22.265975787284074,42.29522776855782,4.687899620307712,-1.9543682093787402,-2.6538805926006033
-1.2878097257242294,-1.1966160937162336,6.130638516473949,1.840185836491929,5.0899786744814906,-0.518530628100577
13.013241470292835,18.38277272691178,6.760911670707215,5.813714266136927,2.3130240628862997,1.069103397440113
13.831300845280712,6.411600603458038,0.6921798933435885,7.462455932725538,11.37670429314161,-3.713449401810002
35.30598537174687,14.513291747026122,20.692216099585057,9.371849040185172,32.600025372183005,1.0323380676321743
-24.095647089040526,-11.56826228934619,-2.73309368818892,-1.9336532041683827,-41.835172565956285,-2.169821257860664
-9.215373843049568,-6.91764658374853,-17.02530644748396,1.8499209551454587,-15.904289055102938,7.064224203723022
1.6223460519244846,2.38049013232063,3.814167841838331,3.533118385323042,-4.712975347344154,0.04135916154950525
-3.408864977748353,-38.102860911933305,-17.856928943827324,-5.3798854807292384,-3.525859880451178,-1.1502157576302117
-2.234683513588545,-48.105938397519786,-17.500328464241736,-6.873831540387982,20.286098525895248,-5.030961459606933
-5.110839044038624,35.68603215260098,-12.741909783415021,2.0176678077060948,-15.567053514644673,0.023887857326942763
-8.750740076203883,-5.083259070576852,20.548786759331506,-7.791556699064522,-13.782414914335892,1.522384826384074
-0.7548481067463202,-4.967357918735475,14.758025809528034,2.4895880473554888,7.80232003397411,-0.5068243051854523
14.17794502612331,3.3850540540096254,17.355748097981476,-2.582093778251859,-16.4851319103799,-0.2657735799593208
-14.114594380113875,18.057437720065074,-43.083892826877076,14.113939960395147,-22.544648296433742,25.487304079430793
25.856108625185115,2.1777274343830766,0.08607757184678833,-3.647791304649818,-9.944340967338622,-5.813642677174229
-8.399178400369392,9.549221408618287,-5.164757419801489,7.343588211286124,5.064604701492954,4.897888973631642
3.976235237018917,-9.7548678365591,-16.156078931942403,-0.8957696425264309,-1.3799954654800544,-0.2264469251282279
-7.215037852933538,0.5159213396698972,8.987592230979807,-2.2699408863227806,-9.202889034529745,3.2014249769897583
-14.755044504797638,24.562853095516367,3.4687520082385674,5.688218129243478,2.553370782076732,-0.28255510768024483
0.4106552506565322,2.316547130812612,11.10455057865211,-4.2866866994747586,-2.7679805004810887,-4.668736356157154
-0.34704272127532576,-1.5347585939058779,2.7484259683204826,-3.695211367118863,-7.247525760681128,2.4046936056381796
30.48677574531226,11.346844404735872,2.682261963763896,-1.493096019378506,-29.242962700338126,-2.806799576550751
2.228042610996689,17.27913075509794,3.48177578519489,1.7914133314139362,-17.37393336667161,-2.590534537762255
17.872812492877674,-14.958387087912289,-1.0192225976676168,4.829332632251509,18.26863358523518,7.64156682406459
-3.0988413500081258,-2.577213349456256,8.642918105828016,-3.0050889396067166,2.5213785363786005,0.1676602592668502
3.5379143550292533,-3.109447731953507,5.256106918700748,0.752345038659652,-4.383575098425878,4.110261714314426
-5.623964754423758,-3.7524610334352326,3.8705807180015337,-16.688097144558814,8.350024597021651,-3.344144475437786
1.314599952401296,10.02263616564953,7.456474841714346,-10.823922046548283,-0.7094725490814895,-0.7720241375033083
-1.9605656498740913,-13.244044542108707,-7.939114104890921,-7.239894103495139,0.6703340081466473,4.24493065180379
-5.209077075892869,5.520531174112383,3.8901706427544696,5.190472307427581,8.986039337344138,-2.871075684590819
-3.7086263753167388,-1.0148373098713703,4.072785064577518,-1.237773107042969,5.451727840087612,4.743807193379376
-6.802197567168827,4.3407800734993245,5.702461383895365,2.8641911342103192,5.719314812359419,-7.091143060168346
-19.322225474053866,7.259882576101852,0.6074436935394498,0.6742109698103471,17.063366729992616,-15.7081328293043
-0.6508809690127308,1.7435603160683577,-2.128865565685669,-0.9156498949797576,-1.6934556112192904,-0.3474092149990704
-1.5754703426967849,-5.565861006332993,2.857518379592147,2.6604172667395805,3.018618863113459,3.6313689126369
3.1143976331919943,4.044341057237225,-1.9727380999826956,-2.3504847023691333,-1.4442210255222436,-0.3517555988469212
-5.956639587291825,-2.9148404028586157,-2.0116271894836295,-2.6831867842500756,4.456698756320829,0.6571700303711525
-7.246773306873838,8.326065279924178,3.7780923856508917,15.977544721497768,-8.861947999105888,-0.8970602553293634
-6.772376679671144,-2.7231995451026916,-4.185404393511826,-6.60564197364995,3.6946991860704648,2.3111431786862284
2.960131649998875,0.7637761956265798,1.4659534544048851,-0.19972069839511342,-1.9989784925334182,0.1906930170009567
-18.067616111876347,1.308984636554465,2.5605354909688636,-2.6831799224872412,-3.0729897294464728,7.193827136674159
-2.0139020203544393,3.543783277590432,1.1936456626167242,-0.9714225187609657,3.203366337906948,-1.8813502290642923
4.425452433940096,-1.8238167441519253,4.545581309617908,4.053144563723716,-3.3875381489823804,1.2882856917579977
7.134368433242653,-0.6772589979550552,1.6208669574600307,-0.8108683948906772,-0.044912358126453444,-1.5924304619842145
-8.21728892473308,1.0078281026838969,3.181308167716887,2.1059316536945487,2.815056474548629,-0.31148788382503856
9.410026448597348,1.2790260301340513,6.146219421924588,-2.9990083740467632,-4.281213416875541,3.0592954545813424
-1.5799388522152433,-2.7102014060636783,4.469837345302529,-3.7384623664469787,1.289047120547508,1.8155585722011587
5.935331437672318,6.755884424845563,0.9716263050871192,5.290216950751306,-0.3337788246871676,-2.4541288741140876
1.132307129531946,3.451308158864275,0.5363997360434181,1.195875423430405,3.0733760692867085,-2.0433749408106823
-2.944110432886849,-2.575570551480249,-0.2585944620089652,1.4551006372238475,-1.7632191801821255,0.36159544177135794
0.9423163437422986,2.1566218528187426,2.89303481672692,-0.3873681326802929,3.1680108607459077,3.09198296968928
6.686455732712062,3.8527176844473763,4.257262008355285,-1.9669600541584857,-0.4190777526499654,-0.5840631710296158
-5.265768849377869,-0.3187625963775327,3.3456909149108753,1.5674443859279377,2.069435029096443,4.848538076741985
5.590296176220597,-2.0856817514497576,-3.994505233236893,0.03098405070110688,-0.7091604646013874,-2.5185203449880404
0.3327671366719547,1.7865209215319204,-0.13023701207678018,1.6080052713110313,0.4607834265664068,0.592702419634647
-3.3813414958243744,-1.0981405148974765,2.401410509506815,-1.017982358936064,0.8447923218226938,-0.26596000860381286
-2.9548483362182356,-0.23928972410274674,-1.461425303984252,-4.861680409695426,5.457466199473413,1.4875046284135822
-1.3761956796011106,-2.2969239708519202,2.8112849317966253,-2.2898722636301585,0.6494200638399998,0.9938076743074193
2.271779305995742,2.857417098544804,-4.4392344038486815,0.3983320778928181,1.2858960310863652,-0.9125830575358798
-6.7258859649067,-4.406476014816596,0.04382018189109904,-0.3338981399967851,5.185264005986785,1.8365615072817878
2.1350777935957908,3.1145825118480768,-1.049912914514482,1.9422335715967864,-0.36448502284037865,0.829569252821365
1.9297781710738748,1.8232971285787445,1.982008877819161,-2.830460388280626,1.0382472428132439,-0.5429444258466694
-2.7425190712707628,2.978472782482719,5.209435272416173,1.9582345342496896,2.88868049121491,0.22159602178549243
2.2010780090976803,-1.4028139629621563,-1.8810963514166295,0.9191250205605401,-0.45096234282741143,-0.6025832157334052
1.0011366671270452,0.44570966867035633,4.717993277581926,2.8586126898263924,-0.8581498050369225,-0.5835571416750343
4.2849860979497505,0.5768829383758733,-0.1555366019687674,2.0601644667312558,-3.2264869735899104,0.8147538897028278
2.6838983492885324,0.6919693546955554,0.06380725115482955,-0.8630551189327313,0.5163464100756316,-0.6166094978277334
-2.0821603081711864,-1.4596434221765198,0.5900114083987904,-2.082252655562245,-1.479389239107862,1.0207284927007665
5.543806484230235,1.9653711688963018,-0.39240559500269523,-0.507185891857517,-2.5676425430790326,0.3715286970876548
-8.66649961105038,-2.1307708821293776,0.9579828632518206,-0.5749489214790997,3.588672885899493,0.44049360413921423
1.0934836865747417,0.10489187994543947,2.2910156082057265,0.36560950318658414,-1.9758607592066983,2.88799912368651
-1.5854603448884443,1.0432552420866497,-1.054677784300102,-0.35278534542864604,1.0049215032687773,-0.4285500232082817
0.9311017086886648,0.9586370779884454,0.44533098960449025,-0.7763881702222815,-0.019863989366577073,0.1523969123493707
2.672895697679559,1.5481975182621772,0.07084488668410538,-0.5926296685893242,1.228215617483718,0.9909377320082358
-0.7981524710268122,0.9675717515999983,0.8631173032656981,-0.2733959047549086,0.8675973820868073,-0.8005174430735891
-1.0770739008894914,0.5707059052479453,2.4224813892240897,0.8364680431229439,1.5968868084420957,0.49573992517945753
-1.9246806177732072,0.9455568527031926,1.377946841500596,0.3598869561128927,0.7937893056391268,-0.6308615962661117
2.9994757813978996,1.744783781879898,0.843333145228593,-0.9264166935223077,0.03505940939741081,0.11763539819136037
5.0432771737459205,2.13858407808479,0.5626798240883115,-0.006789781616220791,-1.255109148147692,0.5513837645697448
-1.384116786601246,0.3974130640258333,0.7624431505589011,-1.051864703310049,1.0356264427630941,-0.3809690462781472
-1.693938193877682,1.1941512292496541,0.7507632515860667,1.0647681046086475,0.012628540000421573,0.03650049799121141
-0.6316124855925582,-0.8578286310668282,-0.33335235123422224,0.10273539218735461,-0.05293107941709263,0.032967864667051205
-0.7962318806455476,-0.5496187877039145,0.37126164830424013,-0.23828282304953563,-0.632080665725832,0.003947865456794097
1.7752046952948488,-1.0756082105593783,1.4667036055369165,1.396241137225394,-0.6368817564585039,1.4009596866257101
0.6308554004927329,0.5996450751227571,-1.294192618019701,-0.17975167294005379,-0.5631884041435964,0.16319918458223437
-0.4205961154277724,0.0476247601330102,0.5547328542513384,0.32093753645720713,-0.1474790047554957,0.34556449394051225
-3.0335674535099066,0.37308850796305815,1.8372568691578746,-0.19112908822464453,1.1171197301070541,0.9040641647643368
2.181134102112364,1.1446537398026682,1.782556824959562,-0.45423001982304445,-0.4386724885182035,-0.016725947364549132
0.3298923663497979,-0.058418722890925784,1.4052768092888646,-1.3467092754357433,-0.19818700154767743,1.2145510747092871
1.0569923342273997,-0.04191587204231273,0.4063869645262528,-1.2222547333886589,-0.10802766307734413,0.6497926765556354
0.8237013745535327,0.5116976531995805,1.3353220198292992,-1.0001853438217114,0.023436486152207503,0.10895401987194481
-1.7271562024673024,1.5276203141612523,1.2408689119559817,-0.507515607854581,0.21846433699829,-0.12710051783574228
1.6533401588964436,-0.6584466715551148,0.9065633979175942,-0.17651942470148496,-0.5791527597617315,0.3661638688692741
0.09136620756904978,0.9388185323774496,2.161862048304485,0.3744326699277204,-0.22061293096119744,-0.16065355453749963
-0.3475395209291814,-0.27903877600064864,0.6857924302320655,-0.471571217032976,-0.8589784578493895,-0.5807093732463358
3.240535024419093,0.9532806476093769,1.37961649589632,0.3449428542059373,-0.2965276381886297,0.29540275282740636
-0.6493707647820666,-0.6117064843511719,0.6539912458495749,0.7728504527307751,-0.43148117704099964,0.207048882560105
3.8543822397429954,1.4710497014139339,-0.009234547228163636,-0.16106272976162295,-1.0223207933241767,-0.9040011043499698
-2.8103034486871756,-0.2528164478625103,0.9272974019321673,0.4202608014431237,0.054883564092033765,0.5262906788786923
-0.19108734644707392,-1.1326257788911682,1.2103948880616882,-0.2145263542529241,-0.21295560364027954,0.572985884882314
-1.0205179387269376,-0.5473765351844739,0.6103511543686422,-0.4550452548450879,0.6173583400534135,0.8756218467337843
0.7727814518366323,0.07804920802736776,1.215842538081582,-0.9347358806720776,-0.03452483103469395,1.163943567513369
-1.2983544935462037,-0.16691039489252113,1.0802752016194836,-0.4583402692320299,0.8121239238947697,0.021681586207121073
-1.446650818181324,0.08635066287989174,0.46953585585795377,-0.20151306091233245,0.12614557573521598,0.6198575359061161
