Gx,Gy,Gz,Ax,Ay,Az
-13.833372999999998,3.2654950000000036,-1.698950999999999,47.32199999999999,-521.924,72.46799999999999
-9.915490178205122,0.6655604419674216,-2.1012684973460707,-1.5730295943615236,2.680560943833447,-9.880864087942518
-6.214832606843304,4.0711996961226715,-2.5154840839759083,-0.904551918682593,3.1454654068564896,-9.133003220479186
-8.510700778333323,5.175027802854164,1.478557301948143,-2.9308839231476833,3.6529249563022534,-9.544226078210137
-4.457446153955977,3.896119256331591,1.3374433841949371,-3.4141526498412564,3.512047185510654,-11.131888248721207
-4.331016955730885,-83.14910323685335,38.85309071013027,-12.113390013304583,6.0181198268768314,-9.890203841816941
5.91303957040415,22.99441012195255,-7.258560738852184,0.24310673344278022,3.6224533935944114,-12.399000103319855
0.11254699926658063,9.74299868486634,3.7661200495874887,0.6228874599092009,6.276788937964213,-13.740085043151327
6.162942156645812,-2.140105493693241,2.6002723683396827,-1.2357333145276177,8.810994391727101,-12.46002090033744
10.25921952637939,1.6415768947476987,1.70770538969964,-2.9624599045844606,15.70872792322775,-14.560451273983878
47.69726701373719,3.5415945110221543,9.467749919775258,-10.763252640306838,80.890054807167,-32.90169272694302
-17.6766907186353,-0.11776241401502752,1.8075834031219236,3.985705184267296,-20.415976889699305,-4.003017401926596
-3.780360316534636,3.9125006813647722,-1.741675359418046,0.6054454159727329,-0.6378214913595268,-6.390132692654567
0.06648945598584133,-0.11869980277520531,4.13641823077169,-0.41302326586466365,-2.900013010507819,-6.058436470738194
-1.8826273697388527,4.715195080090035,7.184289219328408,0.3985653694205913,-5.13027146481732,-5.572900770983226
-2.1118092176046277,-33.197765010205536,30.255984674823406,-3.164158688516377,-5.94790607167598,-6.93898962784438
-2.1653767753319286,18.442957750270157,-22.9842556777871,2.3147345454629336,4.240971702881939,-7.492155793358383
-3.6164047662982832,7.372281137284279,-7.2137236116560794,2.9868348438034973,0.20135512146267415,-7.8741664910384035
-5.746009864708624,-1.397773476355935,-0.5551334806442565,-1.9745413485090524,1.9147915945133755,-8.868096613202162
-3.007115418118928,9.879156107192681,-11.48600958796013,1.0741344188521427,0.8011769881651047,-8.668671399636384
-9.252213399679977,4.266389437104398,-11.989344002709739,1.681886999731705,6.7407482924506175,-6.7555200380880525
14.119014027195195,1.4714497486292908,7.548713987495364,3.0632978436753824,-6.074458384452505,-5.765245791719434
1.8982165908134894,1.0732225608312604,1.9777536788629757,3.271289725338814,-2.1344248517461053,-8.666169068950788
2.605483378292081,7.03168598535494,-1.0932853438779624,3.8560730090277726,-1.2191477240022897,-8.357304400100308
3.1907011424645946,10.048485328421236,-1.401180709835106,2.44284611721295,0.9320623145496869,-7.323082814241555
4.467312698903131,7.6822231943646635,-4.178587772909914,1.3390160103331388,0.3253773703590559,-8.513736003772587
-10.349079135218147,-24.646165780997308,9.085940919334927,-4.753291942421072,1.983971972758342,-9.01328410849834
-1.3369940056467353,-1.1698104547043013,-0.9399636336306711,-2.9412615603851444,-0.003223797167194689,-6.827495168291399
2.6959712515156977,-0.8914831935756289,1.731618238073117,-2.774632173648487,0.8180638813781124,-4.718088266152205
3.5952281882934445,-10.191138335465906,3.1239604546170976,-3.3500341712445287,-0.6995472111623355,-5.789966224001777
5.685337721881646,-6.463410271912366,0.927289108967696,2.193845126175359,4.318067970669522,-2.3802932658401463
-16.855856978285704,10.01404615693452,-6.08341506141713,-0.8967103119827864,0.10550917821300132,-15.072506185336463
-0.8180556527722459,-7.016720385790467,-3.2910402487018957,-4.2644439982894,1.3227586069513941,-6.135532465716149
-5.587305107845068,3.193452120511778,-0.414617844779167,0.3041722097430146,2.362280644582043,-6.074449237415297
-5.90860837619077,1.0083933820678617,2.843413765517897,1.6595340131429177,2.499420834696272,-7.781747988639378
-1.1501089891289276,6.450855969576899,4.442638980827017,4.059895274773227,-2.562412803335911,-4.674312442788233
12.888828868177146,3.5637766238859436,-11.91093310989771,-4.533172733736411,-2.566074415567046,-1.715360435473805
1.4765496610197095,-2.523440112099805,-0.654243540338275,0.26447779051915443,-1.5382126114171566,-5.380423043259193
-3.0260319328702043,0.6473063145110218,-0.48549447733698686,2.744340548336254,-1.864960488059015,-6.389318390506502
0.20023252276552023,6.866704859435662,-2.1042739327555835,4.629500672073753,-2.502633373884678,-3.1094641082936376
3.2598513941719967,0.6430352361141276,1.06383260182267,0.9912620701126074,-4.570703901528455,-3.658420935763301
-3.197314765021332,-10.00067788090141,1.8876544761548355,-6.179233635867412,21.92375573921074,-3.42269920556852
0.0224080482334289,0.9387282393833084,2.037670236178844,0.39399312316202606,-2.551554637633679,-6.444824772553225
-0.2075985833942129,-3.3548579158114498,-1.0764668036010923,-2.724267661899296,0.9537041635881298,-5.380675345348491
-1.0685547335503702,-1.488080389320066,-1.21578974549796,-1.5202711761818186,1.1663143144383155,-4.093961474719398
-3.634768404979229,-0.32347028111166337,0.4702164185712956,-1.0806041303660916,2.94953735560803,-4.997922462636564
1.3771007939509587,13.206821921131823,6.405154441028236,9.73146740796532,-1.0172473805614763,-5.126941251579994
-2.7580409646206485,0.15791075180352565,-3.529235009504145,-0.6462819260438695,2.5022043098020665,-1.3053624294938033
3.2007274251638265,0.9472322589489766,-0.8763566334984603,-2.1130733452927326,0.7021333224244312,-2.6211952210399834
1.3919924812292213,0.2635967182288148,-0.6101159750287268,-1.8351243209386248,-0.4493236416256971,-3.8325493227916247
0.3493453930295686,1.3243892447136232,-2.2910209225697273,1.3104271372306604,-2.293089201528138,-1.061737504884785
1.996814165374588,9.229801180563221,-3.8964043866782196,2.128730064389104,-16.455211979069098,2.6233659770253914
-3.2955089373595055,-0.8905545529763002,-2.4086210972068383,-0.14264949408361427,2.5104061381451324,-2.5265393763056423
-1.4219833665366144,0.48491885967511417,-2.023943653517684,1.1711072756321974,-1.9504975305958943,-0.5722813139803051
-3.618316170817197,-0.9692199485202261,-0.46070266346959843,-0.6834681668899092,-0.39273308954402175,-1.1369114782526815
0.6024134394813709,-2.1379368064943622,0.9116844406940162,-3.4510714284131265,-0.15878756880744227,-1.6993934199503897
-8.308910966899983,-3.4506876043005223,-6.152661120150178,-10.597193470613961,2.527185395371438,-2.8927662699705343
4.645259733137024,-0.5969214255501019,3.7191207068710463,4.37490286039435,3.489845036856661,-1.9451640120694091
-0.3585954076135776,-0.7829902825567281,0.6117873980232302,0.881669867974126,0.4519189706685401,-1.9411573974430056
-0.15729896779129793,-0.19536371338240166,0.8237653371943685,0.3193277773249207,0.7703763214431854,-1.704671178596438
0.9380728552192691,-0.8333618305427338,0.345135794261183,0.07491870626749546,2.809147399708948,-3.1468677720995677
-2.658345633403901,-1.6072626101067706,0.48681551171772763,2.3941428945502796,5.762481680114276,-4.135525857988055
4.203381178101608,2.813525469629691,1.2023115359730498,0.9989730446802234,-0.7731026806934638,2.6261004774630643
3.5525013212831897,1.3180661638144635,0.04872753534074462,1.9053693760985817,-1.154994700186529,-0.41974062376349397
3.068740107355211,1.2464929518169616,-0.6507215343007691,1.8785636390972336,-0.7595579084930639,1.7627933393691246
0.5658128694972162,-1.3969727907108291,1.795744892673126,1.773142030277028,0.6458672830399381,1.2925289219251204
3.508263491884776,0.13579477504102438,3.563181973791592,4.0522658239850635,-1.585451797330437,1.5924870495615968
-3.208700121227145,2.962037560045807,-2.53969422485436,-3.299197220661252,-2.9617219893649707,1.1798893404069726
-0.18796038446986418,-0.20265474846542514,-1.1225809005073253,-0.09658332210480795,-0.7684550096975364,0.4923983568446743
-1.6095327559414878,1.8628411448662434,-0.5777225048881848,-0.7103683021278817,-1.6196285713005683,2.0859419047051584
-2.362846672744994,2.254034050850057,-1.5207836762181228,-0.809451067763355,-1.7071956038943972,2.2926810120649415
0.9627797780366202,1.1281800234793624,-0.35891479621359806,-1.9540986057953529,-1.873182538810874,0.3905103800304174
-3.888624550437793,-2.0379531860765536,-1.020776344395763,-1.970046617927731,0.6640130937557974,-0.8189275275774903
0.4709494125874635,-0.3090264243237214,-0.831150957319714,-1.0199817876955164,0.97954849646943,0.13215233748776178
-0.5456459460434452,-0.488224678953721,-0.26064367510332304,-0.7749290483900277,0.3268745778625723,-0.6021253819939918
0.030832334935061045,0.564907639783303,0.6090630079425976,-1.544348476204806,1.1380739363749535,-0.9320251023141677
-2.098996769309986,0.1418187663742425,-0.9611611184686758,-0.720995051328582,0.7414390939870723,0.8894767545039104
0.259965950577282,-2.6882262713085776,1.2688615668453576,1.4640779939533957,3.5716618840518706,0.719279254774793
0.432475100776441,0.9486492590321379,0.6963572588853874,0.6573252208433422,-0.34396013158340016,0.6467942614149488
2.9794143240062576,-0.48185569159739094,0.4249614855554361,1.4241011195611426,-0.24698555432993752,0.4204888041977472
2.42431712811921,-0.5600055234500287,0.7214660482012375,0.7365049273317523,0.8003904790272963,1.1104633655525806
0.7504423683819211,0.8172714750581384,-1.141207526797708,1.7763922601203972,-0.14327522247939672,1.894735915509211
-3.560495334078037,2.7344208164007364,1.2518264522397473,1.4693240447296272,-0.9253985618199153,2.3368297726157987
-1.3022416656147702,1.1978803112891103,0.15157023584966317,0.1956281425117697,-0.1810114698314404,1.7883779206841905
0.6418019765514182,0.3572161737967465,0.6178881437280801,0.2006405285412199,-1.2921764158868245,2.2573121378614096
-1.5761755102564101,0.5114060432211192,-0.43604955886574526,0.29340218802743295,-1.9728198605989609,2.318617211051328
2.040044621371267,0.5011688137265089,1.059988287387104,-0.4691773438174651,-0.7420707089552592,0.8529752093626239
0.6917343133097417,1.5722284414777388,-1.6485375789440329,-0.7411538515271334,-2.332032832140133,1.191736530763084
-2.713917397721489,-0.14149942486656603,-0.08837385177430301,0.0014667610834191575,0.8316083039947417,1.3538521658657463
-2.121535629887141,0.031475481533079,-0.11434375953173816,-1.402909716503306,0.24994766549783312,1.3294665680472124
-0.8564461591658865,-0.019313076621800512,-0.7838066682467699,-0.4047464133568481,-0.054925620944128506,0.888029771848256
-0.2694002865412344,-0.04651264398161131,0.09373321440453719,-0.7106622276844263,0.5989235268048254,0.6465081550758789
4.473091042536794,-0.5190427824092655,0.35063282598751655,-0.9349970975373634,0.114435666202027,-0.49144129170518197
-1.6950036469209424,-0.010912981557305912,-0.4589441848684811,0.021316405812702832,-0.0955701228835988,2.0524609952284183
-0.5977241457050574,1.0027935929294356,0.2965028557382,0.793494515630937,1.3190135650455217,-0.24382116442123766
1.4870905907384393,-0.0008332149677710565,0.31673947626129423,0.42462259863848734,0.7490930001829137,0.29601846663184417
-1.0193618435544962,0.04336833952049507,-0.1810672828935628,0.3223646502961467,0.4747683591668105,0.47798091975083246
0.7714879978114668,-0.67393211707206,0.9072633434531929,0.476268715569765,0.34255720003918627,0.9462312517364988
1.174494497351758,0.3669085195397723,0.9205297100216726,-0.5398325931070996,-0.8475922269258227,-0.06545605927094424
0.3770782762789249,0.7760934417722016,0.49316616804225016,1.2312286071092144,-0.9730687492791209,0.570742210359956
-0.4079973770355486,0.7827379117382499,0.7876004470709465,0.27719647089509,-0.5521516153346501,0.11962296557027048
-0.1662288785694374,0.4569000056389454,-0.30072809708801573,0.18597413759146153,-0.414487762000573,0.8478794900419773
-3.4459771619678126,0.8818129083748331,-1.4384340944569258,-0.0872842927794614,0.6313641607674632,1.1799903406972772
2.0551684171865525,-0.5786723238832805,0.19715377001982098,-0.1949183063792315,-1.766767284182162,-1.0378586515468502
-1.6050204122636855,-0.3369760887289843,-0.46716121928997345,-0.965139025706752,-0.0436774315849002,0.19868892353358214
-1.6012133924331122,0.09218747552256298,0.2838829331811122,-0.13180206027798771,0.3371330185158612,-0.4758337565324555
1.3815313848521822,0.23010694118199732,-0.6332157380889558,-0.15436074872835104,-0.4482847077513449,-0.10962315752532564
-0.028329780488838385,1.1067691393645438,0.07029380233107241,0.06385394229059815,0.1015589204625848,-1.1915109942447242
0.11158775101363136,-0.465374415531085,0.022247357060079964,-0.14815461535547156,0.574252824010996,0.05605863858185564
-0.5658417717190183,-0.5172439907567189,0.26799455535096184,-0.33338762345786443,1.188778734066331,-1.3358268429119688
0.8791805410951818,-0.016124484531348026,-0.6421183017217285,0.3468362372183603,-0.1804817783673396,-0.6410671895358836
0.3361651649096895,0.1606678422094165,0.43172239443825006,0.0632487263003373,-0.12577274721482307,-0.670364559670823
0.803242735830825,-0.30993200008580146,1.0178333034381413,-0.17122186328757705,0.25459097063716957,-1.3488983720289511
-0.07997549283359973,1.0871795460898654,0.10829395904701836,0.4972702658598205,1.404913143876182,0.26296974432940834
-0.386284681781033,0.32972186916390234,-0.03279222448181789,0.42354415093436876,-0.22534000370883667,-0.22315533244155086
0.5586836076943446,-0.8156686004980173,-0.26474242926911107,-0.3715835154967247,-0.5958043241386615,-0.7151769104806894
-1.2249363173822527,0.502063155058713,0.31590610648320205,0.1476568936955315,0.9792295395682759,-1.1134804083142038
-0.11559201577592174,-0.40729408335270306,-0.2992587456705168,-0.13723156542009696,0.4309119805184797,-1.0752244745954782
0.6315890438301415,1.1049539458464281,0.6970600413709074,0.4829691881285071,-0.2499536412405978,-1.3473148629505345
0.24903773872602808,0.20751500501649098,-0.49026319715749656,-0.1038675356779831,-1.2710146549658627,-0.8675135610948566
-0.41106115980382063,0.05350713553827947,0.5584461314035513,-0.48084667219726085,0.021008604490473166,-1.698935542068839
0.9205539151258448,0.31824217187493664,-0.004340169251898819,0.0574636282948523,-0.02279673222887555,-1.8153616554811465
-0.2363035849257132,0.9825778231495068,-0.07613012672220001,0.05715390082270676,-0.04683478346846015,-1.5297215415252274
0.5149293699084662,-0.2138821053421798,-0.3869662581462777,-0.40393862956165427,-0.6309279060112148,-2.4321230478692617
0.25533613922330073,0.7048954185289089,0.39589516004178976,-0.2301410759912705,-0.14232826528994347,-1.8436411047712773
0.44320769489697953,0.2112649230921022,-0.034204349433921144,0.39674261155161156,0.4979813902754458,-2.1372527323023127
0.493575730186258,0.2921049062235777,0.17238103982620223,0.05679689965004942,-0.3330092559850719,-1.5210372838371413
0.18035042059260376,0.5886725661383939,0.44111037526353963,0.008566619432410237,-0.4136703410525632,-1.5685207841210707
