Gx,Gy,Gz,Ax,Ay,Az
-1.495513,1.0917830000000013,5.898441,4.598000000000001,-558.558,35.064
-4.555999529670022,0.7617440415621938,3.5710510094676753,1.838124835296955,0.1999197751399271,-0.34540087129241837
4.9763097739763955,-0.4376790782159018,4.230562762544089,1.2144288182747347,1.407234499929878,-0.8982262540946063
-0.4482811269104744,-0.4799048330462664,5.825863218165773,0.5576098077461262,1.5364698384514397,-0.8851726657541019
-1.9464121267957406,11.66318693005261,3.0418676554684048,-0.16869465361070932,0.7432527968068094,-2.0436959949524707
-5.254715248354771,57.38139018160369,-20.655503535982774,2.6942403163016877,-0.7291947136843641,-1.0792659077043094
0.5659547467861423,1.4438741496433425,14.918810777924548,-3.408053125119562,1.7621886454702433,-0.49435664331493867
-8.852282538000349,0.6931341435995053,3.7156313875685774,1.9654499280787634,3.1258364673962795,-1.3353512179287599
-1.4661390508766519,0.8224786162389138,8.515079933195285,-0.24405443702360458,4.4710815114247415,-4.210629345944136
1.194990609187026,4.788185127356833,8.856515971459556,-3.5231897718383696,8.496527395613716,-6.250682692460712
-11.326470218938983,-15.500523800286595,8.126701022198167,3.0286853806473255,29.52372889063971,-40.15333189185395
7.481598732737642,11.752866982106912,6.23185462626632,-3.48122443233627,-3.930456203306826,12.7947655883044
1.1973336358016238,2.269572490800465,7.716158373595184,-3.4700082011754727,-2.6949718394177617,7.663268859400794
2.6351907291846617,-2.3354206557613786,19.73271009182647,-0.5290172338843356,0.6418616503229331,0.8052784342910305
5.37616751097682,-12.358732927102931,23.02363360823172,-2.3419494916845647,0.8612920875042644,4.543990178289073
8.73342497919828,-6.461535328671781,84.08706662301353,5.769331529794734,2.4911603158002262,5.066987244553689
1.4447479889606143,-6.389809970516984,-43.22176044694259,-2.2470399184526095,-4.9195122103965465,1.958677660448953
2.5984687660103756,-0.9944469154340725,-23.757471188628916,-4.641875813442572,-4.4069065868026644,2.7649691288938083
6.092539612948339,-2.1176967023267,4.426296542814683,-0.4741458861553918,-2.3238482717268685,4.055760774062888
8.908571814442064,-16.02908540744898,5.3838744296609935,-3.546697621330616,-3.009348193647385,3.2513169963756283
10.571459622700196,-2.6855118344188327,7.155150757970038,1.6506560459673558,-0.7642724306111788,3.9177437206244816
2.3269563280471974,-15.659323341831284,-16.0547045653485,-5.344475195173098,0.3182109778090636,-1.1892430891901595
-2.4488279283723933,10.988870489516318,-13.951744479403539,-0.8243881974600695,1.061321429889015,-0.2252492163739066
4.951977007213599,-15.917848639020544,-6.013630725557754,-2.2902584789493394,2.0567009864321797,-2.0154074263579784
-1.089543611800124,5.7378638374376845,-8.28807783625795,-0.8450556883936571,0.9159524039329271,-3.481613071225612
7.154345216563344,-34.557932901033524,-6.650242750545329,-10.224477423133905,0.8886160013074877,-1.9080347472296535
-11.270895739419002,48.14786208806218,4.034274108106402,14.025710731462034,-4.435912112602179,0.12302984821012175
-10.987729645160087,22.947331229302236,1.564842145677523,10.722456771845128,-3.189882032331531,0.2405155714052163
2.436483687638057,-6.926678956580654,-1.1984334895677677,-0.9724000503225546,1.6293719427009998,1.5114356092550085
-7.106774670184335,2.5917948945489773,2.7431528261242586,4.182639808775532,-2.0818385894806504,2.2368782499402884
-2.197788137753831,5.872351780893331,1.82434788258798,2.8386830292397267,1.999199313328396,6.625893670650012
0.016099193030630676,1.2551027737563738,5.158193667181349,6.173067006649094,-6.0995040271741585,-17.25939976951637
-1.1340767257693118,3.9855474195807012,0.17624733941569592,4.387698453519441,-2.552903635798253,-4.264038750571698
-4.164088368569163,8.047042874985747,-0.3770498161523689,-0.5054905301386275,2.8690236488631466,3.1104197248253556
0.924071755028277,2.1491166064238785,-3.916766740256912,1.1878133256384058,0.343788793295992,-1.39130887948859
1.2922237321131398,5.626092250708131,-2.3027765255157067,-5.732897658253291,-0.9723424661868951,-0.1320066372833848
0.5382652918177457,-31.672929385830283,-11.623568937438653,-6.260612797552231,8.134743547254534,-2.95312685184417
1.807193841451369,-3.0461129442774912,-5.07430389179808,-1.809731223714449,4.520975965118277,-2.239455854446588
0.08484085324210433,9.915678585980954,-1.4061955803933461,-5.583493140021782,-5.635889371228557,-2.5645439907744088
3.415777616033265,-3.8112134584755744,-8.064590670551521,-2.890790287863233,3.089443451610601,-0.39859923744769
-1.8581887578062644,-0.25028631357607867,1.2096659666091383,-0.4671019980939021,-4.846426208983235,1.9230401675956168
11.724005247436626,-4.8313110989111525,6.907968508170415,0.07811452610129788,2.2739353296029217,17.020997479482446
-0.08955863710413592,-0.1738567818336978,1.958342285966608,2.0427340468141106,-0.6359452792331872,1.2501782522088392
-2.0268916045254772,8.27785060531335,1.086061126352862,5.818375263337511,-6.526483331662842,2.8862740615944227
0.8026302500128264,6.622253577668938,1.0461956664797445,-1.705856546145593,-4.088048371212446,3.986438504203147
1.0311494981986198,4.959758080693553,4.498710443926123,6.583078024919571,-0.7812976629371449,-0.26069139933778107
8.271552919050741,9.241431230788049,4.8881939721494945,-8.652169173840702,-7.146919292273599,2.4373748835636144
1.4705277097289096,1.247302173216135,1.6433946651196318,4.441522096637996,1.1877802603877394,-1.9741287348318175
-6.378925607238487,1.3206244737076709,0.03159228002074532,8.680220252490239,7.236876370009126,-2.2949982448332378
0.4146046175505232,6.162723094835866,-0.6898844561633362,-0.531474135898885,-2.2658366010250224,-1.7623346046226411
-4.0281371234101675,-1.2453632446149556,-0.015475037280045512,-2.114196142134779,3.600494743888448,-3.7677135472059584
-11.118772305211841,8.739780350902082,-6.500801301819832,-4.941582884611258,-6.66988119475721,4.112104264050856
2.098473931028298,-4.711896174488035,0.291726125005343,-0.8012781812766914,3.179488839630592,-4.219344438070457
4.957700999056605,-9.860034944312737,0.7597432721923683,1.0765648945359194,8.296614089934339,-5.178564003189973
-3.0833796481210634,1.832245274665335,-0.9682247739991782,1.7233758567922706,-1.7831681341156136,-0.06296646621978419
1.3201900137189875,-4.302859575832857,-2.3961950799805702,0.8102863443484869,-1.9899261083440147,-0.2765665106671604
2.763105940637602,1.1669079002237521,3.3233801949898165,7.542237144546888,-2.931771360740963,2.792139175837468
-0.00695284311448318,-4.110367716205393,-0.6933865237846312,-5.840427204961395,1.6250558187869792,-2.1560562955105764
0.6617510861393918,-5.250957977176095,-1.0438303519796415,-2.1209735217731027,1.1899763448086076,-2.1294251379478246
2.444838477170726,-0.3731285463229521,2.7760548710128514,2.3627566405476643,2.7656711561569662,-2.071842366405922
2.1529179662178763,2.4282812139808527,0.5871060456107111,-0.0962451833566017,-0.1299691576296147,-1.1517944517400338
-4.405923425015982,9.496554353607978,1.1336251740070977,3.1061911874255896,9.657378803944555,-3.7873048946782237
5.6263263577180425,-4.004613166412717,-1.1093541848154713,-2.1895661662584986,-10.786748443192545,5.3282558955657375
3.1260998571392893,-0.01405464750014307,-0.7657830382782099,-3.8304393797016356,-5.672725408194976,1.814634167367546
-2.4472067736196115,2.384162601722699,-0.9908205509368291,0.2978437386560425,3.7967019341634147,-0.4128394035088676
-4.843780439834888,4.173267703212785,-1.6700783814107985,-1.9896177338176093,2.778492829296254,0.6093206984407715
0.09000372940836812,-2.1335395275210725,0.31374551189824607,-0.6549722619566356,-0.5096653120211367,-1.0406117147567049
1.3259414343839626,1.4397660657097673,-2.6351369294976967,-1.6835598258270308,-3.891988355806159,2.8086008080226015
2.355970510386309,0.7245962511690841,-1.5328141425622663,-1.1803212420846452,-2.8226154221731106,1.2178232503697364
-2.8413331181289365,-5.33410782412104,0.49706558710635407,-0.6454854214976169,-1.2359968034359992,-1.0253775324168388
3.1676603625302824,-0.5636834864430671,0.026927812488074576,-0.2771486633164966,-1.9894144253232475,1.1393030496767893
1.8915441999965106,-2.059588974339948,0.9548454429950612,0.8471553036741011,-2.542649384187348,-2.0316438886985297
-0.9270754922058478,2.150792246538512,-1.7225990512019294,1.7038266892400435,3.922792249828929,2.5763592537464057
-0.15717863025271298,3.4325167079959025,-0.8335376102946006,0.3161086568018157,0.8840516497452227,0.08059574832478919
4.463173504618683,-1.3320520415605448,1.4425400525870196,-1.505929044469044,-1.9932620994152155,-0.9781048150859002
-1.1285688658601043,-0.8436144850428386,0.11115516655929134,1.571493421476177,0.557673886071351,0.41805011053361574
-0.7487540841920883,1.4738236403947071,-0.5824314960463522,0.21560618921700395,3.3423652352452393,-0.5269844493566409
-2.652188846571536,-4.778181871767846,0.7959420505430856,-0.34702828485283554,1.836726954267864,-0.9949101053820746
-4.168477059864439,0.5887886941134131,-0.6474659496031921,0.6844738400545064,2.239538928131434,0.8284741023788106
0.44881659161186194,1.6767855504874987,-1.6306562106259652,-0.44197894711294583,1.7098308736759902,0.8201024532200467
-0.4299408106091952,-2.6823892383430326,0.2108493788068702,-0.3524471304079777,0.7854689756241615,-0.6962695764706494
1.8453654192129345,-0.5243945599593953,0.10412378112219162,-1.6176097767359832,-1.7447200619972407,0.01205461318748488
-5.47234491898814,2.010430791983543,-0.13606655115167587,-0.4390933496109102,1.4647132268206433,-1.8043008428189782
1.176438418116318,-1.625306583983038,0.34731777187016755,0.375331679866457,-2.080021487543875,0.03632531984467993
-1.447234941869219,1.75085006288229,-0.3631494748266282,0.566622554375375,-1.3017223424851498,0.788916843024906
1.3017268324682323,0.3949984919026069,-0.36873061488388,-0.8394918739887529,-2.1763773208963255,-0.2673419953081845
-1.3391331570567226,1.7794425635203612,-0.5145016259754855,0.7483038905982121,-1.9133817525291918,1.0693250430754602
-0.8620869782825518,0.7794767628636428,-1.539015421964123,-0.05743450747307477,0.5772780621277296,-0.0189025183896633
-1.2375927599885368,2.3535434242916486,0.014261633046208009,0.5875408451772819,1.1348169949710194,-1.8394093148721715
0.7034248964689154,3.2720193209054163,1.2700783610058242,1.4898757682200492,-1.0095520076123718,0.17192265390929654
1.3081440472602048,0.011282555795615046,-0.3978531369201264,-0.19677477855693765,1.2318771499957861,0.761539060343311
1.5472586105166355,-2.036261675920594,0.33868726087513057,-0.20072923940365187,0.9719672462847766,0.7929179167110465
-1.0667347880395464,0.6695221330013565,0.5560609428550384,0.24339203150043007,-1.156205167560721,0.6269683991696047
1.592872518133417,-1.2206620473172651,-0.6712956153737353,-0.3474382784971321,2.209770455086716,-0.23156036693050297
2.3374383674083656,-3.8780352715835753,-0.28776936963392596,-0.4081295120724784,1.78421764238804,-1.0964415486975685
1.1902168705962788,-0.6977470382801293,0.2129284529626831,-0.8456001889413254,-1.0737288466518942,0.4497535954092565
-0.013923231042337985,-1.765691496160088,-0.299930968305096,-0.393309703885928,0.44045852762776866,-0.43383426074520415
-0.24348698152568785,1.1912560243645287,0.4892521494203319,1.9400602477611664,-0.46357979146682693,0.6099742096760464
-0.48768824605150507,-2.847772627029893,-1.0900702409759269,-1.4319684746354358,0.4571406613160557,-1.0171371235164068
0.5055448143402319,-3.349309464101458,-0.21631972085621887,-1.4284336012926064,1.4201144324232078,-1.5647049507771136
-0.7207993810259566,3.2485219291166056,0.1676843052617976,0.557545738799188,-1.1986074194291823,0.7425911528613063
-0.06247296340398273,1.1766482064268486,-0.07046276339583585,-0.2077540651765336,-0.8229540427118931,0.7475792048675414
0.9085146068123969,-0.2225637848588023,-0.20625521682198,-0.31993948740048134,0.04370175267546542,-0.6673591147328235
-1.3142009716999492,1.735504217352472,-0.45749418431520045,0.5744908955759258,-1.0004641790108826,1.2279290344076077
0.32192614673041164,0.6383472969281294,-0.7194932907209329,0.5870985365621617,-0.03464320409525942,1.0956527593191843
0.49930466431357584,-0.30845694293449644,0.2247424041484695,-0.15745582588535012,1.3619612275975008,0.10698618208601982
0.7213093910971338,-0.34036194079601767,-0.8198974616640933,-0.3581786106120035,-0.17766897182722735,-0.3108760999853817
0.5599038961819005,-1.1430928923132706,-0.23528926560518182,-1.3964901078717633,0.42596714033503247,-0.41856366298375003
-0.952819413925648,3.0136302286541805,-1.1832593886477871,1.386729916625212,-0.6713387697959531,1.285013168470588
0.12960096316388914,0.36439647042457624,-0.7297581575140759,0.630301783389458,-0.22316052845917533,0.6227695677776904
-0.07079648601647204,-2.0783961718429484,0.08729617640434276,-0.7132064138580637,1.5963650207887599,-1.7237103448039637
-0.19063296801700702,-0.12756847710086638,0.6827606927365473,-0.057239720953502604,0.001418663330251313,-0.43597264339529695
-0.5287565507043586,0.450430843184975,0.2983016166761862,-0.09143151178090096,0.02045481762412782,0.06914236459625735
0.28587516432779236,-0.19156595027979315,-0.7054602261752146,-0.02012673454781752,-0.03427229526886136,-0.444174265807456
-0.8184171213561735,1.096959217968085,-0.705116474787853,0.33393528470300354,-0.08424645570968767,-0.4549190775736225
-3.1115800382746786,2.3446691634127053,0.17742670284221276,0.681999294138391,0.48344047179078076,-0.47125007452641954
-1.0589866503318608,0.7620245778562769,0.8299845873698855,0.03999488873418344,1.3420848605830167,-0.1388101111622641
1.2002865269969156,-0.5319056575380532,-0.4849600801257354,-0.2445992751680604,-0.5327539509707026,0.92397114670098
-0.418729233180263,-0.19845069643292712,0.3320270781068574,-0.668586157048578,1.0597874509768122,-0.9670784083270685
0.46102995605810826,-0.46009567870224455,0.062256799070757214,0.6577655177844232,0.16977844372044548,-0.020460529811599182
0.9831595717851107,-0.11031669501425434,-0.6079940412537547,-0.3722284095818233,-2.0368490852014314,0.9217492600510668
-0.08276765551705229,-1.124279305214813,0.17420800283906585,-1.2253448616727354,0.08487726281082474,0.10856748440599018
-0.22653764166826534,0.26767849600542915,-0.5650157587788642,-0.4514403679560922,-0.0807447400434158,0.48933112111669974
0.7871541549525821,-0.6150651814870097,0.5764028067898428,-0.504415066310937,0.7636284216196786,-0.2866327938883149
0.9284427489520549,0.18864881860268595,-0.31815051176649534,0.2890707618912782,0.000505990552845649,0.36784275124299326
1.8770765890314156,-0.4078925473997924,-1.3697881857488754,-0.26916341039116615,-0.8096117460079425,0.7718564715346177
-0.15794534565394117,-0.28917058492362663,-0.42462618384694367,0.35734183632549016,-0.6824784464319337,0.38765362303885403
0.097635257111791,0.5739827282707777,0.14837832644018814,0.5240806751069176,-0.10080034514864673,0.14340223084800946
0.10083277572521743,-0.4652192981015736,-0.5672851475536549,-0.09448377107242123,-0.2096902467763198,0.27235500684215797
-0.3418972539314652,0.6885440200919397,0.3549175297030059,0.112349924614567,0.126442939349578,-0.2487484144216123
-0.14115786171725717,1.4745887284122439,-0.32845422146673137,1.1517914363261437,0.5508680073225115,0.6668138743337406
-0.8650956469867221,-0.15690327800299694,-0.43414426726211586,0.6894299473040681,-0.022092324714175354,-0.2185083421503173
0.7126820526490016,-0.30351010701045733,-0.21503987738545313,0.014282858938067033,-0.08882299445592089,-0.6138279795086607
-0.4244478039633186,-0.5172947661792399,-0.4283490559579042,-0.35924249719075835,-0.3476634399320179,0.2764851502824479
0.3824562144291673,-0.10755464959069422,0.28467687059953584,-0.2553929419760624,0.6364092350097438,-0.9573275930899912
