Gx,Gy,Gz,Ax,Ay,Az
8.578757999999999,-44.22015199999999,-11.895192000000002,33.354000000000006,-462.0300000000001,109.484
-11.300368452676507,-39.272009570020806,3.6665260766072043,-3.1058877349360197,-3.4776024508214074,-1.3771537198834571
-5.870856866795872,-42.53924691662165,13.831709553769082,-4.298730498455418,-3.8099404823093153,-1.4607901783411976
-13.842941434050019,-6.3453473733539925,8.652417734937583,-8.853442964344925,-5.4096713792530515,-1.5780240821541798
-39.56228444007011,-84.84318900687161,15.972387441794236,-17.706213427095346,-7.803737846929305,-4.4961381591973275
29.903609798826622,17.96832776614966,29.45605377282303,13.27206760689558,-2.0849735118836703,7.880688172755355
24.890569096680064,44.209417110932904,-15.940514176568655,6.0614601187383474,-11.81257873024826,-1.1378222788529495
20.898144572992823,9.443332549748527,0.959833981516236,6.454376643305332,-6.305053870770916,3.972853803581563
7.710146051941351,20.24508021476757,-11.40719336693693,7.940980612287452,-17.418104135457803,4.538198505856988
-88.1822058697454,3.4730738301710895,45.79061891753499,-19.6774599936676,101.68090768805737,-71.40906276474394
-17.90736356368025,38.517827706009705,29.1897156999708,-11.474851746886099,-2.0839238495461583,-21.593349514376985
-15.862421019280431,-1.9134122738266033,14.091886340890609,3.256851482585518,3.60900735923092,-1.7205349759065625
-12.07914168257245,-14.734542476115033,42.232732487652804,-0.8164945639087418,13.38831096662838,-19.30613866082971
59.08286716403511,-30.104208721508773,113.68597581794518,7.941973679326923,-1.533537443723872,-6.482061065905169
-35.67701553421179,20.470330258728026,-65.78757492033787,10.441818427965917,1.380857893454852,3.1943572628798877
-30.6247610059184,4.0924087308903765,-14.492257510575236,-3.241976792969863,0.9490905317190361,-3.122458472279936
-10.795205464330762,31.516700218077922,-0.9571305835969071,-5.556538460352163,-1.708491478263804,-12.14686544018704
-12.11434335355235,13.927927523307616,-16.91900538766599,6.3022955888167145,-23.490912929605372,-1.7730489238120648
-8.39062568566133,17.840497361021026,-16.56507853323728,31.06527758281964,31.500984868147775,37.084699909663996
-27.964294691299152,26.46843774772991,-19.31990464427355,21.934961095757878,-10.52164654679055,14.729726603331443
-10.414440355675145,27.20306979625668,3.844157378330166,3.9803881359033157,-10.70186949486739,-0.16656706084984974
-8.59985908533864,13.816240368518141,-6.187350832272557,10.159056106937488,-5.2909404302571,9.694417252388075
-25.732866533820527,-63.01452872592976,-9.519965605216502,-10.398742074212734,9.399806246345214,4.63222257673436
-4.737903467350147,-1.6549691882154267,-9.358986664045332,15.454746874498815,1.6378477669370026,0.5875777363531194
-14.639067945878017,14.784906795063215,-2.14664964879414,6.258126654991603,1.6929825586443474,2.2982722889979037
-21.070775242489177,18.806652778006768,11.065769877396724,1.7765147711051057,7.765986546451523,6.481998374423401
-15.889252594965447,6.165226687703591,13.95254364775121,1.9180004779121234,19.214777166899005,10.055332956341578
24.918099003856472,1.1007777842220456,-30.864857439087608,-7.128702890767016,-25.71980516166203,-12.051179991730653
5.778387926274917,-9.85254584033762,2.837574409911642,-2.5260198429125205,12.97497055051458,3.568438813657306
-12.684548993814715,-4.395679923713795,4.771939939233167,6.304879468984314,6.783862421737668,1.6964930677382917
-9.414016466688894,-10.985675233647207,-15.158666482541372,-3.465739842600558,16.82840738593402,2.02495773146976
-18.480349104006518,61.97702027070231,22.130466115342596,1.2699188712389902,7.246336263694919,-2.82402098241321
-4.440802516033043,-31.869416802515243,-4.211049453134269,-22.825867304662864,6.55859719613189,2.6353652965152574
6.876716926548036,-20.826093314450492,-14.92789670437968,-7.595626149291124,3.404800442499378,3.9090161608889464
12.008365963568686,-9.476889108034356,-2.7426144527658876,2.6893792959269884,-0.6622809494978608,6.62011324553472
13.437221750709412,-9.944088581890565,-15.134602896308493,-8.811796023317035,-4.707782806678248,-0.626008196248717
-25.97513516040571,2.9668528905292946,15.398969274263148,-2.4904216002384674,20.116608311871,0.9960329328699746
-17.617657563472644,10.478578466545656,-6.924708047281089,-3.4256665396519153,3.5424747233512237,-6.976344886951358
-18.9110969788034,25.241851079742993,-0.10177768475409987,0.7901452332465162,5.375801518736681,-5.176563228435139
12.852705529521911,10.410140018904094,-3.1497063663268374,20.701021362000752,-15.355619850010813,-3.2523688335447587
28.816250012696162,-30.00152547845589,-30.815428212365667,-6.658158683512359,-9.744989991029204,1.919822745575268
5.598596574327498,22.02865561867282,0.731388472126588,27.674788187412695,-9.488231173509131,-3.0634003639303207
-0.39320639120933354,14.788336274095519,-1.2580799721268439,-1.6881771145106017,-0.26384159492788584,-2.5822653795818433
-14.560934353978967,12.043355179046937,8.273989176587794,-1.5775954002335517,10.329413586878442,-11.629854278114859
-35.61026733560617,11.665023134026171,15.147981523586667,10.351159347752562,12.128217165774869,-9.82848443800225
26.840670792892965,7.85407514230573,-5.080623216886464,2.283706418272013,-7.417840422523503,4.450388454256501
14.363151226324565,4.118149205400561,-6.317021044154174,11.289162861841202,-13.927547640323038,4.973055009358846
10.386186942328127,-20.517417409969326,-8.437129764794498,-2.734014186513118,-4.253851904275966,2.149908099259244
6.7999124065529575,-8.78488185539092,0.7498394510444042,-21.6716349736417,4.377096978328847,4.748167012738954
-34.353658253212856,29.490283857850077,15.15313072019672,17.485919957722057,10.326041381243822,-6.976539506011514
-3.7922994896501314,-7.143715263475233,2.922504087131985,-27.677912545308903,9.876982324076199,-0.3978692269370008
-2.8666554762006276,-1.950286825146371,-0.42079602476347766,-3.7215337734114975,-0.5267395095973011,-4.53342692437419
7.626206706603387,-14.421501444879109,-12.644493474291167,2.1868448187071694,-11.913653674247682,12.275602711157726
26.855384121673442,-9.094535557046976,-9.955487694449964,-7.955937276629449,-2.210129189321201,7.381358711888968
-12.189567278344708,-8.429276105745014,10.909357501015247,4.925032968349576,-2.181698331773971,-8.429309146658456
-4.3164540336581165,5.69513788497555,0.7182455665079273,-9.83349038992041,11.468753515672713,-6.959577722613392
-10.399371198830389,9.115905563128692,2.701457025633587,-3.2622714973052864,4.438249197793148,0.35434109478621423
-24.826117550901706,9.760364296094501,9.261561718298918,10.956437241808624,5.968095649791985,-9.834512518731472
31.671656059693106,-22.51970424974209,-14.625129233798397,-13.094377241730399,-9.688629668428618,9.474526856432337
-14.824279626463674,0.6998212473795977,-12.944141738169947,16.967863989328986,1.4334219257463612,2.032851946928258
6.576901439008598,-3.666820649173544,-7.331127069957918,2.4482221554755443,-0.5683675063399845,11.206768382409289
11.437579354386287,11.053518995915008,6.6174125658371805,-5.647372574751921,0.4732855197521517,-5.316976132755185
-28.94534115996651,10.243003565949108,9.119581926181175,4.750363614078443,6.3395830986472115,-4.750989957525101
12.608945524695848,-1.0167851401319816,-5.218835042689424,-6.827134818037067,-3.3066876147170596,14.921488525291004
-13.040888162983771,-3.805480836455345,-7.0120213788119266,5.394955246823011,-2.333711406403352,6.793840173420501
3.860437357515526,-11.917865926671011,-5.732347578482395,3.986033841422352,-4.304840251037849,0.8701609955247602
11.771940763139602,-5.770680782115834,-6.385957906015083,-6.590857240718669,-5.455046849750136,10.821560781488943
-22.364407980120138,14.858101969508361,5.505048316164361,9.87729630924667,6.385663727525381,-1.1606021213469102
17.759524257328554,8.38767649386008,7.710866588741348,-9.040006564597247,-4.861798000004432,2.5625691107117206
-5.233212201052513,6.508461191903499,1.801872382411212,-3.8190736055929904,2.9371567349553374,-8.94456919698803
-12.862404688924276,-3.4143371316312052,-2.7121797545946724,4.831429532255809,2.290145016857686,0.732343337657102
13.655395788543757,-7.690599623835281,-7.4504728326300675,-1.1795039879168085,-7.671919342597387,6.759730715270775
-21.07115038570628,6.532506533557126,-4.121295299088537,5.08734742887067,7.1172573292862245,-13.658422117918349
15.959191792990806,8.25852298156701,3.428841715787323,-1.092820352967582,-5.191440803405959,-2.150238039860798
8.19904416651473,11.61656668498274,1.0799497714226916,-3.7320794583602823,-0.6123219027484113,1.2887539246319122
-11.473411099345512,10.398301885275986,-0.23631601948312442,6.924821448910784,7.549692635036489,-10.667359826140327
17.51870665621282,-4.371911947610786,2.7774814969337496,-4.920674530796085,-5.951144483047379,-1.5266380044686376
-21.14009555283141,-4.3458212161883045,-2.9276836919632565,5.9985455012411055,5.038887147125379,-6.068403110015905
-3.7964714849872516,-7.42378117748484,0.5825839289753911,3.5217196676031555,-1.9200968642158585,5.186128490598917
13.282118231050427,6.604269229279359,0.9138145764995991,-3.0416674960803287,-3.979951112253791,-0.7346155328021133
-0.6964536432875859,8.857780773647637,3.2760989929447315,-1.0113702240286186,6.303727783055773,-5.9599592094981
16.847676677281513,-2.5357899148410548,1.1395979273413903,-6.098450896354191,-6.420623135634114,11.603875772490843
-11.382458973928099,-2.0525454716140903,-0.8460272340871782,-2.795703621394033,3.7264670122414745,-0.9916662699809926
-12.364768750939243,-1.6601056610044926,4.191474890284222,2.9651291831139246,2.42317383647888,-7.4065398185334095
7.551912643416349,-6.653515214547481,1.0013207037421918,-5.789518350262896,-8.169640706850009,9.121221538014392
-9.146517275954594,1.656624856050214,-0.12950556692542392,0.5402114926133603,3.393638139468388,1.8468459075113537
20.176239310925553,2.6728598433846056,-2.0763302984219942,-6.035493361053678,-5.874404127193847,7.0651721422434886
11.821494595032622,6.866962144820548,-1.7152244461878086,-1.40293941849461,-1.861813951392774,-1.1733855579129502
-10.055854939065973,0.24917420024958226,1.3239008351610062,1.516375083100454,3.503616665337108,-0.3810838814372679
-3.2928198397746593,-4.791409194994884,-1.303732554228846,0.7773579533483757,-5.207770231476886,4.378982406671604
-14.113577174498808,7.299907671094474,0.9708710219849535,5.171125948111215,4.908021687309955,-11.468598905053252
4.6074510816447845,-0.6527441821150719,-2.284974449929623,2.7889904483619627,-3.554800418228565,2.8647868718117637
11.471604528573515,-2.648577529431159,-4.883658645154596,-6.363551263929734,-4.446538708831981,11.689598479302608
-3.1285776797743146,4.100698607489141,-3.2028328762280993,2.9481993233188164,6.08092131270722,-3.3814826724167117
4.34872929985022,-0.4109794875646526,-3.1551138025259537,0.07648660863173229,-3.6814846682336757,2.9380499554809325
-16.087596502023892,3.517162484828711,2.638493214932195,5.107903578862541,5.4625480594413185,-4.913689125772784
-12.066489912395113,-1.8719753555925216,1.2630832089006703,0.27185712768856707,2.655037690850547,1.042237660597105
3.1357700541683267,-1.1217941724967981,-1.2727051981796234,-1.0139359034739153,-3.46114076445773,2.689903844503571
1.2330927446266569,6.482154391101793,1.755099823805749,0.7229389948854671,3.9237769588236766,-3.1255897941747848
6.3982653306463595,-9.695097030833715,-3.567726311057096,-3.7500934064345186,-4.072161358359372,10.257950593797595
-1.8383695224304253,3.0721583799885557,-1.3419454084763411,-0.5047470569267938,1.6590679981212095,-1.1548352709690537
-10.846812977885847,8.32934925857158,1.9624197069995877,6.957855264321719,5.06840173143464,-8.915928708800909
0.173199367983627,2.808536051586665,2.356678622628576,-1.363249395878006,-3.2948762305725863,0.3314121185712433
-3.199123510242854,6.670552102597242,3.6556303166493795,0.8335049697552148,3.412006866811917,-3.5410579849063955
4.949755179368893,-2.3448274939891207,-1.93147696880179,-2.886685786330676,-3.692974944866331,1.6920914212902964
2.5097986463757143,1.0961997158774945,-1.8672898160960272,0.581571214394675,-1.1928803771933758,-1.5846063353944038
-1.5252318880654985,0.9334936040788957,-1.5287747635591495,2.026021845500698,1.4925141946861047,-1.2097669945340346
-3.4334579254748743,-3.377217416655231,-0.4023947350750272,-1.1752034609942776,-3.2387008364600436,1.6051135341307947
0.3693260729522115,12.721241630159803,3.9761022529600503,3.3772222052055736,1.5045668216606218,-6.224465082953834
-0.1305538826316477,1.8588465071912617,2.932020130943056,1.2667861050630451,-0.7020220775307555,-0.6677303383146809
5.050199939717481,-3.501099121271989,-0.5776981196056225,-5.473897562450734,-3.753082429913639,2.2579213644820246
-1.6591993084548533,-0.6334524662869851,-1.336679715107394,0.8169894162697959,1.7546257766866684,-1.4975712952736302
-3.0078623653783185,-4.443530473434914,-3.4856086588879722,-0.6181769338832488,-2.5778988365617366,1.210112680963746
0.4907395068568541,6.443375025916168,0.9785566421090379,1.7560596293220034,0.45745030319079094,0.5285782373931323
2.956351326993113,4.74344862848193,2.8276674610600416,-1.631220531606998,-0.7018208356455591,1.6127810717828719
2.4353017835514374,3.765327085405671,1.5766661038774878,-1.3160387163669929,-1.4231540561795222,-0.9166347303564117
5.80002645068541,6.635192848836128,0.00581066619216708,-0.5544204588420714,0.9959929518412515,-1.5348880813138543
