Gx,Gy,Gz,Ax,Ay,Az
-0.6556929999999993,6.985027999999997,-6.272387000000001,46.73199999999999,-515.3419999999999,63.94599999999999
0.3106478267138479,9.935996884434198,-7.726162849970268,0.9973103643449193,1.0447313507202065,-0.912048306657466
-5.139777186324386,20.29930635505354,-8.857920386711752,0.7183766820608475,2.6634479000953672,0.09820276145367313
8.514776054178018,16.975531752775485,-6.001253846900052,-0.16818688464236695,2.346181407446393,3.493068639843864
-0.8054631727389419,4.950358705172015,-21.61568279271629,-1.6204290080264172,4.137844586297355,2.6565290130016006
2.2009125588080654,-21.60821656537751,33.67384037165044,-0.46875450025876786,-0.9604359277501225,-3.5064663859403877
-3.7322328461164886,-7.49802049869772,7.211428126379684,0.9093568742834203,1.8698361929391294,-0.355447977620833
9.913994425629651,-4.538642409996043,4.408902715119895,-2.448482912239921,3.9696626701173425,0.9012308024953314
1.0718166761677996,-2.268724720009082,1.9776538007139175,-0.626348879609165,8.894323974347838,3.018109885325105
9.878018053028494,22.571798973480206,2.0675038182222076,-6.401255520486306,39.67139989078944,0.41484683780225673
-11.695343489637944,-2.2177260980243707,-1.4332455521091443,-0.6350146147403258,-22.642650086768406,-0.08754947017089876
-10.67983325778188,-0.3917955511116953,1.946029403898212,0.3044351125985828,-2.430945958844324,-2.72721112710827
-1.0211300181298562,7.430180493220152,-0.13835699522636302,-3.5625567525566244,-0.6573374007173753,-0.8793117298576614
-1.4349197862700915,0.4558915610110513,6.279210986278211,0.5120640247803072,-1.073944359467499,-0.9084983247548228
0.46920716737509505,-52.17835894388217,-28.344779534790682,-2.684447561521259,7.596937483079408,1.812840403926264
-1.8573015814385092,7.398952304624253,5.241105660868348,1.835833877083194,-3.8059813493172876,-2.3560631049751297
4.6307929464844,0.8360500811225614,-3.1409802061248904,-0.90933155999699,-0.22610563597233066,0.7676576248957826
2.057003887785128,1.213984113227124,-5.471685080044346,-2.006132005575295,-4.676477804308291,-1.7462961473600527
6.128000810815172,-8.350347205302423,-0.4350449176700195,2.3101537323684402,-10.921338413739377,1.9750930231836161
-8.789952622781753,4.0418562131217985,-3.6506982956933633,4.970679321740578,11.893013581517172,-4.314179328915066
4.888540748940988,6.770094194328392,1.4422694322878291,0.3654161185018918,-0.5182842611759985,3.460592504057886
-1.3050680458649748,-5.166449454586273,-3.030942584288942,1.5460219838660856,1.154296156009583,2.341367721417896
0.43046646317806686,17.03420925954147,-4.733342703049132,6.700077697836402,-1.2767073419406574,0.040471549291365594
-4.524091760719496,24.211092146965047,4.832026945851903,9.75893807575462,-0.7472645445048738,0.7729106495057997
5.014894719880909,-8.953310844855912,-10.481366765262326,-8.471700762884725,3.8020516001670126,1.091158023382545
-2.597656491430329,-3.3243378628218085,2.7255700955595437,-2.2844526324997476,1.5049612231967753,0.5608586189046458
0.5979022120158533,-2.9144700806656223,2.593318456859275,2.8911971295734147,4.976143705853289,0.8260159571252924
7.5921845209954375,4.525762949539275,-1.859834096512058,-2.1756106619662203,-0.08979605894389128,-1.4400673914821658
3.6266357492154087,4.738615235513918,0.9966910998769297,-0.4431022578078797,-15.35506699929711,-5.110896759512102
3.7379738340006017,-6.031575138999432,-1.9777970892701422,0.8886341464691478,3.0435835063534777,0.06291389511281331
0.912951743240136,8.13724540512511,3.396840784697404,2.118139494716655,0.5064851600592647,-1.2803017105453247
6.954019646829947,-1.6677429909040848,-0.1344622627922072,-1.5587581537035398,-2.197139568761938,1.4943265408546151
5.574549703723119,5.947662578612335,-3.032174648173746,-1.039797614837932,-0.032483007205817926,-0.4621989936329597
-6.481647947730183,-10.524953053882065,2.1477364465369044,2.7498332983707794,-1.723806574579013,0.43917677188204696
4.33674859687372,4.973761682718162,-5.050684434956793,-1.2452481311168437,-0.06528377575120003,-1.1468514074930678
-2.3096579130425923,-0.021886971724238036,-3.9456859331387624,-4.580232705517659,-2.5202009445423084,1.5627761729553402
-8.100977913838271,-2.618586726048073,-1.9766607992512406,-3.010930272405539,1.8187980153074699,4.499468747232273
-0.40000797723494674,3.2698802403856497,-5.344501006832643,-1.3646138709062618,2.7389896324084386,6.973644951416182
1.8216146686239374,1.8828980998937583,5.056510316551297,5.326801256905384,-3.4031075245493723,-4.127762607934434
8.822077621297714,-2.0314838945754325,-11.80689278974308,-6.168619454988225,1.7505402890320325,-0.4859583788753812
-0.3898517949360953,1.2184980026014107,-2.12986102517042,0.9396357076367676,2.8149235963255026,-1.8718579743043828
-4.8446775979048695,-6.832779066038775,5.804454512479331,-0.7467979518517929,-0.9835138241830219,-0.36697231102515243
-12.328711718912436,5.6705319531472975,19.78040728240978,9.916856009914857,-0.34430231391130384,-0.16358204289024603
1.9922078422546696,-7.873995246180847,-5.56343641353233,-6.150085688098212,0.9692501352358835,-1.2526216860880397
2.8694386728627976,1.6411207794528957,0.2555208081318039,4.921171228774982,5.428363699878856,-2.8686217606374287
7.633443611968422,1.7927126150035542,-0.5230202029812848,0.9007907465641666,6.376800014758731,-3.2949544262228407
3.504635235276102,-1.1718596677190385,0.26594397472337017,-2.8471073828842384,0.8876881420985927,-0.6035945799723481
-12.832649898970406,-0.07897147470390709,1.1266797005889437,-0.6616322902684881,-8.252391986975518,5.245631544865834
-0.7682730978275025,-2.096776328740762,6.090937934928522,4.639214304892078,-3.4585562252796325,0.6901153814433522
3.271205991974103,1.4480121907384857,-4.018585289674979,-0.09411307949985082,-3.5632890590385644,1.212641687230019
3.2993664996679333,2.900118110986891,-9.131655924887431,0.11304665606092179,-1.385420908919588,1.4167517592676175
8.63556543087989,-1.1750061531868274,-9.56746507706556,-3.8806716424162904,-1.7896744375233404,1.3123070894795692
-7.08705180934973,2.003030795126196,11.943711871335315,7.889772606952324,0.29411679073031294,0.8132428794002848
-1.3161639830808967,-3.8565944243529295,-1.079390043801066,-2.743467629739084,-6.2610832816730655,1.7037760528407002
-1.5426430597794396,-0.09246300484970771,-0.22347928745914614,1.3022604012869987,-1.7891027731291296,0.4760024101207972
-1.0260650273523828,0.7502416607660064,-0.6021654451048358,0.936882271516582,6.820803534512683,-2.732540651065137
5.992854725784949,0.11652095661921791,-2.0726314067275267,-0.47830112182300905,8.873640768494758,-3.582967524716039
-6.2976392902481635,0.7337077877174052,0.08658635732467929,-1.9540520088416828,-2.9825750578776438,0.007997915253329546
-1.0336625490867593,-2.5093355955858136,2.56887385546716,-1.0333214389518426,2.803173401815918,-0.24255897381526142
-0.48513919882201845,-1.347871183047379,2.4770737373567324,-2.4963252054244602,0.8184119892351713,-0.12600382655528894
-2.149228214137487,0.5985891463165165,-0.09157925204851125,1.1780193604390032,-0.9019103113365375,-0.24290947598758117
3.5369423952175536,1.2730220774562917,-5.293011082204697,-2.3778697752753293,-1.6791907350001036,-1.0231744622463297
-3.2188595825491966,1.4021083758743407,2.632520886531152,2.573788236832228,4.2590542470664055,0.0007211305135938484
1.1367146092106992,-1.0779465637895465,-0.2617156423831677,-0.6022261234423212,-2.873044357069295,1.5095734239281373
1.618968162984654,-1.0055292639796696,-0.33763263697318013,0.3030578029464611,-3.7754675482725446,2.86707723495773
-1.1765507018144494,-0.13540795276538642,0.7923336854303239,-0.3333099096029247,-3.032490406197681,0.6271431373491003
3.476203407099932,0.03366875983599327,-1.4957186843201968,1.7751394685772675,6.147793168866587,-0.16665284764181276
-3.4905016500271273,2.142923878397821,-0.6841365159747341,1.6252928267019615,-3.974940536253959,-0.18290443609358142
0.4871884469359954,-0.6536119861006249,0.35811348654593617,2.0129102943828796,1.453117278070731,0.26880231414499156
0.18668103870773217,-1.3643537379547048,1.7098749943403906,-1.6101253175702133,1.53115922877405,-0.452424290643898
0.3998885570042879,-2.0344526060267683,1.426690358117771,-0.29118641185326477,1.5636443723399593,-0.02479826717482514
0.6561899393482267,0.725858764963236,-1.4185289333527857,0.19350642991673325,-3.4374738198472383,-1.5155782478308797
-2.0615966816046445,1.8447435267708374,0.46369938082555173,0.7149757317300053,1.3941082757739085,-0.7149745544080268
1.2368047047859267,-0.3818872854405761,1.0574179120751799,1.021474429155615,-2.067284036094311,-1.9215005911113585
-1.458264566338504,1.0957381830260677,-0.1252116957499391,-0.20444532371944568,0.09524366055296757,1.1428783200892998
0.039100961755104205,-0.8150575034618519,-0.2823253560091349,-1.5973279778312557,-2.04084256832011,0.4945776781108488
1.2135238163038025,-0.5080244153386104,-0.39584845781129396,1.3576241629446597,3.317524626398733,0.2730882964885316
-0.4581951880710279,1.088652280379291,-0.8958813368850093,-0.7485006948797945,-0.2873111605279546,0.11290566889317405
1.56720036595115,1.120689266946418,-0.5242401351564676,-0.07946838854521018,-1.1222472761097324,1.154472481045271
-2.2392077306957625,0.897893307036036,-0.80235612273691,-0.9588649835126858,-0.49292303498975154,0.9579208190609908
-0.6837445440142015,-2.114304698123038,1.2239248691678104,-0.1424470510731408,1.7010884137412179,0.3049225451040317
0.23069757799214793,0.32345613792935546,-0.8262809573287444,-0.9117041326627756,0.4745029917028419,-0.31916520393092046
-1.4046287873907268,-0.21766680313550785,0.2767849175145701,-0.42053179498889665,1.6958121850909635,-0.0015290967889098894
3.9853758063663287,-1.4655563329843562,0.684000398709309,1.2564087801429489,-2.37536558939894,-1.3849196387695382
-0.9393173611834452,0.871793841090154,-0.6473080345079976,-0.018271923302159696,0.18008416361191124,0.3939860444796908
1.0977498634899037,-0.2593856931765709,-0.40433493274971943,-0.632811795000399,-0.3451238718547061,-0.948293505457251
-2.0523520624486102,-0.8919810713956673,-0.8081446290349354,0.7576748893320294,0.27145943886803325,0.4776684865254982
-0.7804945616696872,-0.8342682492643403,-0.7659338498496108,1.1024737781366634,2.0405750559485525,-1.1801693470796009
1.3539191200886846,0.21095600726609073,0.334946231176485,-0.29115306818070547,0.5616847534575782,-0.3333073997360422
0.7739945246236071,1.2605633488246557,-0.34866419682613825,-0.46616846028155867,-1.986582803425327,0.7082046226105805
0.5353974259927814,-1.2257939678799215,0.8706447389292926,1.3986750748686594,-0.08946201485561961,0.6986830705924951
-2.304731467116077,0.9404059082411244,-0.9406598427439978,-0.1997283828477861,0.7324393040101707,0.2933026018950521
-3.5532858238334732,0.2864307921270401,-0.056491163134464784,-1.0308457666531976,1.6323108237804758,0.0841869411586188
1.1896236977968244,-0.6064487247591913,-0.5972804201434188,0.7562984144367028,-1.4235366645595162,0.1226164893810126
0.9659558424784738,0.46726762786600146,0.38201078877520805,-0.04970755255418155,-1.1477145658253816,1.13237692265974
3.039412286976927,0.47024998482740826,0.7083711274021756,-0.09574843420327131,-0.37114197895146556,-1.3446598865588764
-1.8611861605636861,0.6500717972654139,0.4014803022781098,-0.40427127763036763,-1.1921422422300312,1.0926957985917154
0.34287037630128914,-1.3510728847150206,-0.7195812918377618,0.785582755126438,0.3677427840762014,-0.07532710943506733
-1.4850289683623985,-0.359849341386994,-0.3413153290388974,-0.3321298218138785,0.7646897505183413,-0.5364297582148805
0.6840209184915159,1.4294378473426317,-0.04172047016644523,-0.7347818055828454,-1.3246986823389548,-0.42517047387527424
2.7132028770173067,-0.6600408961813046,0.11537331218334299,0.5107440659226784,0.11687030463503612,-0.11358178587024526
-0.21912652560176632,0.16270760259020195,-0.8103881926668266,0.5827600782354869,0.6224595107712458,-0.527975135547654
-1.7360186209166333,-0.10556711588226392,0.5229620759808798,-0.35828031710095265,0.37266054014226063,-0.4173550253353339
-0.953682118272965,-0.05567403450841122,-0.9847423388410259,0.01909697795358628,0.7489093092016289,-0.14777542158841395
-0.18053426447254547,0.43565056246793515,-0.3162599319233217,-0.3255864244809417,-0.5889355203838266,0.9872200743230399
1.2164627578587301,0.9427085699173358,-0.1288447982518415,0.3687129018365802,0.6106021328321574,-0.957688653996491
-1.606018128232515,0.545909978590829,0.2210624138370337,-0.20759410952950136,-0.12468924928851943,0.19127957381596447
1.3209938545901896,0.056140905335701985,-0.1246187168660933,0.6465375649279218,0.5139625656933533,0.3675077975455734
-1.899769787887659,-1.3452572509650553,-0.3215583499936705,0.08733782132564409,0.9169600197676583,0.0058858952951602594
-0.10077781607062908,-0.502284666361883,0.2288875180002215,0.22689603696923513,-1.6262599961471087,0.4912926640556808
0.8453686391881041,0.1549780984975059,0.03089050396906253,-0.14497944797028978,-0.20086382348830564,0.33475167326510635
-0.1416664428839915,-0.03272836274001109,-0.3119369580519527,-0.12639496097630668,0.40496549387365977,0.029658001825861195
0.17978880317678636,-0.34175770725821797,-0.03498927761845608,0.28667452045049424,-0.39970833344821294,0.2137208032617533
-0.1833921882067245,-0.12886911717591037,-0.25820199704747215,0.07580760288503305,0.7925865280388226,-0.4589832813290756
0.12809565679956403,-0.8867693177833993,-0.14363643161251152,-0.14895002258635776,-1.0588365248261193,0.27729653912720675
1.0058517859389355,0.3279504130758124,-0.6643366064978826,0.13573165990357217,0.18080726173823836,-0.11880140586556612
-1.2976928875126998,0.27503556728979944,0.4032434867348047,-0.2767473434477381,-0.550433780057416,0.049047837899044905
1.3751391399277502,0.7612745961760665,0.07404927315293794,0.014602804645264728,0.444764154026949,-0.11081109190725082
-1.1392572557269278,0.16037706943701024,-0.025025785852946583,-0.06884719003232638,0.7042466392576846,-0.41925517674588536
-0.15979648451473638,0.2511682128277251,0.3985367048201035,0.44603714837558495,-0.6049420679611349,0.36931681547542927
-0.3988984245325293,0.2755870804920066,0.03728832045615756,0.47613484824332997,-0.14820038602400395,-0.32336319454498585
0.2138710448141075,0.28707858472324965,0.5863946536267954,-0.038747640192275425,0.04111565562854887,-0.23845379268722644
-0.42726649466356603,0.4102987696959826,-0.6068493033169688,0.2020822821529893,-0.06327260861370346,0.24820218753935214
0.410402871373087,0.29651000438298636,-0.18214959165446556,-0.34923565375872706,0.3465755644056251,-0.12619244787424197
-0.13552392919224757,-0.7473145207356091,0.3085760959019477,0.16146532937380367,0.02701091542645452,0.12629396293736972
0.9125873577875803,-0.5626897627695876,-0.9712054738949649,0.23592826896084085,1.0948983869174413,-0.4302497764908249
