Gx,Gy,Gz,Ax,Ay,Az
-1.9567310000000002,42.100446999999996,-0.038897000000001625,-16.898,-468.27,29.688
1.8535837181485484,35.412228692463025,-1.7010659158831665,4.116209177455457,-1.5997329553853818,3.555005743551193
4.335264657616026,35.012529915820636,-3.8299012785487623,3.6854744053241357,1.3458206286211982,2.569308631392372
2.2583878147221212,32.8028650627088,1.6908987998045517,4.5521507847053835,-0.45619757637333197,3.019622163870482
3.604498056232502,115.4083108467442,-8.640637967163137,17.707647265060903,-1.9175071377707489,5.298823561761898
1.3185738239800013,-29.10721455313079,10.746323456830016,-7.453277735143046,2.0122617272251064,4.204288071299903
-2.9918071064972525,-2.932542172471136,1.6462294356648308,-3.7141119226797374,0.7742669585657316,5.129448817937091
6.705280552153555,-5.892661121395033,2.7520349187184454,-2.5626721378727844,2.3699656402348133,6.521253879387248
15.283932054604684,-11.27049735886958,6.278494444900207,-0.4828033845834786,9.35486397890454,10.552944202817205
-19.123396829868398,10.389059994372825,-9.126803515463683,2.4537146888457455,-24.97399164850671,-17.58752169367466
-0.8405934136919395,11.683541543696302,-4.756202689804431,0.522911761092776,1.8993165269651433,-4.446303886248898
1.392262895404719,12.6468116261998,-8.749839128888233,0.4997209865773644,3.773653597719803,-0.4620439044474274
2.230534516326563,1.6763106627409492,-13.366843038519047,-4.293552384851548,5.712057323340024,-1.4292276063880323
-9.813515955212226,-36.25716588856495,68.79015259077099,6.861698839281174,-0.8776292883687189,-1.3712247717857866
-1.8912781114542514,-17.130718330797897,-3.853670164990886,-0.4218220475555867,3.7703684867288234,0.4068961452881646
-3.084435616759164,-13.507189545229219,-3.529994041981099,-2.1427234250232936,-3.736481081582256,3.1027443909071666
-1.8809525048056859,-9.664076224095194,1.8214786738708415,-2.47746684622484,-4.149342236665378,6.080606946001721
1.8294828215261536,-14.561781174720966,6.245694397426083,-3.0817710296266103,-2.88472951056122,19.64990142704282
-6.418153356252336,3.688122835077415,6.61562830675058,1.3793598028015002,7.084819340553809,-9.930017616237237
1.6241527202897523,1.414061285014578,9.328571694108806,6.115503156254491,0.7312277879952715,-2.631371682562938
1.5752854898052466,0.07527756480599135,0.8503433734487539,1.3998502807430193,-0.4064641155366253,-2.230151193565227
-2.469551018571424,10.105975819101713,4.362899344612246,0.009755086140640301,-3.35429174713642,-0.4470412245018746
-0.31391842884882304,-21.965233606739268,-12.739937056297427,-2.0803723699686985,-3.3947555855009837,0.7835485797608525
-7.401198955067368,-9.348208707280694,-5.795054729912099,1.3680747685411552,4.520645738846386,1.4054979674911625
0.5602352458160254,-4.4379420476770495,-6.7140466712179485,-1.5664989552970923,3.776671027287398,-1.976602559659117
0.051346182597296786,2.6562801589489284,-1.7066975287389559,2.78962280439943,-3.0259955388319835,-4.863694875412832
-4.605957381090054,-3.8288699279351173,-3.9060230286242095,-3.0091701091542045,-6.834792428636538,7.215357084389633
4.272307365810785,-1.7721410993103635,-0.23023746255010247,0.030521860341380658,-2.8864661622164176,-3.446796968318209
1.5529308208938375,-7.3881844128069645,1.8984238091083117,-4.288752277686317,-1.2231502404611845,-0.23680782654510077
1.5028423022764528,-7.123365877421673,3.6563389893195217,-2.115853251490898,3.056843553019132,-0.7530643353621658
-10.509354143273164,-21.183626583114943,13.795078469643022,-4.6213913302694145,4.018316488058006,-0.1447511144429911
6.732176157383608,2.364337289584785,-0.39533053197080226,-2.542084804312866,-5.953055275329216,0.8443625596877902
-3.2346638844774684,-2.506689223027054,0.0798457489056913,-2.3346558026288102,-10.534288811188205,4.541865231019304
-5.821896717343112,-4.66245294774285,1.97040264980761,-4.287736035189128,-2.565744272617486,7.824402681690213
-14.198615180371194,-2.8919835649518366,5.60813759824372,0.07586321327016499,8.604495292872773,6.16908931138211
10.218456931812813,-3.7215442203648115,-0.5774483708491023,2.3312803282525554,-10.079800614112932,-6.411090831294261
4.498245731770126,0.7337455021806456,-1.9502158613128469,4.141114769162354,4.457712122375989,-3.6661758367486215
1.1900052898741869,1.1113984943679174,-1.8777536617602564,0.9546975881680972,3.3514099411472373,-0.6595448700069101
-0.9401438334469252,1.954119989589199,-8.511387443977917,3.117602650956859,-0.5546131290733566,-2.766782389180803
4.798313752162556,-11.781875299614299,11.243646359412924,-7.508605529113419,1.0117237893040394,-0.9655305592138413
3.8527859814241707,1.0920647323394088,-4.343164802619872,2.1592932326625536,1.6325105647430769,-5.811427853581305
5.0160421684041765,0.9912815067784853,-2.56289659124929,-0.7985720298139842,-3.411172932988142,-3.7010048633616917
8.10269452005539,-0.6995801268155191,-1.3855498140159404,-1.2119828666834205,-9.952147307332762,0.9570704714324887
-0.18336731221687952,-6.100914672845915,6.580865805266794,-4.843357977453794,-20.04589149741102,13.347671986065615
5.480410865192921,-1.600834235519197,0.12120316546101373,-0.9646183582885265,-0.2649672773307543,-5.990196779441118
-1.9160558905501817,-0.8049966070047023,1.2737598841893445,-1.6581623227024274,3.2950075486326775,-1.5857436057306662
-4.676246368824257,-1.9981178515822067,5.4859803160366685,-0.10060604733711354,4.449852913920992,0.8205751045362476
-8.401888145478765,-1.7335639287238012,-0.20269232374614543,1.1706101810610354,1.5257968106232784,1.428374446781347
3.112710825256008,-2.8072503330988274,3.4751599713604655,-5.127708548685655,-5.2174269833351135,1.3558503019164179
-4.763905825639431,-2.265749446146407,-0.705294336941432,-1.9634062378463202,-0.4309550165240702,1.3475999640807241
-8.122665700069795,-1.1739597924945762,-0.6895234985047765,0.014462373155191208,2.411689149066549,-0.9351105981661616
-6.485374514846466,-0.16567708757485944,-3.018284863498563,2.059065175150469,6.362941716977167,-4.7804379318484305
13.369383134561042,-4.628923839215999,1.094128694592916,-2.3304029460789657,-8.705734966853575,5.633423278841384
2.4297452060601703,-1.5959968743792676,-2.2877026659769975,2.3141279608351244,7.65524571774811,-7.152577467657207
-2.9580334540600357,-0.956326738422095,-1.3500816502666177,0.18545099424046568,4.458695920023206,-2.840567063236281
0.8606592615963953,-2.765292453517934,1.476832852519294,-2.315790957652607,-0.0037494482284763375,-0.9724155230337896
0.45924449486821073,-0.4824090661289121,-0.9495118564278897,-0.952729570401174,-0.3066941566223576,-1.216908723044488
6.6046365450727595,-4.075017102851485,1.045207466947533,-3.1185228816418236,-2.247945281427847,-0.4987750388282599
4.098634480818848,-2.7770380856133614,-0.1575496530426559,-1.9879059959352916,-1.439466897310723,1.026140600583325
-3.2043244677455043,-2.4374302393166962,0.38035021538512526,-2.4893031333196047,-1.0259504998130295,3.032565996838944
-8.961419449672205,-0.4981975053837371,-0.1868487777859927,-1.424998919624443,-1.4119343094865362,-0.6328147356074382
8.525213131149044,-1.9578325311821725,1.8218575723848156,-0.19054595320140755,-0.11804777790599363,1.8035740979877004
-2.8285836368484913,-1.3242967886009285,2.363058063983962,0.8102144858672496,3.9809707600235495,-2.3648382882922263
-7.356650788295486,-0.8476760935021748,0.2640737742610162,0.5460498951160241,2.895736792242828,-1.82796937021351
1.0893860397406905,-0.8879414698685306,-1.20344335003512,0.2063738995273212,-1.763462417319131,-0.9018932017916272
-6.364159266739858,-0.6556108855223003,0.8963679966409621,-2.1726195078775916,3.400576179313408,0.756281607794152
1.9542579085274319,-0.8909945327073836,-1.005978927302604,1.2427743192777543,1.5567669810952542,-0.38576933743144987
3.9060699640432146,-0.6555851445410836,-0.6433077430585653,1.1806952859756483,1.333419570155899,-1.4058616224809117
3.6558200230377036,-0.013357189635113897,0.15236426663997132,-0.0710488335158157,1.7928472553798067,0.13658348669022935
-3.8407586912104987,-2.5783661769588138,0.12419962019231816,-0.7361466848022205,0.6879171272543853,-0.43881829402448236
7.174642590035798,0.7028000733557715,-1.2055664383635956,2.186342255621454,1.180604168859921,-2.475921105959051
0.5958858299869232,-0.1965931621644581,0.5388226358940765,-0.6394585429871285,0.946486221663465,-0.4692109991283821
-4.225844622880797,-1.0830898844624521,2.435977555584023,-1.4390335443238003,1.8596142604276507,-0.17696020448248664
3.0162516604392975,-1.4378498028157833,0.7465814630759431,-0.2922588825507915,-0.4162613806869454,-1.5182776720540727
-0.6807681219724646,-0.6079100268720281,1.0617799666945347,-0.3448520415246106,0.33959195380376545,1.8366728966022485
0.5704121320642656,-1.5965841749248602,-0.571950163664394,0.42923920366399265,-0.03816602755456991,-0.09076899054973747
0.9690768276664092,-0.864997126528161,0.08390594484693771,0.4391719905009587,-1.0405069507972056,-0.19360026527231258
2.7571981640834013,-0.69822910687279,0.20174474644190832,-0.21252867182135116,0.27304660118140694,-0.23155897384670684
0.6872135583563773,-1.7727095692333303,1.28701776903139,0.4446668499309821,0.5240892633707718,-1.0577004839248971
2.7643123303874537,-1.4026324389791591,-0.5050822580539851,0.35881229392602576,1.1992422108146157,-1.9255971091378963
-0.18299453638460111,-0.6230846582316958,-0.7075237507099134,-0.07303646228970825,0.8012436738270847,-0.32049358856408044
-0.6757770894699241,-0.11894456102830794,-0.07176440105720319,0.30210370762099437,0.033003701201459276,-0.08118193550579927
-0.383737957719653,0.6137612449287984,1.536940883642119,0.0760404262655438,0.6496426603781364,-1.0965179917708614
1.1983692076420547,-1.0968322850464374,-0.29834841995119676,2.3654734184193913,0.6438984624018095,-0.4778656436662534
1.9656483060603531,-0.3433740977933333,-0.08495996176712947,0.20147598920530996,1.6589493024323196,-0.4732674986430755
-0.086982940571386,-0.47275729052476495,0.41562198768518327,0.6828497721232195,0.3233342807984037,-0.1156217404175164
-3.8682041184547993,-0.8844281865786514,-0.665447831724067,-0.4130845803453599,1.137213592239439,0.4038532475447794
3.1447556349673156,0.09291872512854482,1.3465994206580616,2.04590781429829,-0.05178271681545876,-1.7085528988652294
2.1122245951306557,-0.33184405933304595,0.5332194820491787,0.9754174775571853,1.1185899556374188,-0.47114280242338025
-0.8162862178688232,-2.002357039232253,1.1544226824276562,0.2881839239312546,0.16557794852413565,-0.3511068444316394
0.12720109419047532,-2.0987804159222794,-0.11266752040703219,0.17379302420610904,0.4228172821957234,-0.5962165855497319
-0.7351138202811032,-0.2180348173209844,1.5973502003943332,0.5929514509319742,-0.9682250149503993,0.31013891469020155
0.12395741441384471,-0.5393080337607129,-1.013321382637698,0.9773377487628597,0.7454727940438887,-0.6486007861096041
1.009380812239633,-0.7547490560267666,-0.5336604148772366,0.20093083943314366,1.0500387393696962,-0.23826398966100232
2.4714552269101553,-0.7240757523263396,0.4940458418911635,0.7197082185868929,-0.4462296254406352,-0.17628594532462785
-2.5195648367448267,-2.060590504883577,0.1412670388346281,-0.14119566769059658,0.2855976003559556,-0.433301494635472
0.019481715339827333,-0.5749260599804873,0.6850584294978825,1.1970231793411248,1.2939205502733033,-0.898643875041158
-1.579359644526841,0.010632259879511885,-0.1798319564912097,0.7074122356646665,2.0047099962315578,-0.5951929540724349
-1.8408166775351327,-0.2724892212639577,0.8559027158348911,1.387813263595469,0.38978510776653297,-0.74632033187074
1.247829089329339,-1.4466632452931556,-0.33243486918395426,0.18321905063946534,-0.563203111854577,-1.0383000723239852
-1.5760707914881646,0.6414327541770144,1.3348770535956542,2.406409754408429,0.771855931636346,-0.2710591630040884
-0.1803441857061517,-0.5710911174925491,-0.1299053471427618,0.7550383683541094,0.803400356777653,-1.0393697972632656
-0.5180078458529914,-1.3559828254502033,-0.681431822556891,-0.07814763361568869,0.6878124027906515,-0.8029675155646262
1.321473393247425,0.21837754826034828,-0.21419148087241122,0.721704126624833,0.2603728478159945,-0.001635539302293404
1.419024964313789,-0.4995669531018564,1.253235734253917,1.4168926403070892,0.12768329119212513,-1.162332868865207
0.7492739493936016,-1.1215650346314947,0.48195699850441426,0.7021776883056049,0.16348312693323053,-0.22552231733840053
-0.45836773088644717,-1.3303423705552753,-0.236992411059956,0.2677452735811601,-0.8107409545245403,-0.7866222276692955
-3.3156947602597606,-1.0421139502520012,0.39154426481799154,0.49599593998061436,0.2568675641638775,-0.27053830190221684
2.0251297238927903,-0.7735437724813774,-0.5039803167904844,0.38408885596002407,0.45174083799854337,-0.012625590563971365
-1.3715802342437777,-0.5302414168785529,0.1726145583383346,0.7534188194187574,0.44918190574536015,-0.163300072375513
1.0226322682499553,-0.552770965752025,0.7278648793612179,0.5818626536496093,-1.4394926084460253,-0.2784164786550053
1.1859116373844454,-1.089478502115716,0.4297491419049971,0.6353467714065969,-0.38220054032133366,-0.6806794360425639
-1.3629754701397345,-1.5367383351028072,0.5155629434563377,0.16959846829210537,0.9165772500883762,-0.23686446924835944
