Gx,Gy,Gz,Ax,Ay,Az
0.750869,8.982163,5.839146,96.84400000000001,-688.278,283.226
1.747563823254568,7.035762699256039,-2.017020743886661,-1.196027988317577,-0.022392819942771647,-0.03674815196727965
6.984925695221284,9.049905880123019,-0.3803164953943894,0.3066725535552497,0.7536850913621189,0.5061574569390732
7.071448307241575,-7.073251812815836,3.796522165067568,-1.2414673997273313,1.3784746710938145,1.6767837943617054
4.41504813822593,4.081850611046423,0.5356501128430562,-3.5317909740614253,-0.6201407276244153,0.21207492541452838
9.573318520690188,-6.217044902561126,7.208896610747731,-8.091663158298998,0.2950795886415738,1.103449377138846
-17.53308037372171,-10.20396664409267,-4.011698133896947,13.161541569264534,1.6786289755659065,-2.4368126700898385
-6.857515859499761,6.2032030334616906,3.2119189307561244,7.159571409554474,1.0931290722138804,-2.7830806248867703
1.7369023843874178,9.24438401585236,3.423037523006177,1.4992440421915303,3.348922420821593,-0.6171159393038154
5.371728740348165,21.8142121704334,2.908920931089887,2.293181368952596,2.629263920937654,-4.641043221468145
2.9421564809800693,11.00770143887737,-1.7050009568366924,0.9476018244569275,3.6108083388044148,-7.881993823874094
38.145704106785516,-20.080077082281072,25.509967859108095,10.02100093333929,-5.611683257878067,-53.806870527057484
-1.452548900846315,-1.6544781528589552,3.20597626861999,1.4388330703776429,5.217206018629744,13.524873565828564
0.05792429907160723,-2.715020755552016,6.821518467152929,0.6092310751784544,2.040846889074928,4.791866251318161
3.1395057752380744,-9.25229705925192,16.838306177081257,5.156035990039671,3.540916575563201,1.05209198817581
-3.993075257898261,5.371899872723193,4.1886101232767565,2.8047142410758443,-0.7842603515267341,3.0038767537553297
8.839375724144286,12.070021142677914,5.537290065121685,4.122256445822805,1.1464947492360538,0.8924449770142387
5.248409104553175,-12.446895905456962,-46.41472552580365,-11.791747724112287,0.06531914809326156,-0.46665466555980956
3.6606542412987353,-3.923427636704273,-13.888019507619715,-2.3697330960898113,0.8586783453104349,-0.5098927262491715
15.001142103386016,-5.215917665800426,-2.2099108296989076,-0.023358620484754122,4.71283676555226,2.143211094391252
5.47852856751002,-4.657665884273728,-2.8014114708176225,-3.548669324420739,10.432965430279838,6.031597419260409
10.872184914189578,4.47378697836143,-1.5183687655831057,-4.017733349708142,13.478960561876256,2.821463234049105
15.35794674170774,16.372378833774512,-8.718001627819264,-4.217790712647504,38.414752765799754,0.7137678489596437
-5.072458303735664,-5.4734548137948265,-10.99685649672465,4.851768041840444,-19.874078907580202,1.1468848023726044
0.9542878776384688,1.930827633457763,-0.34433252267786696,3.96261316433052,-4.892210738149215,0.589835097093182
4.118754155890551,6.833339230357796,-3.284574541322971,6.113335445968492,0.4373349075892279,0.8560360131863163
-2.769201096944925,5.878081479464777,0.22909179969221188,1.2882934599368037,-0.8476515306613734,-0.4281042309602496
-4.037847326437716,1.4266930275042853,8.61589026465881,-4.112538950299721,-4.330344326917168,0.8037890447155632
0.3887741933808604,-20.89900080216882,-14.62190224958568,-27.510279493145955,-8.558935961135031,-0.2164284105906646
-8.939336635235671,10.140773982439368,-3.0676183786447107,-1.0739904356543373,-6.127940915154674,-1.905670522133064
3.2723074862409414,6.25548903532515,0.8125609239982285,-1.997599172357298,-7.792999204813108,-3.6880111990563837
-6.301305539388161,-3.944405677605687,3.835737534203262,-4.697545885730393,-1.0136484623137365,-3.6683185412137647
0.4704144744971508,-10.755969429770259,1.5388862724606434,-3.257733374972087,-0.5738762259497854,3.2241871955029384
-8.653290962817959,-5.2891190902941645,5.898407193441617,-8.194515724234394,11.098812337516081,2.9884538928931135
8.971067891107847,17.577395944168394,-0.10672331896872089,3.542301279786373,-17.936314885464284,-3.570473058748142
-3.6424074230162793,-3.038278766588281,2.3266203685049875,-1.9950951797833527,1.645652910450095,-1.2847817695460932
-3.970441718858093,-8.903077111240426,6.0174744463681815,-3.0313613026058572,7.506653667538086,-1.5919271874490828
-1.092212299708931,4.6170286822039905,-14.449468114997925,7.345752720322993,1.0661250863177152,0.3099242322202691
0.8607159251593286,14.56994424606879,-4.295630745921098,9.793451654528333,-3.773626299051976,-0.4162120114132217
-3.628877698332769,22.008606239768884,-16.676312559949107,11.343175859865967,7.533148255346154,-0.3725639045914324
0.6934899590254493,-17.09706839398713,5.1775602948771615,-2.786083207564621,-0.7408711732215153,-2.066540408062224
2.327199384961065,-4.2250712415246525,1.8839482266131933,2.381737419087538,-0.8165200317801592,-3.1280358250801195
0.42744395348164566,12.491346215458055,-12.267923981639775,1.1051266758853984,5.668829544652172,-6.2103249083846
3.9962200938545003,4.065286549065324,-5.978036429734188,1.626184544853146,1.845574380530204,-1.9935039353617672
0.1763273255304787,0.03516188484886529,-0.5858215153456543,0.4835862675298319,-1.6296753919325249,-5.078624453515084
-1.907963400663223,-3.6251017477433707,-2.7391944678415845,-6.368629533702759,-4.4740543804791795,18.287425436490775
1.7454859104939735,0.6331917662205271,-5.5337597131278535,-2.428066867730397,-3.997134080830927,-0.8256940535991723
-1.0541266732653023,0.45002104924103425,-1.166865851899509,0.3740018975814023,-4.1883494558986,-1.4455834566745223
-3.6142892697697064,-12.385944469645715,0.6113475107537156,-5.977586622454702,3.2723913280701202,3.0587881540678583
3.783033558451357,-5.366595135259346,-3.389286333204261,-6.550017228995827,3.920104948787341,2.6735860582102022
5.3438982163042965,-19.85924855586279,6.702438767368637,-6.1399520629301945,-9.7418246649901,4.028861060049122
-7.245240767944483,23.795103213348725,-11.875518979341672,9.013188830922745,-0.6441362916640136,1.9169434856173493
1.673245076609855,0.1760624991588422,-0.3489979723955287,2.097541408237803,-4.270491184415136,0.4828223376885251
-6.6849114480397995,-3.903929056970596,4.478756487766011,-0.34102710404015324,-7.870073560040147,-1.2008678179992054
-2.8382927625662604,4.699802095260681,2.397029362023361,3.315734858961675,-1.1424122466387425,-0.37994082863046397
-3.299106555595822,2.406235804647175,-2.7435832333604995,2.565548860477758,2.289731527051032,-2.6170994840580732
8.182539913323229,2.5289890298797357,-2.8089829359098513,0.5785135557344911,11.163625463805044,9.82863635323173
-6.604674082804449,-1.6458686138616558,1.9320355151955375,0.7042561610942786,0.31971868146460114,-4.279698396981638
-2.2164451367291544,3.7934699893269217,3.328888162316913,1.7745808070149913,-0.16763937283432773,-1.277780986433818
1.1383374096402483,2.7996464079788836,-4.544207381633539,-1.5141932318348772,-0.8071983275644661,1.5799214826929404
-1.067559615926739,3.138861385771193,-1.288975249511013,2.0093250027270093,-1.308962102652595,1.9808540713116884
-1.6590652744867969,4.681916244207588,-7.031503503889445,-2.2759045694995135,0.49297890297827274,0.9053956715830769
1.2651671924079446,2.3299406239377216,15.440265363487697,5.235156272631381,8.08211416738866,0.18771485469090354
1.9566011107295025,5.509951828083201,-0.3897046940005721,2.715395095613176,2.219294545318891,0.7342127786012125
1.294659630222879,0.13917999674729115,-5.928758333807605,-2.4235993418560504,0.9941825931053931,-1.818619451961442
3.2603196912732506,-1.08173524699821,0.7487691060003101,-1.5116182481691411,-4.231430899414494,0.4932248094507994
-0.830190365581334,-0.2959133543733729,1.9966494836134947,0.7718151500387476,0.5479824257973702,-0.5199754350745027
1.8796223721550227,-2.2229741294881884,6.149885503672706,1.9515405511234054,-11.069596977720717,-2.0635829017709053
-7.054263136719974,0.407857507846475,-5.457072586354053,-1.669831977292957,5.906186512541406,-3.1941775415949896
-5.164408800567756,1.9152994014517026,-0.9544151157767189,3.421566247079057,5.856761884132792,-1.9142574178439378
-0.38674334943770405,-0.45722786078857247,1.5393274700646065,-0.4103746645814603,-1.8186183396673365,-2.261249716999425
-0.7433103747850067,0.3886255438270929,-1.1118424186819125,1.157043171789529,-1.0188778835004708,0.9261880366363313
-3.303972271508087,-0.7784899768321045,-1.6471465068703304,1.0310481714193802,-1.5179682588414387,-0.2108500684908755
2.6315723966702143,-3.001012006870852,5.066447526157304,-3.1603929400717092,-7.210173739658608,0.5159303883045643
-2.4153326819464516,-1.1370317742111578,3.0075877719147424,-0.7874816393480217,0.7303308455952582,0.5288004997607985
-3.7191358163157004,-0.2651408112915583,-0.5789403060749408,-1.0765157170702384,4.058026703354415,-0.9901629413071162
5.392925829750698,1.332677018547324,-1.3208259529939301,-4.062191565631668,1.1952284630752388,-1.5414614939035192
2.2541431207138904,1.5351843534851533,0.7131327781118695,-2.219598693831524,0.8602243515434589,-1.6890672516250547
2.270284853504366,1.9555845861515744,-3.8916838115196724,-1.079612176303786,6.3721427860368465,-4.5172960240592035
0.8683606272574562,-3.134621217889528,2.0087088190614466,-0.9814191880484888,-6.353522462124195,4.898917265780734
-3.318907684716356,0.5644384402959504,1.6827230724245796,0.2726128989249672,-0.8065165366988327,-0.2004383526530047
-0.6362821167208281,-0.6780387945522435,-0.006920982224418948,0.679486442911957,1.5218931360166552,-1.8225209887576344
4.030478624658686,-1.0031033617026353,0.7108934780922977,-1.599170338356572,-2.4177147484108983,0.6959556319726667
-0.8372221031017424,0.959102970313505,0.5671444952242588,1.3119951312567153,1.3183220323508271,0.7874836003095788
-1.3144314617874535,-2.3057048124231647,0.49092016277297357,-7.159460219366281,3.670432038648343,-1.9226135677033265
3.681342405292303,1.4502243081924524,-2.4895374412754885,3.102779077237212,-1.289581220953949,0.9875942994046298
-1.9694564737915787,0.7352439396330477,0.7203536471621291,1.9569595201571044,-1.7802370107671028,1.459092767063713
-1.9404142700460674,-1.1144798475456237,-2.4069652899706657,-1.5934153364585404,-2.635591468231228,0.7846776038300654
-0.24321052485493233,0.15075185038329053,-2.6831101214161786,-1.1232724253772113,-1.1187120003735522,1.2235383377640443
1.1915365737742256,0.9533944572654618,-0.7987830700512515,0.1001699459625196,-0.27679592196094394,0.5923768653576158
-8.717784462292661,-2.188529380439206,3.9873859615838665,-2.0569955079139137,8.21464993528024,0.1278738525709726
1.0050895898974357,0.06735857381813082,2.1039031388025884,-1.3972025839460542,-0.37823963550854245,-0.5972428954505727
0.6349351700824128,-0.8971765222464554,0.9109622431204878,-1.6672644576057971,-0.18574816055878618,-1.05064648841718
-0.030540177403387325,-0.07453719220421018,-1.8540649764441994,-0.8538445796139671,0.7744900152423401,-0.7156737868438678
-3.8285710548810648,-0.46805440532992737,0.33339311186046094,-1.0386454004692656,-0.8031460782796865,-0.288610452803514
2.2545503055406715,-0.028852300284984533,-5.636804090276513,2.4958835525573484,-4.549748366058671,1.9766875511063398
-0.8913227794128891,0.14122814260323402,4.570125973587876,-0.6877858264505701,2.194528861778631,-1.2171463453080467
-4.285676392200127,-0.3627557853303849,1.712374398675141,0.4945012017801006,2.322819032720049,-0.6773713169318625
-0.5974409967979243,-0.3907005989742369,-0.011371667150626541,0.1211899755526894,0.459344770404583,0.330452679338773
-1.8481941755063325,-0.6830868203940259,0.5029811290911539,0.35291972352690326,-1.1611843268957545,-0.9045105929671138
-1.0188706872627802,0.9135458722174601,-2.474869654509852,-1.2893127390211934,1.4135889398601478,0.7706660687467783
0.4246899112032758,-0.3968130651072759,-2.7506487711249235,3.7132163803205565,-7.0113451962355695,0.19186728246949514
-0.4608057117899782,-0.5298800033618232,0.1298939592725965,-0.8826439064863482,3.2764153130256495,-0.21040821808326177
-0.5970020658762842,0.8292029354146857,0.8232271331503345,-0.5238161160425157,1.6759881165631143,0.06266728514650333
3.370321067983891,-0.11741474045902844,0.5432106362493208,0.49711641025893893,-2.642995714731862,0.03816844130805297
0.7680433753328169,0.13271136982318765,0.5001669987686279,-0.3578766511990885,-0.31259496598613423,-0.9018582617918005
0.4379031186305742,0.25551554048391134,-0.659288696326593,-0.6241271090036411,2.4485954269260883,-0.011758310435687758
-2.7260500728162516,1.5810793508194543,0.08841350309776685,0.6250125882560379,-2.338085638144794,0.8206707969293267
-0.4458778417603364,0.14352263714747515,-0.08730256583435725,0.653061794793288,-2.1381423094724514,-0.23482420325869202
-1.8420697887810586,0.016837959320990414,-0.02643408331376529,0.3716081940020146,1.5719750585954442,-0.5064697645098355
-0.32673609610139687,-0.35019936257190076,0.723188635361145,-0.2948102909752883,1.079387705578327,-0.04400893465844291
-1.0104965777019796,0.9613345554734961,1.6111785432745227,-0.301100157591723,-0.6186561171674212,-0.2129456337092115
2.560644975336469,-0.6004430985011435,-2.1225170459892277,-1.8058707612816107,3.997856793954562,-0.5447064779778863
-0.600633142756188,0.5885754953811504,-1.2660849268861036,0.018580326906597167,-2.451441819791062,0.9411757784264732
-1.1038678795238686,-0.3565382787935296,0.605913897697306,0.26537041275586704,-0.6747362764049594,-0.2255623688505396
-2.675237592809868,0.3399086633450812,-0.9592823177667391,-0.2891155535892037,2.9143630630051707,0.27338406078877664
1.4443567710921887,-1.0618550692587498,0.5712354115312508,-0.12553961463381058,-0.5538916499706041,-0.36498274723219365
-1.444740846937728,-0.23083048775496184,1.5780431731780435,-0.580811770828227,0.00114096541027231,0.7102520125749638
6.421146677503101,-0.30264495106508416,1.786412034584577,-1.6691587182528642,-0.16399372300127735,-0.15698561906599323
0.08138094697097478,1.114670822662595,-0.07013831857776776,0.6663429958857718,-0.03770483227312482,-0.12725283097511944
-2.5499027115722503,-0.646956474189873,1.2403777895315469,0.23436830705061718,-1.23251128919121,0.24968062277478742
-0.9145295050433531,-0.3311519905923025,-0.5607726909821482,0.5556822865931862,-0.1831751705968795,0.05255283149007306
-0.3910765983957836,1.3601977390305788,0.007187425611250464,0.9478590781863956,-0.25099105432182434,0.16829014718344448
-2.42202857733165,-1.8769738991587306,-0.07201635786540228,0.824197746340263,0.9616670099470888,-0.7927249961114222
1.459866481019057,1.0337009788892746,-2.5024507987252584,-1.7637044653403768,1.8017830662542427,-0.3036314042733982
1.8514666077675184,-0.14560168087262193,0.14893021083831615,-0.5524746989404253,-1.3026897084985958,-0.025676200891097567
1.2377179922660488,-0.9404850688172535,0.7416350052103842,-0.3024066921002937,-2.300213027844174,0.7822222821610333
-2.740721986349641,0.6092944553566153,-0.2036952828319224,0.042683863378323306,1.670576042380355,-0.7424477392791831
-0.5696964102274275,0.6825131921685659,-0.8457480519118648,-0.8063064178610186,0.8157428886905167,-0.5073439967722674
-3.811045239420793,0.5078467144608785,-1.35084544726415,-0.3910073453025462,0.4723178496099344,-2.6101898587261383
2.2330742603569824,-0.06299486492225226,0.6122773111939734,-0.578587922980191,-0.3469115989319236,0.40994142146640244
1.7139597597533733,0.12903154384836624,-0.5139990019157412,-1.3165142028755972,0.4761759359990543,-0.05593155492616969
0.8270765233924962,2.016839961555851,-0.2678931387065102,0.5843522961263757,-1.468947633140209,-0.30023533960585685
-0.08950311534414457,0.024684637638438978,1.4160637932237714,0.6067951001233225,-0.3862813954557316,-0.3726334723729414
-2.0548535999812354,0.8360364385789636,0.028840303385417765,0.504003172810755,0.8719952523046636,0.3378101992435659
-3.0825166108808926,0.025464133810054412,2.9535725661406365,0.14684886322493118,-0.0647199343836119,-0.7616442565604608
0.10275166342665465,-0.615484958630915,-0.5967445692138235,0.02380231480098116,0.5802874724841915,-0.18689464299105774
0.684579268486013,0.3882029306351704,-0.3459809199490047,0.23416861640409703,1.0368501939611472,-0.36464320402002304
1.7663513206533465,-0.47966846351587816,1.3512949814202817,0.7587661531857992,-1.4395062641307632,1.12096627086437
-1.2459634917161018,-1.351284326714187,1.2341135511100236,-0.9437879803526243,-0.41906439792568984,0.04978694346005452
-0.8076622679480208,0.21879809348894064,0.4871925520163142,1.3534747940873966,1.1092983822131532,0.09351142425521183
-2.959811344401583,-1.233690641061812,-0.05347335037882428,-1.5717357145486472,-0.3038239155675968,-0.1765846863833005
0.47551708821588345,-1.3062002800259802,0.38948982866555104,-0.8106694217189236,-0.2657020676641286,0.14091460258428157
-0.9470049829674814,0.7233746675765242,-0.738458869010017,0.29047716095374043,0.500903618816221,-0.6004183272437245
2.6845232141667275,-0.3990051317541832,-0.3537861524163589,-0.4247339136872996,-0.797131896188279,-0.04267608999832995
0.9430630235618538,1.2252430189645258,-0.5205710474353641,0.22334226117243133,-1.3429240297514582,-0.06685330317932203
3.911348987838775,-1.5032958460997023,0.00522045478128752,-0.42630849730296483,0.7222429085658717,1.5536759805723892
-2.249045575577382,0.39743509980173686,1.5917008476685912,-0.13593664455143495,0.025090766542348764,0.16855202490006269
0.10792338030736404,0.18043239415440282,-1.054142776202239,-0.5956143159018468,-0.5114847346301284,-0.6853045268957222
0.10275497196688432,0.6420693111938962,-0.430688980832416,0.2163531774320927,1.0272541546484133,-0.26275030677267797
-0.3811640530936369,-0.186290136974112,1.3336105539360414,0.5004195453919849,-0.16455489777747445,0.04865690841235337
-0.8147955784915633,0.3991840637888593,0.3596601527773947,0.41759225790336907,-0.3446912687700294,-0.017107973551104494
2.9068896910896047,-1.7500847406205111,-0.8157472747534693,-0.9547217098124688,-0.27152609898036184,0.8045908490629559
-0.22415763331970584,-0.6055779973071516,0.4783135616835241,-1.0027362620627485,0.19632181397819704,0.3016723210587746
0.9072796198813817,0.415844966686604,-0.4978267074239575,-0.239700031179082,-1.1739428786259158,0.6042441634123747
-2.5216061014002857,-0.49441246975080566,0.6523673706610873,-0.6220306414409168,1.707239934132063,-0.5510076526570982
1.0089689883743875,0.21330566414693752,0.7611169051473565,-0.4887431468765766,-0.46279281145765916,-0.08303524473704826
-4.35076090726457,0.8753282683613062,0.35984218004875634,-0.09619213228409795,1.2284452358823825,-1.2096372191316043
3.7107114145981717,0.45582400827631586,-0.3865691001680984,0.17574746576731215,-1.1272212563866764,0.22992099066017435
0.4549523288812565,-0.17279639142372538,0.5552000391503324,-0.5052434850491088,-0.019850945200653003,0.44971462914671784
-0.48375508928667277,-1.0461709549981828,-0.07436447313748618,-0.768109397700837,-0.5288800882540896,0.556645473336218
-0.5160700590000104,-1.2519652014531957,0.5197437988984843,0.2118554026816557,0.32348589610206957,0.23463297014011963
2.0141119693024367,0.22207930316154112,-0.1569484317405334,-0.8393269669741961,-1.6379661487358816,0.4901917329938659
-4.8929531545885725,1.1417001599003285,1.2221623694286436,0.8908120273658402,1.5795462544303662,-1.4494851273635825
0.16774219935226942,-0.11710936843996023,0.9349415415551179,0.4996466523658542,-0.2957371930752597,-0.23941025561036877
1.1900890740785834,-0.09091249517095867,-0.3937447014387352,-0.8336627688048504,0.6249288825657686,0.016659710832357177
-0.016373812332100113,-0.7076665897563321,0.16474090964229782,-0.17235268132483678,-0.8842414838824284,-0.30438506994145265
-0.39243105758475183,0.14347351077156761,0.6102324009787119,0.132430626903269,0.5030636686431998,-0.22401280828542525
1.1002887893227031,-1.145946464059786,-0.4238769469624766,-0.6363024473971549,-1.0942790387348253,-0.12685972083264957
-1.5270947048431962,0.29094681714533066,-0.03657484812675754,0.14886666814884603,0.6536227682372244,-0.5911457911313367
-0.4285453275775962,0.4482919930749,0.4747771125009582,0.27044767421327226,-0.3416806880444989,0.02787941567135621
0.215363175593308,-0.11040100726566027,-0.7070663581590935,-0.2944505046501269,0.26715749745138007,-0.06318091420977068
1.3064344698858341,0.28715671498358164,0.1884164671150178,-0.04694581627878347,-0.38522365189236163,0.27947655833048596
-0.18445690000764925,0.023072086602651365,0.07334527149583606,0.1281345087150379,0.8655121636291447,0.6982409257946487
2.365657704896898,0.9578399056943728,0.30682589193244747,0.7302014888779007,-2.2228017692972313,1.286497633195526
-2.7614102890851853,0.09768316214113498,-0.1309535845648832,-0.6667007030095139,0.8052718299052724,-0.41531579138879127
-1.5685961161596338,-0.6372056358948364,0.9978829602427199,-0.3287629257054858,0.12730264965118243,0.23882366742519562
-0.2572639102106624,-0.1688857171373198,0.5612669413965572,0.07315038136085333,-0.1559215135543487,-0.06203579628145675
