Gx,Gy,Gz,Ax,Ay,Az
-1.2314899999999998,-1.1611649999999996,9.658433999999998,58.034000000000006,-403.294,50.644
-5.208782442574627,8.973803429824786,8.521981900807791,1.6755629339741964,0.8719731026804811,-1.2638157593753538
-5.354454545122376,12.392335389492828,3.7353101666190307,2.682463761685224,0.29337457709863113,-3.1447601178758804
-10.34759182851679,14.35623563493409,16.961561769590904,4.033753990050063,-0.744225643072854,-2.4158277305431533
2.5278204252544665,-17.33654218242503,-19.64644586900855,-7.357190879786555,5.169394843542699,-0.16365439939122628
0.5339319358707553,-1.6962340924152826,-0.6233589501274385,-2.2591751861944367,3.151997511494589,-1.3898535312735567
5.685474055880967,0.4088227242218434,-4.337967437443959,-1.9205284414705095,9.726077400457449,-4.8183589053160025
5.203324650930632,14.199707629904568,-3.7066260107836193,-7.767104407105219,32.65664329797537,-26.839516074217286
0.79065446703733,-2.6674167092639545,-10.187560761954023,0.4395055678756264,-11.322688144883337,14.144962421976315
-5.706481709579703,11.639590493852854,-12.234386306455335,-4.071656354077213,-2.4884167802722494,2.150967943426729
0.6714543562645017,-2.5898636812105673,-0.6327460998103919,-0.6281485195287996,-5.060792101914963,3.7250821971859374
-12.995129996060571,-26.486319528923154,68.13011548332004,0.4299399608567154,-9.812767695045332,1.6490610207269212
2.4188093139627025,1.9335669596990526,2.2656147292988265,2.238187151702885,-6.373133117143721,3.613924953692547
-2.3935936955513233,-8.665421478958402,11.119848887009498,-2.834529936973305,-7.088811689099573,8.310068805177778
2.0374002884898177,7.141971935070403,-0.48934509068312726,2.5040111688626276,-4.772406899826265,14.628145356553835
-3.8645885431683453,-10.871229327851434,11.584837522959537,-5.2920134634425615,1.8971652409384316,-14.239191293655988
-2.9442281472108043,10.148017860848517,-4.049651357749859,2.693708462947332,5.727704628372006,-1.2176182395025292
0.9377108858334118,-9.15598908260779,-6.771832996337938,-1.3603346580762565,0.5636005478369723,-0.6179205373143994
8.029915226909079,-21.597146477880884,-18.57213731589737,-5.038092374293532,-4.000097677757563,-1.5808200536354646
-4.09127627924511,11.311060335718372,4.93475836087477,-5.628107555398694,-2.2975578129302816,-2.3884580476612705
-1.9276291405171548,-13.985416975764576,2.8876241929434534,-8.15549228889911,-4.073745333383224,-7.352793938222289
11.860271609457591,-7.87950306660807,-0.22847677033190972,-4.836480157901159,-4.755392101355271,-3.5873510246825986
-16.473033189265756,3.1192033001884107,-3.8300324693351087,11.239818307743906,20.79922140477009,14.70394665086983
6.785457400608846,2.7572721052774574,4.113397031184029,8.460586109198758,-8.920994290252892,0.3873005641668832
-6.321082404423093,4.110833588996809,8.154897264686268,10.65535343205678,3.7686044767283846,1.8078637393486314
-6.209441984122986,12.844083824733762,8.6782067940008,10.402217254464949,5.325595377664654,2.5094535144212644
5.199317392241149,-12.518357431298657,-6.5751410752028825,-5.438826233162371,5.673329238130579,3.9568815847757746
-6.070329749215274,1.1623620766978173,2.361781351925611,6.775607385183436,3.1828858604248884,1.7214297057889103
1.7585302388498858,10.566727133457757,-1.6847283916014324,4.214945156736109,-1.7897069783100639,-5.306540820644964
22.919024231336866,-0.6056161301928098,-0.2558567969243972,2.510449682192686,-10.7435834105165,-7.3816114828159325
-9.934772649394205,7.2701285389597246,-6.86915110061506,0.7947032402757297,13.659821488334908,-1.7432237879911563
3.9104639592761465,-4.760818130010312,-1.6874400146209028,-1.8831123698597878,-5.2810910708461,0.010274287647933644
10.444448767418713,0.04757473067918028,-0.9922992557738528,-1.4988102203204328,-4.846592973966819,-1.4303461553467343
-6.04530154808848,2.7821591260311607,-2.3983019961654604,1.6361398476020337,6.18734106419395,-0.40698398686290727
5.267751606792347,-3.8010168082099014,2.280119299055267,1.3386715747119589,-5.8125633244129595,4.785492908861339
-9.115642394708148,-1.5165604803945687,1.5727134456873486,-0.49261889990552565,2.386312466309693,4.391378161687373
-8.141730529610676,2.265370583253687,0.22268200872678823,2.685415063841993,4.855665267139258,1.1764348014708048
14.001620389494892,0.20653376777265642,-1.3115291124802724,3.0271081162532756,-9.066457730373193,4.436624991979555
-7.498788703124143,-3.0963365312726694,-3.5765310210638415,2.3078641572335172,7.660182276791099,-3.2210635796228093
-2.0988693938613117,-1.3362166850312729,2.6997004117544385,3.587788077300252,-0.7736063624071012,-0.39140272627181494
9.362150101488655,-2.8448026915921663,8.422283998846044,0.34264080410000347,-5.745118715159048,-1.4657559226027512
-1.5410963373299926,-0.2408711840413904,-8.790630967277355,1.5198317484817774,4.584506079050792,-3.6225554406269964
2.225065158647128,-3.108685119765059,0.6789480590365713,-2.229170152412075,-3.4358891977210653,0.4416725663966963
2.6578727066159553,-2.0390606248830823,-0.7796933893574496,-1.4352726031231617,-0.713558014928716,0.9441600328209192
-8.19040828818298,0.0002955574735103994,1.2161370486815652,-4.109090050951606,10.859013445650842,-4.904936256482873
6.353565153667329,-1.4126702218052625,-0.7352946472830499,0.7190641533002387,-7.932533854150872,4.830521682340537
-4.988897806025869,-3.0983390244462647,-3.2361577417659846,-3.519166381800206,3.3927637416978644,0.30862306937886963
-9.285669287424135,-2.4932235262436677,-2.8626163553164785,0.8158003574665027,1.9643790563387211,0.5451298231120264
-0.7184753591193347,2.528925354309178,6.355509993643339,0.4220826682056984,-0.7134589247899896,1.6456022576648417
-1.6918031250868104,-1.4650894297214645,-2.697667584179849,-1.67065594744635,4.017750022621804,-1.8372119929892685
0.3064060920722791,-1.942928899567508,0.47905510354433023,0.344679220935574,-1.4332684277961714,1.2447214702672218
-2.952677945067932,-2.9271727297126855,1.4522037189509693,1.0302741699796951,-2.969184125121573,3.3144633457351507
5.035483129270611,0.45223721208316237,-1.324530367448846,-0.2217792112476411,1.120041626120968,-4.699356708505509
-0.08548055003448862,-1.689154637767158,0.3017407199537243,0.05930386075324923,-0.9137981331640405,0.42407610379744926
2.192359205976095,-0.8751040154050855,-0.9527501979193878,0.35190070416943253,-2.2464841325638076,-0.604860220274674
-4.711739783361093,-5.775471168965789,-1.6354835737837328,-3.6732610872416323,3.141233520486484,0.6154623553391354
-1.3958612238799954,1.3601305063609441,1.1917015510386721,2.9466536840294637,0.2684431433058201,-1.9423165578529544
5.413544994105891,-0.740611663795915,-0.5757734080206833,-4.116020699005152,0.026375628838631315,-1.3527793951873153
4.232690370893755,-0.7970812305249015,-0.8231176609648359,-0.8268639214064601,-0.23611761989228608,-2.607557563374142
-4.426956273676933,-1.893658784967255,2.737733481271768,-2.056802156392089,3.3585128232296846,2.1082957034863012
5.944662500052693,-1.7695724701087925,1.0875511660269896,-0.6962716949832011,-2.702647049141042,-0.979527048466948
0.919384317984421,-1.3345337219664721,0.7854037883231868,-0.6033777142915093,0.4508205489842705,-0.6100523373636644
2.602926392450787,-0.7904962374233802,1.2416680855601492,-0.1681480139178968,-4.892073332795265,0.14654333583821844
-4.570255239367018,-4.292175096704879,-0.038422266555536266,-1.7367572398964344,0.8668300677456133,1.4668267719533779
-5.678401641656197,-0.8527527442894367,-0.38531430563498326,1.135259045258512,2.507876054270589,-1.211620049905675
-2.8200887676784463,-2.3458818033561357,0.3410791358668325,1.585545476847431,-0.22169266216987493,0.2611918597012177
-3.0105944941280587,-2.4670535510114275,-1.0897062393374193,-0.42785133865779856,-1.1620223941498038,-0.8719889535801058
-0.9787707686648055,-2.177054613228846,0.17529368790998012,-1.1649171214861929,2.4417152266975064,-0.49429598394678864
0.9054805000000006,-2.1944289999999995,1.352883500000001,-1.6369999999999991,0.12999999999999678,-0.30699999999999994
4.50126536123681,0.11037366463062437,0.4147744612967428,-0.3489511869364179,0.9956290410566111,-1.7882538177473692
5.520375021286161,-1.1046519334858313,2.3753825603411522,-2.2196076156863596,-2.26677170871356,0.3270135242314036
1.9387158303856338,-1.204551272468633,0.2720787631040009,-1.7109845805721875,-2.5981669884269105,0.6614205923628649
3.1366548736816036,-0.33798839751172993,0.6174443180076826,-2.022529355288876,0.05586111978716701,0.37533814479474703
-1.418975480043767,0.6900200961547373,0.7810422727383538,0.5258941857059882,0.4590614647870359,0.4718435002431779
-3.196912571944478,-1.5195329782638631,0.6423269350922581,0.9068989701927581,-1.4330459347192612,-0.6372392888434798
-4.585306507213736,-1.4321417973340593,-0.610832492724628,-0.763479787698186,1.430114297566977,0.03409479081162192
-5.605231623272404,-0.18608098717731458,-0.6954324933928988,1.9270192209719366,1.3398369038198896,-0.2591474240996142
-4.206367809927077,-0.07194557988690686,-1.7529134529960655,1.6368463303116634,3.3131405808434895,-1.2082844503907202
0.6110635640309392,0.4218061827019268,1.2698120316396926,1.4578919249925213,2.071578833053578,-1.1625594473733138
-1.6029420078630372,0.5515497567995367,0.7668005030426719,0.27697891093771654,0.28275550814515277,-0.5024917711843798
1.5996214769323593,-0.6527916357221466,1.2294781284882113,-0.025134246927344894,0.1352713403178607,0.1236769402045017
2.0086114425603134,0.6178078559438458,0.475402862290004,-1.3648849623106354,0.1877211001777706,1.638151114919078
1.8358858159845663,-0.10231355165556066,1.3062849338363345,1.969520658380644,-1.3544529397026999,0.23112063880797895
1.3968172785223332,-1.1618771720696965,1.7378527634972838,-1.725449401976447,-1.6145732224858895,1.1241026625988721
1.1039833473251752,-0.29440118683293637,1.026476435312897,0.10791976237521916,-1.5974747587454246,0.9881547877979097
-3.70476625811839,-2.1026777236663543,-0.7553056695999589,0.2628520276506223,0.30586373415785295,1.027773078185986
1.2784706955829088,0.4181625857353356,0.25451459572618385,0.8902379427275517,0.33764909140697424,0.4259159884572554
-2.4241027715948267,-0.6346422066214911,0.5359116134390378,2.0991217826390556,1.667039358210782,-0.06770995259027113
-1.3171716319680362,2.2616971925263516,0.6587403922451387,2.375450313769635,1.7183041177064076,-0.7973249592153014
-0.12389921755527267,-0.5442033358063045,-0.756249053329824,-1.0027484095135684,0.8011750411228067,1.052941999313463
-0.03972531631545562,0.8937417430060542,-0.6573508882947885,2.188521914787492,2.168857327252952,0.17722163237701574
0.5434575907740796,0.4963603554742022,-0.2629317026521153,0.7353128024485738,-0.231694860611942,0.6656844586319208
1.342952551396329,0.49046673296968346,1.8386568146511366,0.8874028083214586,-0.09361676362592863,0.647592842557847
-0.10866630676347167,0.3428728919777886,-0.5701202008617732,1.3225828795260484,-0.27031768305895065,0.6111740932368384
1.2431698643561009,-0.7785953102366245,0.12002967115150842,-0.8102393013578099,-1.9296119404245113,1.8082595502315764
0.39562911392711064,-0.1101860271530486,-0.7202529772006275,1.4384426629713618,-0.8273532385206408,0.5885129674749723
-0.7430866825606132,2.1735970406309044,0.5997291432637359,1.7997347784121085,0.9575181157775283,0.39496568407681476
-0.7238605844841365,0.5422678821491634,0.03849872964454748,1.1516346144965208,-0.20271208672667596,0.5878485536823458
1.027339016888988,1.793245434657684,-0.5492621813938897,0.8150717316471678,1.8073854918912877,0.549568454245398
1.0927738632243469,0.9708354671094676,-1.4346681255321272,1.0710995176981717,0.7159487865093989,0.08879009193814208
-0.7841030829021719,0.8654151948321414,-0.18284144723352358,1.513346847990246,1.3675255556142,0.2713929605307733
1.1145789514034745,2.174420779007455,-0.2857223869303437,1.5390108303463421,2.4453008944184216,-0.3568464276360934
