Gx,Gy,Gz,Ax,Ay,Az
-16.796590000000002,-5.560037999999999,0.5871730000000012,10.766000000000002,-653.0339999999999,-45.23400000000001
-11.205078433276793,-7.65453391901403,-0.5074841299238283,0.5649107968001678,2.317224390898673,-3.223432025249145
-8.998134986442293,5.449692973382515,3.74162352971143,-3.7641234704305324,1.947370626373835,6.13508296253501
-2.6248398504303396,0.7064865326180385,4.9813517240126295,-0.7881324912789047,-0.28880403098770424,4.137989974300076
7.338707559136551,-12.372977442321924,6.810209837268127,-2.966660210442037,2.4366494969155172,3.8966042323457333
-0.5895638301315328,-11.521093255300316,11.052223966332035,-7.022340452586328,2.3955116848499864,0.9629039167663895
16.916604826491373,74.96681267437333,5.102885148400923,25.30539103025691,-0.7124531284188972,4.0884842250852325
3.294021711208118,24.404523853366637,4.530917450952355,2.858343662896168,2.2574215268217497,2.991496239116679
-3.5268116025352896,5.017192403188797,-2.425577338985442,2.0030390682644033,1.1367473525434275,5.8517165754760505
2.4091712881140817,-7.276806704905392,0.07789079818272415,0.5035471937512943,0.9612592120075085,6.499707519512079
0.43679248244409896,11.314746603906954,3.1740597570924534,-3.2428620029818718,-3.2565947007609353,11.733001143467986
23.30875178011296,-9.264251851665108,-2.731182258090069,-3.051190517497137,3.1718247303727285,23.186621524206515
-19.18380966188604,16.307775039256153,-1.886056223341402,7.8707373388447515,-11.5714114137471,-25.73754888979667
2.996121137418554,8.814225705671033,3.8750292356769127,2.6524760692341536,3.4459504997826182,-5.026311669699295
-1.1569590817664204,4.693665044563032,-0.4787195114507008,3.129025230892338,2.654782018819296,-3.4953752102783677
-4.1210017435242925,4.964965016199684,-3.253968722504186,1.7071992150374309,-0.6172990151568432,-4.314499873727119
3.948075718539031,24.029912858923794,-17.507431426737032,0.5389885667775638,-2.2158519232944816,-3.0809903439078923
8.669166936877435,36.94092623098062,-40.03312092614593,1.2572400732327382,2.2739447987341226,-3.3466733266384288
-1.6810551543032417,-7.87528763984484,18.496870800781277,0.6501128976103024,2.0490354151119696,1.2839872656935127
-0.29739465390284625,4.318721801301773,4.9645341107019405,-3.0878431073298716,-0.140354815276591,0.25176044703634215
-2.431967507090689,-2.2763620880181605,5.1861725267136425,-0.6659824485122738,0.8048166325939179,0.029412679454559276
-2.3454471266182644,8.377922163200989,5.123346688553708,-0.24469377034890272,-5.724311668056833,-1.7319244309147102
-2.647382436268979,7.235836708380976,5.834569686722685,1.026611610510942,0.664594570322747,-0.11953700998445527
11.733845288667284,4.983050284317803,3.958348945681174,-7.090742959656787,-14.74587415421752,14.583905273768341
-1.1582232949993365,0.5743698505664847,2.276730258991875,-0.18586239862658704,6.541796794111144,-5.713658699826572
2.1255885956297416,9.362975255429507,-3.878651385834219,-1.803771876988606,4.4576575078120655,2.534092672884249
-1.896084294941175,12.062642805807151,0.8226791685462891,0.8519063142758907,5.223355706262316,-0.39410686122446137
-0.06766811913077653,6.422113671602931,-3.124300850743875,3.198268142960485,3.0214546424956303,-0.8732458399868626
-0.546064641774346,-8.243701662805623,-0.562243856856213,0.22874988925740786,1.9335241005739552,1.1049708715125977
10.752170989057577,-47.22597984476715,-8.621094385687288,-8.720439888026332,-2.189414746671498,-6.241196135168822
-7.447791784398118,-1.8047027728020597,-0.16067556343110256,1.1503448482037646,3.9251235667483657,-1.7604726887685838
2.507656653812605,-2.584738779142733,0.16332890555078627,-1.8251513533296082,4.057541735073651,1.092779238413823
6.920008133812082,-10.815214347138701,-1.5341140402478364,-1.9221671809193397,2.495896848660462,5.421635148549475
5.762846357469101,-12.60874264341788,-0.0581945661426011,-2.783331969902546,5.921419528014844,6.0730647440758645
4.479346688920353,-15.458621643099583,-2.451793582050655,-4.125971431959066,6.904423260175301,3.4151145058698464
-6.943532534323005,7.660006233663829,2.390193377217682,5.161559059712385,-12.710822354142365,-9.450072443046047
-2.529747442948948,-9.791199511380055,0.06718939777403898,4.247830441067135,-0.39067694790017526,-3.2099941270554275
1.9434336280291595,1.3067094869399192,1.0499955772350968,2.9095793173183306,0.8621586728055188,0.510965668625821
-1.1208667173807558,-11.123370497406631,-1.2072268586939239,-2.9944390441475095,0.04523748293322338,-2.0222801202256955
2.5944488925081926,-12.224422896630788,-4.336204235235513,-5.045060262132865,-2.2353603382394764,-0.20848013162466206
4.256701241498513,-23.41477885649185,-3.104059457739964,-0.9352589292482532,-2.376142338298928,-4.135127840106547
-5.591301951291237,20.06592644882599,6.647671335142577,7.894087405411451,1.6570991049808033,-0.6534851397768473
-3.3907654580347266,-0.3934191775421586,0.9946081590957777,-2.2330430941681936,0.35094500342510404,-0.5910856310063798
-1.9520804675737073,2.63858249189105,4.41705548317938,8.559127453090346,0.29519664864042805,-1.3473363471189348
-3.1300368632575974,-1.150182140428643,2.415525863315863,1.1180038473554315,1.6098363090232977,-0.7561178108575073
-3.051465861434309,-2.0090482116567454,0.4786150228078223,-3.5947973623542566,-8.385007146136989,1.7113231163701785
-4.729436300034829,-0.36244320846505207,3.473267395481238,-3.289215312364749,-8.981547657317956,9.203991393625696
-2.8558824699923897,3.32337736072698,-1.2838537921543813,8.580585571578302,0.5765120855164736,-6.253770182013353
-1.3558792245721354,-8.983260897426689,-0.6217949996041034,-4.975720106235811,3.406172187679257,-0.5749435588102825
-2.135693344305386,-10.581148063684902,0.5294578921120818,-0.8410247921957472,4.859061812322361,-5.237372194621841
-1.1315266388166163,-2.6949669634425693,1.5070312442524139,0.6791993805812996,1.0491983318741462,-1.56532823134475
2.6018557914987577,15.922673294779878,-1.4028263155949414,3.49881666688312,-3.9061314858683955,4.34874296622363
11.634373641527276,29.382010674067494,-16.098319272485213,-12.370330019800496,0.8057153927750604,6.662048294279867
-4.065789707515432,-1.8906463480975402,3.625819219414004,6.836036071686182,5.30088630097617,-1.3855079840803808
3.1616057479169775,5.876710731331199,-5.597516701540126,-3.601589286459898,-2.014650806901077,1.7460488151510105
0.9974968563246365,-14.748350821337816,2.9570361490028088,-0.03704550820552077,5.156833234858907,-1.6383971291777668
2.976229274825256,-4.06771842817623,0.8533626664069187,-0.9838891392238729,6.01067736689869,-0.5801314864776539
0.8137397021921342,5.127870130490417,-3.2814214333723872,-2.545537593506813,4.343803469811773,-0.11861283501522246
-2.1880677975780647,6.6163377745330525,0.12040266685823897,1.8668628711669033,-20.07406384613889,3.537251922566215
-2.709702365857622,-8.324449316084833,-1.8515985982378764,0.07300470786749741,11.78188679476754,-3.873922627840619
0.7231293233251219,5.046720320706395,-2.6716430630565373,-0.7632885521489934,-3.7554555839551442,1.3347341637434007
1.330893636474773,-4.374831515931761,-2.348481666323661,-4.767917992138737,5.809623538855662,-0.6614951846045001
1.7760615308348993,-6.77606755428847,-8.060439850214417,-12.793827607746731,2.1079521802428203,-0.14452451307493774
1.1262817034240677,-9.054172905230013,-1.5583484142733202,-4.484391461227507,0.9014150184072633,-1.7776858350843503
-1.683698054133938,20.92028998960847,2.878847632127775,8.722295194951393,-2.604402179987254,2.8400548554078187
-0.312816174654996,-12.21952895290878,1.2652355346812314,-0.2942146987905607,3.4205208891163723,-1.5387680483882167
1.262049585939416,4.493123158851661,0.7433832844387036,5.082475389047257,-4.283807014453667,1.5003636921886208
1.3556937699205625,-2.9861757294388784,1.2066261842029298,-3.8148023997214784,-1.5578959089811564,-0.9131908982496575
1.3419359591401685,-0.7841888867388307,2.266452775946905,-1.3606322639769561,-6.992733698611831,1.0003834466906605
-1.3917279050575324,-1.2464803105891087,3.423405238396702,1.0459357972991121,-3.4448694043982004,1.1571780255287538
0.6605473116452201,-0.2920869144802538,-3.7512701854824244,-0.40053450177473326,-1.8676414081265786,1.4270227126909711
-0.8464244108694071,-3.1094623857320896,-0.7573686567767215,-2.0498479141311714,3.21794160380029,-2.102369824635771
2.1596178485068656,-1.34158880527193,-0.49151253214303314,-1.3465492755388755,3.410724166010688,0.25328573244869323
0.4694382355645793,-3.035842658746503,0.3799040471274088,0.4505198817290136,-0.3041115038377329,-0.5507214693668961
0.2230046750675819,3.801459418894741,1.7108429144987336,-0.5007297753682318,-0.15715460724383146,0.8998938213247235
1.3628018968989368,4.173024420017659,-2.2345217751440876,-8.329586185271447,1.2964457907774924,0.10737972972562049
-3.196638581576364,1.2709567756611828,-0.5018998738824239,7.115722244427778,-0.14194001390402144,0.8791143112742573
0.904871523928004,0.8658339275473876,-1.4865006710846334,-2.1545604736331168,-1.5524457893173906,0.3498451147362878
-2.6092918317651312,-1.3088189271219315,1.3115298967877314,1.9290550435364122,-0.10041168450798565,-2.3628108598381616
-1.970622335975042,0.9994072395327702,-0.05016671935477135,-4.10409481362291,1.2059392309123682,0.6247534579624077
1.5934300452764194,0.022054912185533126,-0.7711654781941275,-0.3514364344156329,-0.07234771969332443,-0.1566477781057165
0.23814212228760215,-2.8977128376995025,1.1722576025027622,1.642315336329135,-4.791054987060605,0.6907422636330587
-0.5374168475733996,-3.1702959156014328,-2.9491141728571884,-1.9078989747041084,2.027427973908702,-0.36150065632845835
-0.37425818820142,1.0777975625175917,0.16685319312208877,-1.1199496791644612,-2.950878527108713,0.298650861975191
3.001469059167993,2.4650959401901966,-0.5427032155714828,0.7056815602729034,3.626939294349625,0.49908927390799596
3.2593906768330934,3.8824202837394877,-0.7175373018662312,-2.6214567830968316,-4.399390591626375,1.8991383196694684
-1.2170823395143096,0.46254827782746777,0.8907885548289605,0.9134517993725226,0.6199861132819359,-0.06938759547510925
-4.025471050387306,-0.06763733275638772,3.1701148818026503,-0.23108739654672572,1.9507748054699614,-1.7584931611109036
1.5032554504418285,-3.501722250032092,-1.458997562485338,0.38574227244588954,-1.4459572370390168,1.7985261703049074
-0.189154113328089,-0.07869525644505937,2.055393454545693,1.9212737413206922,-1.3187894117992065,0.16680810763317933
0.3215026189389893,2.616789027278577,-0.5454954827601048,0.41530503281822906,1.3418269983803945,-0.9048021248132609
-0.31529377981794576,6.126579972374007,1.58741234313628,4.221747903441601,-4.117668350336681,0.2878387640179919
-0.5175748298782604,2.3173749377510973,0.4483881792695449,0.1545715097846431,-1.1794640656037825,1.0013267291396601
1.8299524689420734,-5.753083498174789,-1.2391527672834903,-1.3240746150316187,-0.9672069991380166,-0.14969095548804845
0.3621389324014448,2.5705648330371424,-1.2826233585391797,-1.0603780667821292,-0.25130481942171357,1.8675313556323272
-0.2707731480600999,1.3896549914145557,-1.3400818089947006,-0.5427411024401565,1.9868890240784745,1.9701679584350678
-0.0571846525301114,-0.368993040974553,0.4934106700332664,0.06288202855548858,0.9565636709678202,-1.5157136040425745
0.5031515888465483,-0.6635502813916256,1.112337956146972,0.8150139480001668,-0.41043768019649796,-2.625566611502207
0.4647590466781738,1.8616214385068541,0.33069116191509984,-0.9385878469915125,-1.6304211099825365,-1.1100767931697026
-1.6692863616344646,-3.0499888961401704,-2.3081533305427193,-1.3853275929589972,2.9222351304795087,1.7303940496386365
0.7382771959294262,4.806918792749993,0.5413298278977186,1.2967004983484154,-3.3671830066516004,2.1940530126313913
-1.1074064961784211,-0.19659338509638744,-0.02401156069003052,-0.6212867297040363,0.07081191685455052,2.124957729858767
-1.5832307536000587,2.4184926874088255,0.0060729023945182425,-0.9037146378324712,1.4487146919088558,0.04728855250012087
0.3069415825298697,-2.8714588095057194,-0.41252285556910273,0.30635908276352386,1.823680642481851,-2.923346321689345
0.3228957785566675,-2.7343565971959727,0.11602622730420009,1.9789284771626685,0.6873499588119075,-2.1086575185016216
-1.8192296872554365,-0.8094834603174998,1.0080379166082643,-2.5415255599549065,1.057577426494113,1.679583655299508
1.3130161059787064,3.7592393867660996,-0.1512936787652946,1.4025846519160527,-2.2599266478903375,1.019570443771027
0.40702519625372413,2.3619408853748167,1.1589989010204513,0.2827666575823804,-2.361448213993868,1.0240750100725444
0.948110588039605,1.883659353113776,1.291356818750367,-0.49917318383520937,-4.55831505745485,1.0985452284507062
-1.5994754653756384,-2.888362429239322,0.11528788535082568,-0.6296756662580993,2.788252447359055,-1.6042363397400918
-0.128035724509299,-1.7768152892237312,-0.3164354621264255,-0.8322486786237661,3.356731405756148,-2.804405279979136
-0.2599753818069792,-1.2974171015663178,0.7765995717663513,-0.2916234563594622,-2.5409260714683417,2.494096905652673
0.9884569747622931,1.0186373090112641,-0.5272889937239862,1.4097622080741758,-0.6572372962725086,-0.16726425515837162
0.29248711218434953,0.2865935296826152,-0.7300921048191041,0.5386030683184352,-1.4680200986830525,1.920188375040757
1.297512816524845,1.1925935978164965,-0.46471713803302855,1.4365712902400392,-2.4523476100561363,0.33426319950148387
0.2607690407344216,-1.0217288115436371,0.7164574563407803,0.23590208070698387,0.6081599093386283,0.09513052552813384
-0.3083208036008638,-2.461778083161528,1.2453174831539067,-0.15910434166986587,1.4946781801871474,-0.88998163916099
0.6583422137516811,1.2726502420062071,-1.121671096978329,-0.529663891944292,-0.9338696026653164,2.56563277425544
0.013673647965598418,-0.5099157377060985,-0.9093751966649435,-0.039928296911754035,1.3987509924052925,-0.10205156625315831
-1.3009685926358854,0.37534560429418895,-0.39559606740820547,0.461839999984885,-0.5639097028346761,-0.30055604052117846
-0.49624719363958547,1.9185929317589698,-1.3749242789956404,-0.3646237059098948,1.3412033067029803,-1.7664373839139684
-0.395686819266379,2.105367508423142,0.24055263349651773,-0.2790206316075539,0.16503344065301861,0.7698071510964841
0.5608053062455612,-3.209038668929628,-0.07196687404947125,0.31447618476940864,2.827425826260143,-0.8521105780991932
-0.12617993989898263,2.059264264227105,-0.37752969500527134,-0.6500331918559299,-2.8207891902043913,2.2936025570099563
0.41673465090558776,-4.247304536037634,-0.8973457531235505,-1.0959432822692057,1.9093878693376256,-0.9700718668359
-0.09719541832017486,0.9117488446982658,-0.7342023008701724,-0.03369482737314011,0.0850094154214085,-0.07175909847503226
-1.2993625271812546,1.218157030095671,0.7030558549466811,0.3397003644472822,1.0214067295153022,-1.0763730007508372
0.04867398442093063,-2.227634528886382,0.8141870211384018,-0.3265825391045607,-0.505387660276772,0.5462984111031902
0.13108398356855094,-0.3175395274651207,0.3233836856910759,0.5042192854843741,0.8779627753552274,0.20492582324452435
-0.2751909548157485,0.6764649724662394,-1.0413524133793992,-0.22660225861431257,-1.625823785340957,1.1303756487762109
-0.9238456724685873,1.7090096546269047,0.20682916167762486,-0.8119058938897568,-0.3332248545548897,0.23903587786990704
0.8762250373484345,0.14988345339849518,0.14593190086014926,0.11021705356419575,-0.4273014616462196,0.15153062684941293
0.44493703052199696,-1.7822998528429876,0.16196558805207872,0.569520106284783,2.174501353574768,-0.9626322068053386
-0.1769833968073391,0.08438785482753802,-0.6770723101337067,0.23766179367526324,1.3313611733749722,-0.8916727477204629
1.4186000818479143,-3.292334093039761,0.8629493685486072,-0.5059823596704116,-1.0217020993575079,0.23216334639187686
-1.3914203405409364,0.9368515483748355,-0.7450320711075478,0.55833852014333,0.03397893659870732,-0.02273403741085578
0.2940007900271303,-0.6285018459246694,0.44737528421708955,0.2452755409464743,-1.9348531606610297,0.9138307725623963
-0.8644902753182426,-1.0694966773217345,-0.3003592943433846,-0.5476301310903271,-0.04498021916906736,0.007016308262791038
1.6482953651844139,-0.9804131019869982,0.2666390231240161,0.7325627347313236,0.6255916477625494,-0.2217996123955902
-1.7436721292934212,1.7701225123764714,0.4050422213522149,0.8458995098583306,0.6821815708332496,-0.25224194010879397
0.9097280008943952,-0.4158399845337237,-0.44446899651521826,-0.7484925085267483,0.08364427253440421,-0.3701382897362253
-1.0022260936534952,0.6295778670659562,-0.27071277035653557,0.3332184416589713,1.1326941612354415,0.9625488388409634
0.06950644771459716,0.9853437248686695,-0.34896984622714833,0.9428905257772624,0.3248373686449826,0.5521390456312729
-0.9434000994754186,0.5760004654194316,-0.9482257234378978,-0.16833217658166888,1.9762184630244912,0.07735047191654898
-0.31582258839595395,-1.4630177991986528,-0.848063925108845,-0.08921227020569922,1.6705652970973404,-0.18435743425898798
-0.1502460847093518,-0.9721021202553293,-0.12643429104399406,0.22373212167780449,-0.4033592255590769,0.015719504235781827
-0.4066668531167558,-0.5637562775118495,0.032886725955469515,-0.9465712882701145,-0.1866294178531402,0.38355567460848883
-0.46237856256661936,-0.5393805150479137,-0.32030485411511533,-0.17192088852145643,1.1939286918649814,-0.13608251153294415
0.24522141491087324,1.6531032151083684,-0.12469543361938884,-0.012674987458483389,0.5332724540413599,0.6622043982443703
-1.07849898165791,1.8440351139186208,-0.6736139926683067,0.9425341254788547,1.6974529364499258,0.6439785501990659
-1.0550601857461916,-1.4198373690033528,-0.10914725079803725,-0.3158024253919488,0.7936711512677468,0.1412838518608064
0.4131991770407178,-0.6067326624938354,-0.6159211417284575,-0.2800109890570149,0.48093673703324924,-0.21376508067299077
0.38599600191415406,-1.6382232668882142,-0.5991289443854744,-0.7871744507124863,0.14336967299699577,0.7010333383303264
-0.18509722337432472,0.3222360268469691,-0.09394693991208958,-0.5234254799183646,1.2640193645660691,0.17485645201908917
-0.4718968271131717,-0.05123366959486164,-0.32788269178419077,0.44348726311972025,0.3564810279797469,-0.08152694146216166
-0.36364879460954574,-0.2960895138433425,0.798894362492335,0.6294426140614404,0.8470249062000405,0.18395748499160636
-0.5142395533501378,-0.23234436417618942,0.3445789274674958,-0.5140198441388482,0.41598271717457763,-0.3019458895660893
-0.5142440180449361,-1.8202325220045354,0.3284277332315161,0.7409931078492683,0.4513228638637118,-0.28847178601284523
0.3497896088136814,0.12166559192547755,-0.25978311268795606,-0.09730367415509265,-0.33693809670401276,0.8880987887656477
