Gx,Gy,Gz,Ax,Ay,Az
-1.5110000000000006,-11.715806,-4.100892000000001,13.816000000000003,-592.634,-116.27199999999999
-5.912114883265703,-20.900117632948103,-9.782725762061066,3.200313289071979,-1.2237145862414258,6.738213461026657
17.43236856164596,-14.078598694187065,-4.736816367235363,0.2858335949746148,-0.7922083390700327,1.9811358326168516
12.114043954110533,-41.32731695164077,-13.771584652462266,2.919197353875462,-2.2483540738774,7.578190527164599
3.308104771413904,-16.041965716916646,-19.29710688993376,0.3042300006976165,-0.007690125174842799,-0.9586195268499206
-8.67481475272746,15.94060888201907,4.636763340605915,1.2171935367334121,-1.01276761374076,10.277006485517411
-4.522525625547737,64.69123250615361,-11.790773333236666,-9.891656963756725,0.17302617605825077,-1.2020833048069908
7.182108674840748,54.191724021700104,-1.6083605055443515,-4.174455623459118,-0.7941821413454351,0.22493980668614055
-1.234202972980214,-23.707096945919353,1.5849829342230406,-5.762210075762463,1.2154717427871484,2.7293855486426155
6.54001569163697,23.04868197367157,-12.665074953925263,-3.20532518757256,1.4936126732872501,11.654834304436614
17.84730621385436,6.924176173045863,-3.782341296051146,0.48553500954081574,10.048040653519443,14.74252206589306
15.193080113021981,-28.564682859341623,-2.468929656640502,4.423128340895573,9.380669864384673,19.166351635807832
-29.279919100356906,4.821067749716054,0.19724351464442447,-2.0487332473296513,-21.48562815360183,-46.52738843150942
-19.63582316621215,21.66995209688404,0.8316985473694672,-4.237266592058705,11.00366390488762,-4.4021158228672
-17.31854727921526,32.793309656161824,-3.994540422369167,-0.31998310767090565,0.09212725684927466,-7.38982191448845
-13.982853532125091,33.461126243514926,-9.15461810181056,-0.4410411164743049,0.4465915779876384,-0.6139922640042368
-10.564354463165127,15.238358070941912,-13.797307463968485,-0.9383404797519446,-3.0744067366531516,-5.577021917408626
1.2204620877180634,72.541971947342,-0.3334894130385839,9.77877851648657,-7.242364742998106,-1.1333832514165625
16.154907885862706,-49.769491626227364,-3.6664987370475046,-2.350770025363814,-0.18279156807767105,-0.7073153029592687
7.077863765723855,2.770446123995457,14.42337143292842,-4.909099302883615,2.0249422174550484,1.0969156128570074
6.893285331128242,11.804259717548488,10.890775169660008,0.32434023857895156,-6.268621623227386,-1.3922415370142076
-2.675756618814801,-17.41885037959412,-0.6648727373904917,-3.950293941535702,-6.623149595705838,7.546631218598138
-0.8319250452492719,-5.4410270281080635,-6.2731594535383515,4.594864171020298,-11.082813942957326,13.553988185361852
6.4713420886028254,-4.4631738351781465,-1.843695295366209,-2.285236919245188,-2.9584414239974524,29.899311859263822
-2.953146530578294,6.922749550751931,11.285568925086979,-5.527033830679682,5.368108649520238,-20.352336212747336
-11.100617426683856,16.263431381485468,12.118551241815672,1.520336453276745,0.3828709518109347,-0.7416940977336562
-8.395070056756657,2.8837400172321974,-8.780244639312846,-5.082015504984149,-1.7343035108597575,-4.602325252822947
-10.840348590980334,-28.734458876803657,0.4709933447207452,-7.192558713819417,0.3470023492456997,-6.162415364342655
-3.346582068087164,-16.24874854013139,0.4207570441102674,-3.373320273594881,6.940193827172143,-3.459265302270307
-2.1447776736676767,-13.40700221287016,-4.102583935457853,11.076387492772843,0.38131217588427013,6.668707779380312
4.194871719536842,0.9215502239753754,4.141611059528084,-5.602868593881269,-5.33593884107086,-3.812268238660507
4.85227547729015,-3.9292660639645405,-1.1711392445869773,3.0443158991906847,0.0682548344240437,0.1862536813096023
-2.5126338352167927,5.74728655769639,4.126813954488881,2.8838256602277172,1.280692298955178,-2.578790203972198
0.40909210359446035,10.526603436108498,6.3734397777515595,3.1046394810007176,0.8983983779488399,-4.097275222574199
18.03549392875439,9.921153870533576,-4.632166001178591,4.4367117160847975,-9.236932906328196,2.845733461341679
-3.4826066341450734,-29.050661011901504,-6.351465224636938,-11.280359454766181,6.75123609469488,15.400379284126185
-7.208615947120659,9.483710947064933,-5.877191940778484,9.423061114885716,-5.604755681043307,-10.724667014136358
11.455523665793315,0.2826657958222514,1.7679398622209948,2.4094418453473865,-3.9136356951896314,-0.05289876785872494
-1.072369812593988,7.212739296449174,-3.5445667787831105,8.575142575704461,-3.4327421418844963,3.5260330678363534
-1.574513500402629,-6.022901171944185,-3.209943217151851,3.1077437325844457,-3.7058007965586626,-4.612249456703832
-11.454645728545135,9.223743129366929,5.804886843042992,7.783002689149023,8.220609249551622,-2.0669173609777367
-3.362075420249057,1.5639863461675763,15.667719743431084,-5.021580809695282,-2.276486582255254,0.8252772778539517
7.470197437076912,-4.418907987915945,-6.825363726790884,1.9910723219682898,-0.47093042832936605,1.674870354056229
-2.4242188847169546,-2.2537032937726664,5.369441705244387,4.0692626733625445,-2.9840419805074374,2.534270950550148
-7.7345699545682125,-7.880377083929224,1.460490027310767,-0.6933693754574923,7.9940234689861835,4.2430491095333505
-12.194673316941817,-3.7181376781754985,-0.11404088041571336,0.7735562557365787,10.955498171288047,0.35762577099755966
4.289156402195332,-7.066042917436651,-0.2395601454516907,-13.088379759248488,9.987559237165971,-0.018961308954222433
7.526089796261315,-2.2993069412085143,11.043483158344902,4.207605642772185,-6.255195298085544,-0.22816291201241623
-11.640443243752138,2.0160385444903,0.887319669448472,0.2909952121224846,7.583414047067604,-4.404146194021887
3.2027864752841997,0.39780231987372394,-10.525385692871833,-4.177427050478279,-1.9723196233277291,-1.514907710372249
8.254223320348135,9.296992086132065,-6.357804027453614,-3.4824231625268354,3.384743907724392,1.1715656641252439
7.524312718815407,13.461057801822246,-5.698178929980667,-3.99998713689483,-0.8748669235338451,-0.16196372508850576
-1.4097550677886215,3.8978866634850244,-0.9424124454145112,0.6299198918816478,-8.056218806538517,-0.0363808478758374
-2.6534866007714966,-10.607129715828815,8.021987257599026,-0.04885774774279428,3.2123732900602624,-2.1237296932287535
-1.8555728078327849,3.600517092473926,-0.3430736289838598,-3.4892114132605156,2.461770458346464,-0.394939354985181
7.389762049908766,4.315421784516972,-1.76755120756357,-3.629790396247673,-3.0587817098357766,-1.0057006691824222
7.670850393252517,-5.194412832144021,-1.235854577344835,-1.3065183142845815,-5.781656334954177,5.596496898210403
-3.605260805695088,-8.43510087062771,-2.6769802782029393,0.5442473776826922,-8.617914284764543,5.1609415204474285
-4.532320701514525,-2.9872535509845415,-4.2281403274226435,0.8553800942919769,-5.27782460500738,5.038690742207886
6.758660439247578,7.6996869880658165,4.157237132217742,4.03745615475107,2.951719720204853,-2.381911296331123
-7.621955431948305,-5.973147269606766,-1.5575192318197062,0.08700221140632336,-0.5403342430185845,-0.014795486574990413
-7.472646618868063,-4.294183845578707,-0.9907796278024144,4.027667418455796,1.0885222513691648,0.007278883493883059
-1.5513982004550466,-3.865405137346072,-1.7767512505261345,1.8570308948783316,2.5988053789292493,-3.8615517198803064
-1.3487242573533962,4.030383390571585,-4.341283087684182,-1.1393379798664862,0.3447029309169096,-2.0914151634668485
-0.005892131255507138,-1.6202846655806156,-1.914056082966344,-2.9269733188673284,-2.708973416968695,2.5762916897445516
-0.5077898428781573,-2.7354323147701134,-2.528181569468686,1.9291333220499762,2.9806948188998943,-0.46621138902738996
-4.092366543880231,0.8113874632742026,-0.6974709712864453,2.214844156898789,4.859875531014355,-0.7889377910527705
-3.209606932822644,-1.7942273964538007,-3.970924080616021,-3.903381189854297,6.482333708889952,-1.6464281994926933
5.165339519386027,4.517469903370235,-3.1328528798146777,-2.081603753765352,2.553338353933187,0.7924133629489118
4.965181862671698,-0.9659545362735003,0.9036521965440993,-3.026774836653752,-3.733563903719644,4.774665821511588
-4.292061433463006,-6.587085797357316,1.2068266109263297,1.2899858110222913,-4.982810464267033,2.284818985784489
7.0701011121573805,5.3827679137465365,2.38575669075696,-2.4554937051081875,8.373097765955647,-1.6848562888784415
2.115091155282203,1.9394481657646527,-0.6192760685380609,-1.1142042744865037,-0.8439667562889508,2.3656175674026323
-4.604396332496581,2.563493109087578,1.5129735319425826,1.5961364705619396,-0.4503791655326941,1.530720002247972
1.4384119012410865,-0.6881567584529142,-2.7109087319345284,0.9910129898457364,0.35583614106281036,0.9638223346676545
-0.9792040599204853,1.3467708328409758,0.761520590785454,0.5858560464856677,-0.9110421952794572,-1.111283587030552
1.610534722899774,-0.2507495950035308,0.49987685564037454,-3.4444302989332765,1.9234186510541371,2.4387346336920572
-0.3586871951297204,-1.0150510664449657,1.5251859963678673,4.314130617252967,-2.2658546795283674,0.9112382252729025
-0.7168545252403922,-2.162041715236593,-2.029015943819684,0.5283375501385071,-1.4002908694223908,-2.15681802638432
-3.023883858307655,-6.0262676997295825,-1.8999837478539585,0.12568695788367124,-2.7835282981926475,-1.476807243706894
1.3276420973787633,-4.952742225671703,-0.7614489966821277,1.5650403998462503,-2.361330446386784,-4.013237759312293
-0.1527601223209245,0.23753437160862623,-0.7468361268199536,-1.0817125594900228,-1.6652953132968988,0.31532955403828977
-3.514075288290211,-5.431805555849379,-0.39242971032188567,1.5719188315313248,-3.4716006191266215,1.1985234425411635
2.6015861523743995,-2.950204510773689,1.5921565082671727,-1.7746579565373306,0.6421223131316016,-0.6570764586311281
1.1601620313413568,-3.0428962984517693,-1.2781425412031444,-0.42355031549563216,-2.127900793883638,-1.3972444943605962
-1.7153237089915387,-1.8983597562450827,1.4272480541200798,-0.6541082514591745,-0.39501442404846465,-0.3904524334989796
2.335070986531566,7.49906292012449,-1.3686178060657213,1.9319823644254814,0.23554465674216357,1.033698232381517
0.3352310269068419,-1.1888254478547078,2.3897735844243737,-0.6079160535235557,1.8997926897985697,-1.3462342683350044
1.9195661697356756,3.629462603100977,-3.2692540806961636,-1.249299235190415,1.4903108863388976,3.712707660773729
2.0287290410821908,0.0997765594027964,1.9613728470881768,0.10192287450454884,-1.5600220536525118,1.0000840249850036
3.904848832579015,0.7891066140512892,1.162277444040891,-0.563883942075476,-2.0113832840586774,0.8433409951851765
-0.34583244306386995,0.41297556677744346,-0.6925401351833493,-0.37970069265328504,-0.7938151627809844,1.7543731618324405
-0.7896962653688151,-2.4409896814477223,-0.5056203893461142,-1.2715777554767485,-1.5881738588461198,0.15131293378953337
1.2725710082480344,-1.8350999248292084,-0.46726321740047727,-0.2335137889958041,1.903619540670504,-0.8582746594262012
-2.9476278827205142,-3.294475594255964,1.8776095695004962,0.8766124329751812,0.03378889138338673,2.440908411570548
-0.9970259081294384,-1.2355564564216872,0.8150175283174458,-0.502742263556461,1.155807952568083,-1.1259441342785361
-1.7827540039590333,-4.422379021374873,-0.5072947179683917,1.4532546442654386,-0.805978745580501,-0.5213970298911823
-1.6143186965001675,-5.40681676373954,0.25644899342546557,-0.542597050609233,-0.06478786786164109,0.7408642168633243
-1.162414632500087,-1.6616165141335066,-2.2307102741368716,-0.07379736889581923,-0.15868730130642716,-1.4461653491081858
-2.688665509094383,-1.9355431419750584,-0.04058178537304857,-0.1480181258479999,-0.521106099929423,-0.8511172717243142
3.0055098202580144,-1.1542745096091471,-0.8014559806879534,-0.17753227344000266,-1.0183598635761228,-0.7783900140946112
-0.45331624103849366,1.945325995396006,-0.5254682110769975,1.7778560791710416,-0.054476381859149825,-0.3855891069931278
5.55339299090773,-0.9975908762114476,1.18650567823122,-2.1846927708722497,0.21548629244305717,-0.5644732267666023
3.151937592947915,-1.0492289770071275,1.7194695989755497,-0.7023376601147626,-0.3706929609840066,-0.5504591735676176
-0.913502659917125,-0.8360930453635236,0.7570445642754977,0.23748167006311216,-0.11009070529249271,0.6316249898694697
1.8060951999993935,-2.133815878843622,-2.346925467371127,0.3303130055216775,0.25871931209190446,0.022276111778867125
1.9200612206412262,-0.39553640668951684,1.3218145618815471,-1.0336761761472277,-2.1042648658478025,2.4562184688355444
-1.605381156020432,0.47108226651706087,-2.4397345895486704,-1.0094560152854772,0.5246434234547822,-0.5381475990973225
-0.9898935988822738,-1.3179565312160928,0.7799091521647223,0.20937888174037567,0.188194282778122,0.3825785559421241
1.858047937335348,-1.8117039646296682,0.2815888169499911,0.27272559083038506,-1.2314080097343174,1.9690851612662998
-1.7494718820792494,1.3985713201193344,0.11365091801131633,-0.30803532270768375,0.6094451247768511,0.6543227109867673
-3.810299994752048,-3.0214197454163374,-0.10548125648536902,-0.9874695167488253,0.7170225657147573,1.5375762634378156
-0.8149344879846345,0.11071959147455612,-1.1390224289039037,1.734591902797399,-1.3463396370163472,0.709164162320328
-1.0496693769767316,-1.0210692717538499,-1.3405963606254532,-0.34987244611122237,-0.3154721153738367,-0.22223597608289078
1.0954497517872475,-2.2232245013186307,-1.4290540775841345,0.45264601362973733,-1.2030649233741837,1.183225801282537
-0.10043489135521966,0.831589538536342,-0.39544777637619777,0.5201667405645913,0.21103486403284055,0.05747097428873447
-1.9723379853774667,-2.0252979494441252,0.021135715438754255,-0.5170806562914712,-0.026246892724889087,-1.4362434659232335
-0.1414408008822159,-1.6298834079957374,1.0115951730957042,-0.22641929150837586,-0.4395972000350558,0.060737028914810864
2.11325700145127,-0.633541181549538,0.38040957562537725,-0.8395529890387039,-1.1877019926924686,0.5747558014037449
-1.9766526209196844,-2.0995452771837924,0.491580609181553,0.5826251297693185,-0.1372426761143455,-1.39523802756664
-1.267831834271986,-2.4069811438832343,0.20378771280358676,0.5447580335820467,0.707139645093477,-0.18971580694300272
1.854559638239903,-0.6993464599020442,-1.3359497511021947,-0.2570775115065444,-0.657680766428264,0.16700528335561515
0.8153672606819753,0.3683244761851825,0.38265898660679415,0.715491406121392,-0.43558164656703885,-0.36006043897020007
-0.9153382334053821,1.385575588828575,0.14226636730502912,-0.5999331080007976,0.2983574423627569,1.6410305368846219
0.9274635736668302,-1.3285083064513001,-0.07968239794524254,-0.32820476699540446,-0.2770877763968319,0.5233026592085417
2.475839107945279,1.1370195031190775,-0.212371049772234,-0.6117456824622244,-0.10286924259977136,0.36714705713334783
2.076495301152047,0.11755021228830609,0.05922821707076886,-0.7931916926068546,-0.19756875898976556,1.4243306104687947
1.362895171987011,-2.604080353557762,-0.17876067803692186,-0.8565065761228137,0.05980876393597159,-0.8827290012943616
-1.622090498725234,-0.2683410114458248,-1.1319815386768377,0.8338969976828743,0.5349565879413729,-0.46872675074520564
-2.0283386972071016,-0.7771298093808918,-0.3259363189317226,-0.2774418681331298,0.582923992011148,0.4936474653773071
1.9424622457709775,-0.7746014944339317,0.8411773892635268,-0.11850772697101841,-0.6262025664043342,0.10762408587789984
-3.7948485112850916,-0.10292935645881174,-0.7203873850892485,0.6731699445613472,0.8442405498153298,0.2696606292839986
-2.2635957999155094,-2.4591819498974665,-0.4998411424526274,-0.6596409763233521,1.299063566708742,-0.11420320523666391
1.1828965817369865,0.24202490122973908,-0.9964140413095506,0.8941944561435584,-1.1108213828894042,1.4935155550980834
0.7302141122389953,-0.8563063551798467,-0.00886678373695464,-0.48749006507870507,0.051868951339503894,-1.3571871792371903
-1.7279705480619332,-1.688804214196974,-0.6211324846106859,0.2624240873543216,0.44045201682665014,0.03703672047784193
0.41395840084476615,-0.8167612145636487,-0.1517531980434403,0.9754874661994393,-0.5895292093094896,0.7537589970981403
1.8040048212415263,0.39655714482711685,-0.29882931856689826,-0.09862804600177122,-0.7162887099084478,0.008684707268754144
1.2661074099737393,-0.7253178784422892,-0.15160217591032488,0.3099050193753236,-1.0630811674147669,-0.1154875102634869
1.4622847727076866,-1.1766442815842582,-1.091723830986929,-0.4961541842746515,-0.6940343044407392,0.5739974121520235
-0.40556072110734753,-0.4075181203451067,-0.6616997494390408,-0.155162373619536,0.34764931760290807,0.027810243942409052
0.08270866464403626,-1.7019661858331374,0.6911513044424213,-0.8157199256541999,-0.6652641017801345,0.1572413032585282
2.2652894549228355,-0.2098805199421318,0.044058216858531646,-0.07794176336071368,0.3614775776731122,0.12679748943359354
-0.7796020808865491,-2.0790454326291274,-0.13739303413847498,0.5067609523441836,-0.8616833631651887,0.28657223966219236
-0.8018981604328139,0.9901658029463649,-0.11318032065003099,0.014273821573153045,-0.26083401467357736,0.5819027006845511
-1.6412307482619934,-0.3963105227639864,-0.4608188604155953,-0.15688213707851129,1.022943115791416,0.41880018801718005
-0.8125252849002506,-0.8233183862673209,-0.9524110641268616,0.886455980769814,-0.3650457265324906,0.893876553903787
-0.24457076150436474,0.35685713858172863,-0.6119389728953991,-0.1853541038399127,-0.3644189346422156,0.6415404359480175
