Gx,Gy,Gz,Ax,Ay,Az
2.604022999999999,-15.398591,-0.06397300000000128,30.522,-441.75399999999996,54.47999999999999
2.3374643761892924,-8.808349813748368,0.20563622683530428,0.16040365537802742,-1.3372021941032606,4.6773952399211405
-1.3393915294033025,-12.821784400427536,-0.3681029122275984,0.7215096308488254,-1.519982291769573,4.104739719099064
2.2458109950746286,-16.263739193384758,8.575366508352186,-0.2721323719596284,-2.1715440821325784,2.8467541001564864
2.7273325411608234,92.43914173541197,-48.911562051188056,-2.718074077138051,-1.2966870465405336,3.635150856355166
-1.6501985851017056,8.3499606583054,-8.920843731254228,-0.1920413519915969,-3.1877435904335276,4.133803597638731
3.2912530890091203,-2.0474419529573,-15.168170037171095,-0.7973810307466358,-4.965797138408222,7.920681206363935
5.857495968984784,-6.312332741253471,-6.871969400408469,2.0954708957517685,-11.981936533199654,20.295973390119652
-0.7560555764538002,7.772112110993241,-4.127933829873984,-1.203988405975593,16.210871717414832,-33.21732025123663
-1.6557501757514879,-3.7093974524533753,-10.100155705988183,0.1202020105986999,1.2337617443890991,-6.149696885138681
10.675339637439013,5.419316004309774,-24.478483701680048,2.1117378948571557,-1.3512187498764228,-4.6731407014304915
6.749690369043861,-7.833514661015588,-48.885697828173804,4.483470915319358,0.17599434116788015,-4.0858878170883965
-6.522125599088582,8.94309118734381,39.291571663971894,-0.040292506303525766,-1.4694460817978516,-1.9874612545166197
-5.285019495183797,1.0744452885901177,14.218244624323969,0.5205526869764895,-0.0941254358221455,0.2554802802338506
-5.334239428044334,5.70060179674127,9.886519590188147,-0.5729331499550662,-2.8348916333921275,-2.186220682461001
-6.686697497187584,6.798522328022813,-1.9851098070972508,-0.0800377759014724,-6.383157418340514,-6.865810830563658
-0.4545563928896511,-2.793985859979372,8.80807670228786,0.31605717862479543,4.441909551438121,3.224475098581845
1.8045027280397266,5.349263028542909,1.788107711766342,-3.441943783098523,1.086199124918028,-2.646101161160664
3.00771751123466,9.272668087111821,6.017573275592758,-0.9701766025858056,2.1006972711503464,-0.6080758031180221
-2.3070866279974953,10.344034837265976,15.989448788985232,-10.41251687307219,2.9989192863221827,-2.977124925369147
3.0575435532811976,-8.666276295091276,3.257925833243945,-4.050872168201954,0.9201576892462533,0.16062964367426766
-4.536123794780139,-0.3961824275064607,1.5288876687937827,-1.1083018745843936,3.7612260419193957,-1.5102961218985633
2.0516374159207196,3.6174081405659066,-4.890332091220887,1.399253324821398,-0.7298250846540928,-0.4425877274324982
9.590470050816844,-0.7704670453539926,4.877507459539227,4.410640533213245,-5.59012475431849,1.3496885012771296
7.73753946606657,0.4468656965083184,0.9813218945945688,0.5590861051216746,-5.15459619316522,-1.1536303570276556
-0.07194060861778728,0.7689196222408373,0.5704408961345531,-1.3840070893068919,-2.813358399635578,-2.1805275116661846
1.38066316888161,-2.812057488153401,0.6734255357182725,-2.111554446670001,1.369350576995838,-1.185959816812383
-0.4251804751365693,2.992830567934991,8.794711471554885,11.95318796519301,-1.6048764313428756,2.6068725631591896
-0.24390370219233204,-0.2223363045042155,4.3408795617281495,5.324292628916556,0.19072272990624478,0.2772390826769282
4.3711672856875285,1.0551173607983964,2.3484700354252044,2.2373118422498313,-3.616858769654282,-0.40731762608442734
10.241620525658245,-1.342854553106118,2.9854536189833474,3.7840054853728944,-8.187425207598938,-3.4938568501682767
-12.930816579263247,0.2778611602480545,-0.9465400117004522,-1.9601906525005663,8.62632030183879,1.8888735526092537
-2.935337432276528,-0.42584710180317953,2.4991712476788885,-0.3988349007920809,4.041521964716976,-1.2904719348778126
-5.557122023193554,2.7471264837984863,2.6207562380329383,3.008103332878936,5.089764302093321,-0.3085408232182694
-6.789291061240353,0.5813833251744109,-1.7235253752923114,2.9236928036789442,4.804175409818155,-1.4830743801991395
4.446066314479818,0.4046216172192285,1.0170550105116813,1.1488522984367322,-1.0270229757301035,2.4223899538322162
0.6840828739340725,-1.017858909830343,-2.8981464227280966,-1.8689957989377337,-2.1127705195628215,1.8813369333151309
0.7985474672922236,-1.9791624745543142,1.8778043025491251,-1.2537341876234331,1.4884146842180535,1.4691641840511436
-2.329741182078319,-0.20820078696334177,3.185301024405538,-4.958667692959439,12.418103088043159,-3.3348542932021434
-1.7400527480981096,-0.44944231732743145,2.2799618714262753,1.338138490409538,-0.32773434020268166,-0.4606117776235293
-0.60434590502477,0.6038955424663358,-1.0053196868398993,1.3888405937941881,-0.7712633222032138,1.589179451529299
-2.10066588547563,-1.0627462536897703,0.9709571871257351,0.4554739314627587,0.6957878051769608,-0.6190632318703879
3.027189059125837,0.8727238038283486,2.8600289617724504,-1.5216327274808636,-4.0516812223281145,2.3176878809395567
0.842256642226128,-0.973049844862301,2.015753343804522,-0.9575983834646795,-0.9352163817612484,1.6640322503799707
-0.859299871247563,-0.7426381745496734,0.670678050538136,-1.2151719398432979,2.921363687583983,-0.04887117593199994
-1.059826279654573,-1.4232904810588833,2.0536772607185854,-3.1599871947603075,2.530248633614417,-1.592388737566659
3.662684353176448,1.4024460750113592,-0.05553510823012342,2.5911294809396455,-7.260941221301615,0.9622543026062069
0.04460062909304859,-0.7094478146898514,0.4513918653743531,-1.0427350645454032,1.1116252077105238,-1.5938084190680124
0.9024435937169761,0.7961692216983629,0.8756916340732432,1.7747002559312044,-0.49622596968105603,-0.45304095031242536
-2.6242213008606377,0.01758031032366436,1.1537691691962024,0.9074894113701276,2.6826137059447257,0.8706783328667009
2.319209108231973,-0.6503374641549761,-2.68609214660643,-0.8355031278660883,-1.453056670208813,0.2930865508085707
0.6962108699392102,-1.527688145680918,0.6684850432798122,-1.070441511465457,1.2321546998173194,0.1631931634960691
-0.8880190469520902,-0.7816794729156585,0.20219187565878288,-1.5986755396267383,-0.1627836585578978,-1.4558275974038588
-3.8201006705206804,-0.6733480211697376,0.18431325511087546,0.033639372099006803,2.801048620003557,-3.090816949509357
2.372166547730654,-1.2769031756702465,0.02147143566126132,-0.8098645001930134,-1.800913576759165,1.4478729002473285
-1.5818029077771758,0.3413389258514714,0.8161714681533513,0.8830561591143502,0.9262331680336985,-0.1303193478946033
-0.7359339979339455,-0.22504889169786121,0.44222011475748935,0.5185756238230121,1.3276405837983793,1.1773274032092051
-1.2022221762588867,0.21177268175473998,1.4668596482390466,-2.12758617015029,-1.069971758322224,0.07678089565346546
0.0633551548755249,-0.512838481599889,1.7808201504175982,0.18435153293766957,0.7187574397092641,0.7666997121201641
1.1642269655515465,0.05338932821855204,0.007207418111713743,-0.4480626546500767,-1.1976174417466294,-0.45132036830497213
-1.2216594641368737,-0.35749538495917044,-0.10367247643279313,0.5727531883615757,1.3344647261873923,-1.1200207020931343
-0.9487927078149103,0.3724458697316307,0.00913090838980804,-0.7083714756124093,1.6206200696303203,1.0342246965601785
2.901487165326166,0.2118592261394373,0.01270072336606283,0.1494111958948468,-0.7695794668948328,-0.16152562974399082
0.670880719628926,1.099568619716325,0.5684614689461975,0.7921714980632519,-0.6602876457962392,0.7603904243287641
-0.2748611261177855,0.6014606883014548,1.2146184000920406,0.7152003578611061,-0.6099060841561339,-0.8669224737962443
-2.137706938159928,-0.5471613295571592,-1.464452517963043,-1.5793488852673183,1.461376854560165,0.004308840619921067
-1.8883205328439665,-1.493247430265314,0.36427138136864967,0.9730134713367626,0.788151955288817,-1.2311591975197216
0.8065485030989616,-1.1814248092057398,0.041232909476921153,-0.06728269999960439,0.9600744496502582,-0.7607511024251269
0.21366050144100313,-0.21402411507076993,-0.18707424852727372,0.1347936264934993,0.5362580567562841,-0.43695156123415735
-1.777738173529119,0.4422093683265695,0.4949696723417436,0.1876204780627806,-1.6975782118204064,1.1165566628537766
-1.6610631223185774,0.1605786767599658,1.028640485237786,-0.3462404045037182,2.0391677615915182,-2.172280304014818
0.9382615489114137,0.18170055644588817,0.9190690418707613,-0.5392226421740371,0.357655647918836,0.17667438267204322
-1.3355452671226253,-0.7481142399809513,-0.18276368103631063,-0.9598745078763107,0.4181780316303657,-0.24354077210076375
0.41745655631122414,-0.6796490939060343,-0.7684450751251218,0.7273187906434355,-0.1835295562726711,1.5122650952363128
0.36648483472999016,0.39230914764920605,-0.3123626080304703,-1.276718483991984,0.12181966558380268,0.12021882684453816
-0.09672806822195656,-0.45831069753707065,-0.18019465134131518,-0.19939897966120468,-0.8433133258273151,0.29178024970216204
-1.6888779059976127,0.27042318806268206,0.2667639253926086,-0.40180140348881144,0.06590016919109151,-0.5307524440632649
1.5293687936105236,-0.8803193378784502,0.24670589414460967,0.44450938378829175,-0.6465216065100993,1.2027956882777442
-0.7529961217810279,-0.503286156432064,0.5794703938013956,0.06731374315702399,-0.19241591525669,1.0060124151248302
-1.1608588386939194,-0.20754292362020432,-0.7983343382141683,0.57473122278953,-0.015146458468777227,-0.7005216160921437
0.34075957395911693,0.03529246538334065,-0.5655695800947327,-0.044788744862461594,-0.48121839937231853,0.3912846912900072
1.766976696591113,-0.8865286477687372,0.8735396820696328,-0.2756902603004029,-0.4061209733420197,-0.9267060758325436
-1.2615505033073267,-1.1719949050782423,-0.7560696528986263,0.41462487448666957,0.7082805404119695,-0.4733365419857189
-2.55170779954983,0.19821456220387443,0.49461333315453354,-0.6638458721622749,1.8975253231786482,-0.5245671136680392
-2.2560724788730786,-0.4421500031448595,-1.0819767570088412,1.253346023890543,-0.04117629031789069,0.5849817793702901
-1.2028995603111299,-0.13807219522621572,0.20739100147784473,-0.5178037857297846,1.7959319982093178,-1.6077167627011824
2.034170669990617,0.04436116302643531,0.18756981681214036,-0.04258560980544773,-0.5638275094724754,-0.302460556810288
-1.793794001946507,-0.364287404128278,0.19978485698820284,-0.49280655949934693,-0.04887729295332849,0.6376093442858514
-1.3270468699578317,-0.25469731562612574,-1.0920663390057859,0.9405385578441099,0.46924680180433087,1.1972755094441967
-1.616770304824998,0.6556267657916114,-0.15510901836271218,-1.1363626684187365,0.7119513279682923,-0.1931704177461421
-0.8864558533487021,0.2132361708995633,1.2253145257778137,-0.31048927306938323,0.26191053409083814,0.24013481737364678
-1.6899763976266902,-0.1319327549448175,-0.4078653300676647,0.3058071235864167,-0.439639390258624,-0.11823289764793765
1.300697245652227,-0.43350573687933536,0.44759058160919646,-0.4489968248781886,0.274526275791904,-0.0007371099155351613
-2.388778611872207,-0.2953509630172589,-0.04106227011928254,0.3126391344828986,-1.1879549024187537,0.6165972227691556
-2.4691703638807057,-0.5773959916054702,-0.4459012754425258,-0.0034407380225028386,0.5978310820274333,0.25534144945975173
-1.6428030946355423,0.08177142248934391,-1.0045209303774731,0.5581818946400712,0.5199952501177608,1.2272577904308255
1.8960543380469024,-0.5167799137457628,1.1991961808142864,-0.2911244244152135,-0.009534611035430907,-2.3850492211715144
-1.1361040955901291,-0.5562351842729982,-0.7462616138156772,0.7561843886140666,1.098706327298988,-0.21746871750406085
-3.115755904123085,-0.5896764963590783,-0.83017561028101,-0.0990220671381559,0.17273992411914163,0.2668189886067903
-1.1454918823286768,-0.5840971228090971,-0.4026496295069069,0.6696873017728465,-0.14904906394739392,1.6324999219188354
-1.6677595195042716,0.56926568232309,-0.1802536481331793,0.15467840923837742,1.567157111441854,-1.4309374045795833
0.2502722780863512,-0.6089157628527233,0.37025148967668936,0.12847399242459476,0.9580853013876414,0.5484810834176287
-2.190317865965994,-0.703476839903063,0.00507593971568304,-0.05993142557823575,0.25249518872505583,0.9989835297386019
1.4325894673388175,-1.0451402426340273,0.015455419579308058,0.10226248853519826,-0.1691608982179711,-0.17211947175188996
-4.501082655223692,1.4102988956724003,-0.38102428877859634,-0.4520986066556374,1.7861199274775656,0.7154652314925611
-1.4187120094913792,0.047518031800573624,0.3788106881859881,-0.012632542270581026,0.26926707249989895,0.049980386371997934
-0.2470162210234017,-0.45133079101607576,-0.3108514053810235,0.44128412776710957,-0.5002435951922324,1.0657355734153584
1.9068326037741399,-0.5954184284606532,1.3176266836361772,-0.4772423139343096,0.502634197931583,-0.6440776198062017
-3.398518093520239,-0.3445666122647051,-0.5272183749737551,0.5764595683909013,-0.35399057996788136,1.1546796676531466
-2.8956569538105734,-0.8601759499496483,-0.2611915837841892,-0.5798335088397821,0.7167865785511951,-0.10487778257206826
