Gx,Gy,Gz,Ax,Ay,Az
-9.357811999999997,-6.781057000000002,6.499933999999999,-21.249999999999996,-564.1799999999998,-23.633999999999997
0.8279765905582158,-3.738610964528469,5.568089767292142,0.9394152164894144,0.6619123793318449,1.126015907079062
4.533252615534332,-3.046204785002599,3.227701834785442,2.1127758981123614,0.8089766069257386,0.7797402844575826
9.943986531923214,11.36056869230716,5.669002577339098,-0.7783554733227253,1.4648420217836935,-0.5259095656646362
7.960003436159768,-11.95508215696694,11.903094262894955,0.21453322884351078,0.8262153443937458,1.1107115005991701
11.879443766054614,-14.141594006883366,36.90602761828973,2.496049550944737,1.9548622249935708,-1.1337264456502676
0.9790716072106792,32.72258576283977,-47.67201892536999,-0.013827031445171833,-1.1623099119119609,5.5294082718754485
-4.314541104681661,-7.581374898017925,-1.1607473689391747,0.9447401976436642,0.32248783744433956,2.489641720213673
7.89557990124665,8.496430903868712,-1.1574590479411366,-0.05819428044538963,3.772798033430907,1.4776576099628183
18.36975898087495,9.621766929383394,-2.056904125659294,1.503535587245728,5.444200645818611,7.31388137899415
25.255616079977962,0.4731272932153452,-4.623208063124508,-4.405720717788899,8.07374766631192,8.756412451010174
56.42203049534251,38.76516715032907,-1.5635907460337872,-0.711909612896005,14.160461920839605,32.5037302103492
-54.42311953257608,4.980127054168161,-3.920899297382538,5.628805108584693,-11.030120817921496,-33.96372458475125
-16.1886822596409,10.39769523726816,-3.1406467246046055,-0.20068517179674072,-1.5484405100280592,-6.35086889869684
-4.4475947235606315,-7.91725632855312,-9.882760755277785,0.34356092852386155,-1.2291635894999347,-1.8510313906254288
-6.003091098393665,-3.648775793333452,-9.256737618933546,4.245744967176943,1.319364168561268,-3.256532145219039
0.6850194632998949,7.087001392385343,-12.388555315491462,3.622960141049932,6.523785234753536,-0.7845877993433694
-14.457049056811197,33.10471217561391,-40.24891016113702,31.568579897525588,-0.036979790347989955,-2.7092161909379526
-3.0115527677874727,3.5972493693749565,27.932121415272075,-13.579894336272504,-6.709803889853928,-3.5574733010324016
-2.124470147758984,3.1330588396315155,1.0767573242013908,-8.012958999475693,7.848906136933163,-6.660401659997284
-9.056997443425827,-1.0450715303650173,-3.5658728819177155,-0.2971081892372926,-2.9136285640835937,-2.4421821803943997
4.565184513111476,-6.004239622407906,-1.8520945029817906,0.11588000647753749,0.8701122150585884,-0.6867472560439019
-0.15570703055951496,13.145327409815486,-0.36907328784451865,2.5242953695201913,-1.1834100539539827,-1.512255094535695
34.44069596421987,-17.16366297240455,-1.1109854607907113,-3.676905631144876,1.3587053733192715,34.83499271803695
-8.850843777144542,4.04113436856776,1.5465555211106061,1.1652163365667372,0.16256513413444426,-8.438957923371126
-3.262247513600158,10.416060240605605,3.0777152621349404,4.091775605255222,-1.9526838528261334,-3.7740280324413766
-2.1297086500936806,10.49789005675466,1.801471173743592,1.6986178173993007,-7.191881630359475,0.9803519141086166
-1.7660599491220337,0.3543570902402511,-0.09664498056421267,3.452170947878558,0.59095938496453,-1.9916736452547794
7.420746586003305,6.403429435201536,-0.719939772378531,8.752511316066663,-0.7319514941965561,2.5083981997202844
-3.7516356988760973,-24.399517821312866,6.148730767248871,-20.73742418275611,7.769368141666103,2.2013013811722075
6.869497533961457,-3.195963762595573,2.22250792120023,3.2774166329511276,-1.8735737051576167,4.002029785844732
3.897087878920261,-1.6676990529013902,0.11129839293322852,3.9780389974524124,0.6473371206245254,-0.7455001202451599
-3.119295055243965,-2.550280400545543,-3.871152496453365,-5.214607629080602,3.14641440577976,-0.5018093620566111
0.36832257415843456,0.9116453975017963,1.6585477749354156,-0.40852323799238954,1.4329619476573303,-0.3063725857288544
-1.994499199003346,-0.18630009847017315,3.6267343945472232,2.177207882409121,-2.24006016769692,3.8279362002647432
-8.092815766770144,0.006481427669907891,-5.2753639637439065,-2.603771006118424,1.7904120368177994,-7.915802360859895
-11.271325636975071,-0.2424520557714237,4.583838942214891,-0.5687665594405023,7.212935239769768,-3.122238744402891
-1.2064432612917293,0.33066459323854985,1.9736228292354228,1.1886633124591108,-0.48488293456019227,-0.366475944756945
-3.8368543958197683,1.2236173312968215,-3.8780527990930205,-2.583231263676747,-1.2144092066179,-0.17204366900283774
-6.878754451217788,-0.12898377600772287,-2.7087732639749564,-5.476407827270185,3.97180943107102,-3.4365877808030354
-0.14696564789171346,13.27359643150558,-3.3822367570550855,-2.864044818731122,2.175306628924303,0.36860762373358336
4.2661925271515635,-4.964150022939878,0.3502731601633953,5.790507255439781,-4.3378623256815105,4.174097597376409
3.3760297041304397,-0.0356530210391836,-2.4219496165753753,-1.4398856165564728,-3.137641209470445,-1.0278133294888845
-2.885202652852999,-1.9948577451537324,3.0185047987621596,-1.099443441151672,3.0390058362977106,-1.8898747837649617
0.8448930236360375,0.10568568935127218,1.2000048608584564,-3.6233757453966033,5.404686069424393,0.9113682846591846
5.984216742887713,2.434222091863419,-0.36150112967941106,1.3185474327079558,-0.5661322225339185,0.7271484412372224
10.297416595737463,-5.86428776832481,2.791767126562369,-4.7943427024564,-6.282559784185493,6.996171809529576
-6.019757959449105,4.178086301689324,-3.4181735275803966,0.9138337444431877,4.93118246370918,-2.7372885981528503
-1.6387438752335968,2.109764776215389,-1.2906601090301173,2.154295417491375,0.698112440894266,-1.8813232437038663
-0.36907804085913165,0.8116867385125219,0.013848494035354542,-0.7415078157371252,-5.305223472463125,0.4725712999488761
3.0682630759029816,3.0248587961950886,0.8867145242175172,-3.220852792818905,-1.1906854839258814,0.8046895892772683
-1.8116408275626221,4.415983257906266,4.38458784244277,-2.7813983036011662,3.202895302251342,-0.2698481245727209
-4.236704074494726,-5.966259097443159,-2.6772812973434235,2.6993131358859883,2.165780007894441,-1.3869239077621562
5.345946099099357,1.0722582429210015,2.2284511545220314,-0.3573046113575216,-2.9085745938788423,3.540278028985796
1.7809670708349836,-0.3081486791285428,-0.3115319598685249,-0.1497961323343422,-2.881451344112703,1.682261256410908
-1.404348065664768,0.6223346515969811,-1.298114288339952,2.188410672380907,4.245545417824154,-1.6724400929661323
-0.61807763055973,-2.03674423729528,2.235495564864551,1.8576788851839736,0.9996361729404298,-1.934062412978059
-2.910906718273433,-1.3175357245519532,1.4750132502762652,0.40532177261458235,3.821388911542952,-0.20143328642248315
3.6597319335494425,1.749005405643862,-1.4097280809347612,-4.122887224266148,-7.939423032122692,3.928670463612894
0.8571094552152108,-2.2085503382397036,0.5201177938765755,0.4485834750930069,5.602313813881835,-2.9617153481616625
-3.03221268675052,-1.862202176266264,-0.6011326909947896,1.1492774907727186,2.1435641701833923,-2.0084629909751968
-3.4166922468810834,0.5027943667105936,-1.2269985375104224,0.12951303875555986,-0.9482550465435888,-1.102628759968694
0.5534243317636476,3.12500078818399,0.9075452861194253,0.31119039548996663,1.1290715156398898,-0.4533663926085264
-1.5013796445330523,4.164371075399181,2.4446044912574085,-2.6085145608199882,2.1500260891095904,-2.168547504828068
0.23201001990642034,-3.144435066248745,-4.438873805134324,2.359109143202363,-6.252117541400145,2.2923364889592337
1.7455004727125651,0.5959459387278416,2.9166609423047265,-0.37551036194767723,-4.218945616443083,2.1028518550389346
6.887319897002243,0.8738488507777531,2.598848155208212,-1.7338469080709888,-5.3974204881971675,2.5966312976982278
-0.20957172610511032,1.3843752428496199,-0.3838796534184139,0.7889313317190616,0.0807920223230387,-1.2093442824012233
-3.1909881515957754,2.005759250109781,-1.015369730290639,2.209407256238867,2.617905415898604,-1.57561364308778
1.7218722492322196,0.6107337745545856,2.4366099329256112,-2.1259641896957677,4.487461969496837,-0.9133471477832645
-1.9468129993724328,1.4216331766264276,-1.866036566742647,-0.36192911235696523,-3.419641969122982,1.7981651223992259
0.7062072246268316,-0.5534020772545677,-1.5225266367226258,-0.7354289996829835,-0.11439255070062915,-1.045817427617947
0.3422019330177091,-0.9200846970512874,-1.5857034323824464,0.15581581409396808,1.6162699183243199,-0.38589344445753343
1.9902260256794355,-1.3860291301726384,-1.9428369717633795,0.35642263448545397,2.6581000059306934,1.5257111029239996
-0.7798959111837123,0.34972087794358486,-0.5952172530780353,1.6864295205848219,1.76911944445702,-2.1726417745506676
-5.295116498952799,-0.8999074130258343,2.811674874944491,-2.1291879907693736,3.7611036343198823,-3.154566621609124
1.6877879435409207,0.5839503164929033,-2.289115494859139,1.0876863944303021,-1.6254947883507205,1.2110082072577204
-2.0449381523905226,0.16828488559719795,0.3215298630052329,0.685512626843625,0.6312026045389569,1.5106409779576497
4.638227886869615,-0.7352160190556155,1.3419385622505602,-0.1635598134818484,-1.3584658098432172,0.020862897522988894
3.8571478505992367,-1.367207524891099,0.7180454343062991,0.4512931051053648,-5.065863305192994,2.2055066365389555
-0.634203422842694,0.9026520014838348,0.7757365028062642,1.0378899959637005,1.0185897560403316,-0.3984657060082739
0.09735488552478745,2.607653715887972,1.4720613390143527,-1.1365551425878622,-2.805695343829716,0.9153225128184164
-0.5414155822822613,-0.8876915889194166,-0.047890831956040436,-1.8928773512743255,0.34764310948961885,-0.3004061084832892
-1.149763583055197,1.1429581335881223,1.2454564984919114,-0.42742570512351763,-1.3974419064446717,0.5853727211219433
-0.06938403242706387,0.13897344503988543,0.32554010494139274,0.1125937314742792,-1.4471294945093371,0.6256383396693704
0.3453490968703625,-1.3426040625590574,-1.308605043268988,1.144429355420793,2.4444761140924323,-1.0860947269853876
-0.08833394849955874,0.6983466499326935,-1.300744714613031,0.16337790121819012,0.3791517981042041,-0.6524160427055244
-1.5210556598622298,0.33063619659469334,1.1494339941665692,0.6082863830752439,0.8012263659531563,-0.4092286226571083
-0.9969424525070039,-0.015184779756680977,0.7088906527756024,0.6742333864656471,-1.3666612986497175,-0.14252121860422648
-2.2734491769371026,0.0995294392484094,-1.1816109699853172,0.4322038826484007,1.892175883841242,-1.1401093797804427
-2.0660431056124606,0.7400788254456259,-0.45830698724150504,0.8165871006603882,1.0706472285724598,-1.0476989681657454
2.950126347004969,-0.2838524613476445,-0.4467699427032453,-0.3894649369121085,-0.4904192136279276,0.030428477879352715
2.987056947854693,0.15561091690958256,-0.01668775648827847,-0.5279093032376664,0.20921153198738734,-1.3248286895006884
-2.2917144648239094,-0.21839155715119718,0.0774898923514229,0.9678097973371347,-0.6940779089810658,1.211893139674506
2.151448609276758,0.6124735143482847,-0.6347447616217505,-0.28147675139364814,0.49637447152064446,-0.4239238737995091
1.8256846858820959,-0.17784115006046075,-0.20263328226302077,-1.4664500700233314,-0.8831768483750889,0.5350960008321513
0.07494290814532892,0.62536333269232,0.9799766418979543,-0.26209298429599653,-0.7294272863357365,1.03627520515615
0.3468722726813826,-0.4605166991807706,1.0161948951114885,0.3755975508974241,0.786827449824732,0.0995875249508822
0.8309899006465227,1.4262899019398005,1.347912582631185,-1.2213010184865554,-1.3555374156223887,1.0739962839066028
2.1972254469557657,-0.23270462616125276,-0.7087288039430357,0.9783928117493668,0.018033272860847438,-1.2635919544716328
0.7338528963279654,0.6669594282285627,1.0142550912376134,-0.23403661617530785,-0.6334639174255914,1.1055587082613614
-0.2721804211355207,-0.27400014537992495,-0.0648464334443061,0.23329398059717024,-0.8979292027143968,0.18227889293639518
-0.5246628240590366,-0.10646496790353543,-0.6936568357772972,0.8222465177816776,0.7026951773995873,-1.1012949168711388
0.15851957761793534,0.19694221320648736,0.6139845812072227,-0.2468387671017112,-0.01868002943802699,0.2397566389512183
-2.044403584343441,0.9815414391056754,0.1731457019125876,-0.27727898142108365,-0.224605067535988,-0.280900293382642
-1.3678579037440337,-0.8822335150759231,1.3049559585823252,0.15294659714299183,0.07793093104080062,-0.3858823049466592
-1.4826408901639363,-0.3765626914530223,0.5349706219025122,0.8495036572195747,-0.22949740957574383,-0.5301172782953039
0.17469884173898556,0.3725993902196729,0.02156547632705695,-0.3361715635408894,-0.8837308477717845,0.0344546881155606
-0.26311313224776184,0.5893111594028553,-1.0323471272685758,0.5111449943168977,-0.3876497187359569,0.8396454740849472
0.3901598708708526,-0.8552634295233241,0.1057044001849034,-0.09864743814756015,0.5032071800385002,-0.21269854296271468
1.0826419136909482,1.1488604613978537,0.9647945074004706,-0.07916425961099641,0.20599383970087062,-0.27486034617873756
-0.7048839375414337,-0.34185512845591215,-0.5092182831426926,0.5445704362172756,-1.203216631920084,0.6947728744294321
2.801278108092843,0.5135665806288833,0.539365968416332,0.03513784433352252,0.21953704362361198,0.0578493599377891
-0.7504527023242076,0.5528628788232293,0.5738041914762951,-0.26443572229724843,-0.099638587984527,-0.35145895163259916
-0.5492798553278121,0.43271111613630914,-1.3849023355792325,0.7341296542459943,-0.2316141421311922,-0.47593336661914504
1.2454329583340402,0.1162909402995435,-0.4799298638575211,0.12408704760017811,-0.11558573545742423,0.2782854644752127
-0.6589294682319091,0.9378853480481382,0.660724728844694,0.11317584884916437,-0.347758399912817,0.1903374919356955
2.150022776643932,0.5692847450647373,-0.15486302669132324,0.27170273924855615,1.0544553789539899,-0.37172993926421305
-0.24500953457160468,-0.33351751885642517,1.235326589018957,0.2143887770204299,0.049940835455396314,-0.37121300054950807
-2.3304483182845317,0.2621905868553408,0.5613880846888673,0.07532998003153996,-0.10580809037283048,-0.38660983324858517
-0.40088047964542517,-0.34688229899523193,0.2801763662259914,-0.37611907743665957,-0.2018099563998721,-0.2051286360043202
-0.35692495045494466,-0.618610543544763,1.0653497127397404,-0.11083030313376113,0.2989085682514717,0.5442705072566174
1.107378626067072,1.039441993588931,-1.3425508497021348,0.6296453508466008,-0.10466211808756357,-0.5068378164161014
-0.8231366759747395,0.19745834737181536,0.9729830512865176,-0.11767278789221022,-0.410895542197809,0.49522093321058824
0.2104558532526365,-0.18880948503260878,0.5628459921079078,-0.043252071369848696,-1.11531621121116,0.27276672801462537
0.936103912510724,0.6974677017918556,0.5187616841502685,0.15545966811316794,0.46016371771110115,-0.6237340387494107
-0.6659083575118987,0.1895732258516062,-0.022978607189919252,0.24000631171450368,-0.06825862874013497,-0.3340440800035758
-0.2385998793503668,-0.8219801517228422,-0.1295889122388304,-0.6342687228891349,-1.1188028021585137,1.052680107853094
-0.2969182250457779,0.45741422675844556,-0.08045787291293316,0.03513120947854287,-0.1487387659394502,-0.33662215023203695
0.44380348053575336,0.702981220600412,-0.3356070681558757,0.5104226890853988,-0.43906684281897423,-0.490020346155874
0.7829413544623353,-0.13282770652712306,0.11024514213250461,-0.14095203268083129,-0.03673110893810841,-0.46439033838374
-0.5774877335709464,1.0842838229827032,0.23265933819135864,0.6779639789025602,-0.5851299149480063,0.4563413557003922
0.013012832482613229,0.11632644347684273,-0.11518279481337312,-0.15286872846198596,-0.5436481479942886,-0.1308749965569997
-0.6433724726483223,0.2556157603002408,0.6057547801782115,0.1759613320258848,0.3615403842163747,-0.49968515665414615
0.13048740335325792,0.06962196547637185,0.04768505507901269,0.018934250564189264,-0.5487486203868246,0.5460365072538259
-0.6477443347068926,0.24992223422653664,0.2553193959972236,0.8663731547505898,0.7932004426101038,-0.7533745837141294
-0.09044034288114025,0.6339032286246051,0.8835678361144341,0.06185339896554939,-0.5151003916646507,0.7555371640690071
-0.008250422132932056,0.7003038945256743,-0.5967016283080839,0.20255239244572829,-0.06319974437136598,-0.36455468750409303
-0.5387227872352686,0.05752232136562532,-0.23984668196865264,0.18657864107379019,-0.516449984855575,0.08807988144670044
0.09779439749658989,-0.40717616758949027,0.3013215901774403,-0.36175421008743297,-0.47557523897748327,-0.09234182019990267
-0.2253483551033024,0.21049569620874975,0.03644667315626407,-0.0405859124049877,0.5765670426268756,0.3075190048090659
0.7655491309109548,0.13909624094675607,-0.0795840939128302,0.3610249582632315,-0.04561598998205528,-0.18943198259479307
