Gx,Gy,Gz,Ax,Ay,Az
-6.187039000000002,-0.3797799999999992,0.4193489999999993,-44.796,-651.2700000000001,84.87599999999999
-1.2312891721075223,-7.300893747298834,-4.513236910680597,0.6142514330905904,0.590420758264464,-1.042225646721938
2.6850994537282213,4.9350278695466425,-5.067440261033602,-0.9718164120135651,-0.9950496626476784,-2.7021423104500566
-2.3409696431519733,10.507211047254092,-1.152688112595679,1.6428292759826066,0.08929715796196816,-0.8616542741849688
-0.401630589454254,2.1696718246664126,-5.093562085101206,1.4604940824585957,0.7554382054483604,1.2377184213592864
11.30589958003434,12.937560624677685,-25.52466253678804,-3.0676207333723324,0.9810396744575499,1.1343907638008424
0.741925539503993,-32.70298298278657,26.374773890312447,2.46921478384577,-0.6285123833621937,-4.001035212108026
13.15963925399058,-6.137606301967027,2.7836558286311255,1.7671525013308957,0.40417073853873153,-1.7845133333579035
11.02197238985928,-0.3158263268840389,1.12334769730165,-1.1970505859984935,-0.9538563001717802,0.5722244652649315
2.0663643791343995,3.74850732386664,5.152351555088586,-2.460351782812226,1.9464123114028893,-1.3587807209792453
1.7906439678952955,-8.480547545092447,6.91321007679782,2.4952975243991338,5.845750289338515,-5.044422795235424
31.788583408925298,-38.190322527713434,-10.42531723597301,7.422626818521327,58.312960342964224,-26.85704925033668
-1.1456543594643178,19.73331018798559,6.938178189155722,0.8889216057052166,-14.721863811115535,3.8715591102375235
-6.815811837693175,11.94889737985714,7.044703111061265,-2.2877480489896276,-2.8475103607838452,1.0531854640729976
12.41673231865565,5.079772862779773,9.546893083627522,-3.83718176256348,-1.9951874724701315,0.10648872946340288
2.1770081408680713,-8.501179014394733,20.358797490722182,1.8579683180863034,-3.2482147422107186,0.36859548970616574
2.425725671774766,16.899998193666004,31.350488137267302,-0.30753043583061146,-2.8417477990200046,0.8403013386343032
-6.9073389033235735,-30.21219308545777,-84.02253947315054,5.22361139024714,-1.0827410305933933,2.719377099008839
5.331415033433195,-0.5605994330203767,-9.982665167713005,-0.5481569436656221,-4.740165937179351,5.081315836614043
0.5252680724363101,-1.7049882792578792,-4.067640023385399,1.630475552205272,-1.3716154995153482,-1.7903774626490612
-0.9842887272774388,-12.283741393194083,-9.676648274090493,0.40483833877735687,0.9824599432299996,0.23295588495530617
2.325509195262507,6.9340810414524086,-12.850915239352155,2.1078668255198254,-6.056839200080075,2.6068581976881995
10.626050223543345,-5.197291828932199,-1.3693282941175982,0.2721800492782851,-9.237160802508654,8.587644291324255
-4.5157067009271845,3.444832122564396,-4.952935027354123,-0.6058925304822073,0.991223654904879,-6.427836840638643
-2.202365166467392,-10.852351761361748,5.980956530443625,-1.1716225417193986,-3.654868496926157,0.436785276677616
-0.9611054386292731,-4.93770919023471,-4.209329447492854,-0.887533162719355,-0.6002154269894211,0.515675146817673
3.819595725182118,0.8354377212909055,-7.325475559465243,1.6780919387750581,3.531588551675804,-0.34617795431949716
-7.090484773559782,-13.785663605895845,-5.837707128845324,-4.192758238371174,0.3669079003218946,0.3521726059545449
12.918262966925003,45.93658935069119,-3.778573080639445,21.254032892454436,-14.525929878357154,-6.4963868486479575
0.5159491839006682,3.8729763268433643,-4.3742255203889435,0.648548148946105,1.5452470769114748,-1.2687147785346617
8.949489878303332,4.338296105100848,2.6323433334612893,-2.945688005396568,-0.2512493246696974,2.5391963109562874
-3.4126421905230826,4.882200958481198,2.9237326153011236,2.417986811937083,-1.1137840228197677,0.23742639934482956
-1.982682999136999,-4.699222936071604,-0.5934756328298842,-2.3073820491782535,1.7881478493356413,-3.206163204038683
-4.084114966558973,17.366937829721497,-0.735505853517247,5.010438966940525,-7.546152366909414,-2.889432570103031
5.612970367762016,-6.033005382540074,5.158178328516216,-4.140005748130222,10.291016646426588,5.389382925930432
2.200677320577746,-0.2334722318314304,-6.344632355693835,-5.987642725246342,5.278144685407289,0.03932513301843488
-3.3980441803568042,1.4655293853429794,2.037345172293461,2.839768445947314,-0.24209304492138883,-0.5013692405098276
1.9994784084043884,0.8908935457866538,0.6378676830966299,-1.813078807216046,-0.3441425285836477,1.2781398391607421
3.0730425863831536,-4.045916281728598,-0.6889099501028486,-1.5507683333879103,4.078685426436712,0.303664930475007
0.1310058349418366,-4.00493729215107,5.364720852836799,-11.942471536499912,3.321867360536083,4.746963486507008
6.751000983528831,8.144196608183561,1.5155442216528408,7.489301607559221,-4.449861369088857,-0.8704209738146171
1.0141557672235955,0.7960761148195008,-9.181215370794623,0.9893577962719172,-4.09512135271966,-1.8575298273581526
12.512113365555994,3.3950272246121287,-4.366208153457292,-1.5744960147092915,-5.9393060344914,3.5940037421105364
14.717987020437448,1.216376927725689,-3.032910814926584,1.6090441270124702,-11.644093422034626,4.970974834335532
10.635587609521059,-1.8455717339282633,-1.6974634271212445,-2.045891922602207,-14.085153030378947,4.791409715929266
-26.04179286783451,0.5779159448025215,3.4937832533346524,-0.44601081016089306,33.79752968749666,-9.005223093536472
-5.561467938985885,4.353943776813262,3.0110742508977584,1.363164645046108,9.204914820806737,-0.305717570286856
-3.249556958013625,-2.6003887982263163,1.0916040461352656,-5.637561198016308,-1.0552640033552123,1.2918010056644365
2.307070780655064,0.556673868280884,-1.6387747161309523,-0.13073974929003152,4.723700794856308,-0.07575921150003267
4.177680380495762,4.17568192138943,-2.0199277987983764,3.179963461829347,3.8028347362816843,-1.4730196199372874
19.06235500184164,4.01141162660393,29.247158150681784,0.44127907623843654,-1.8074446311317673,0.12498972469115834
-8.736237878781903,-1.0064999741115819,-2.4926542850433515,-0.6600600641531064,5.690000004287551,-0.11407529067137834
0.5019073891004142,1.1793746322899354,3.167048129584163,3.9641972843304316,0.8264360443482259,1.6528686102969896
-7.321294038441021,-0.8291240355381924,-0.8466534730105861,-0.042351149399451504,7.1173523913236645,-0.8564920016199379
-6.34669594952284,1.4002116174647576,1.1873240507125509,-1.3058177819604204,6.6471977263721005,-3.4887242593810055
-3.0304912734459126,0.03458709844664121,0.8107889058321628,2.000085483443439,6.096539727377182,-1.2877165173970557
7.376355007870741,-1.4004962720713283,-6.735021298849366,-2.308893275049377,-27.7208186188672,9.08548797766078
-3.298460054671592,-1.6261042054768506,-6.614399560840901,-0.2263700113714302,7.047285721494206,-2.4977675060990134
-3.268346677000172,3.3016253910401434,-4.297771144877628,5.6818452936348125,2.970272312890067,-2.2995125432498242
0.34882598256260866,-0.9262056365505473,-0.9606281973833655,-0.9524238065704724,-4.210192925467163,0.9473609105265657
-7.344215837844796,0.6632249674770883,-7.21146298901747,0.07985918143177173,-1.4389131481516948,1.8807043512106913
-20.1627422766293,-4.095504169874639,-20.251308971494005,-7.175865016643649,12.94848588861661,-1.175440081471625
10.548327641266066,0.21111071818734584,10.159227669947233,4.7450760305926645,-7.012680346875324,0.972760490849889
2.0293485830331446,-0.9099972160204999,3.8536340219675114,-1.6545351700644884,2.3372148602606937,-1.2223523353167833
4.809988393539449,1.681186922923854,5.037346409318213,0.990899359246747,-3.5028062351184808,2.0552395616345156
0.6935785531968444,-0.870672625669956,0.7744571425373898,-1.126514104833471,-2.5219172197776034,1.0174776061664415
1.1986623353460029,1.095893996508237,-0.8080381343932669,0.15447275729920662,-5.1744014646145615,-0.2833259076238992
-18.938739866550044,-2.4786761187126936,8.621385961633479,2.4506404293650172,12.5756243013453,-0.3758229759549875
4.647612462696946,1.0783855992897053,3.17506711403081,1.4088594201244298,-12.458676788280613,6.027395502552032
-0.4333520892663102,0.1428425808510515,-0.2655730726833576,-1.5233297727935418,-3.2742436665435934,0.5848877258206351
-2.603028130652721,1.3938235110470665,2.3070311363129035,0.485564310536414,1.9809678716087449,-2.695652695586568
1.1270194185814901,0.15035499480732994,4.304613249712009,-0.328364308372441,-0.1310299901272094,-1.3384807606548499
8.566114952999945,1.586418133485369,6.968952307630542,3.101254063222207,-6.165708921857436,0.2691272220457328
-13.130218341057729,-0.3284213322442283,-9.94771646454628,-4.656293491784966,10.602191026446492,-0.5833293951159066
1.9923707946815803,0.8125546180482264,-1.9833761236393743,0.9934888631791852,-3.2415205482073253,0.8255869954080614
-5.072204486753541,-0.19082877840942913,-1.3829880106939734,0.24748477762873888,1.4478765809069785,-2.269825910066342
-2.9477434681143406,1.9842224868309315,1.4233290866976276,0.8121303464132636,2.237043535934882,-0.5194782516122256
-4.473126096217455,1.338123400875653,-1.455725284103527,0.9585286922221252,3.815765138234471,1.0221340266462022
7.452121255830541,1.800596524795884,-2.744195367403946,0.5315754162728724,-3.93126444687792,-1.9396312346933555
-2.5737799423905163,-1.0133627047978988,-1.9448316981403453,-1.2814838505800323,5.592040170246812,-1.961275525936774
-0.09198630741543512,0.30037918711680506,1.508507882446987,0.575874280073231,-1.981855880232879,1.5222507441652808
2.7478272659227043,-2.7686791851886485,-0.19765774192914187,-0.06811907596895977,-2.610545975068181,2.388601528828469
-1.2629626868947028,-0.09031833964363045,-0.5673826687356698,-0.6704591042687347,-1.4147168688422807,0.8842584067951023
-4.507564617616226,-0.42508451202442243,2.2151850256217767,-2.627473524655713,0.39758163168309424,0.20240866467065288
10.424867712793212,0.9125167886564373,1.8956985030663942,3.30571941868206,-6.7216357626141034,0.9663087266605253
-4.946675759106865,-0.8688265644597378,-1.5317013180478436,-0.37972681741893455,5.039287196984082,-1.051445012356958
0.9218647217613731,1.5833061542758764,-0.11975927096753636,-0.8307164597774286,-0.22926745133598203,1.2132002326784919
0.11990051347632225,0.4195738604001321,-1.3290573419130371,1.217216332312904,-1.0938956724433702,-0.35294129464764445
-2.7300480331885355,0.8233375741659491,-0.07854654837463908,-1.1211699230954055,1.0556260640245085,-0.8712810145783303
-11.83216391574556,3.226278396946107,-0.6468575305204964,1.2580723860458725,3.6098906187039317,2.425350933640215
3.6386021615983566,1.2860200385327631,1.4700494988079225,0.011635854759170006,-4.463133475715255,-0.47653851437055683
-0.7231415917491297,0.07539412476355523,-0.885699309086314,-1.7488704820980574,0.474362519586748,-0.16894070444704856
-1.4526135826038242,2.1433319033525486,-1.605717087534086,-0.10741768545173302,0.9498286886407317,-0.03166913936375221
0.635817375597302,-0.04650525419079199,-0.47610299311765214,0.9157999251419356,-0.5685563610060732,0.13253473008006064
0.3443260501504946,-0.5706738735648957,0.9720276189868777,1.6577436088095099,0.19258660504052405,-0.4848267807539359
-3.0755872722957607,-1.4342447274489414,-0.34437144783305984,-0.5565448161130233,1.8368284507766954,-0.8758849576190972
3.745604295915048,0.014117505835098604,0.6763683823170601,0.9223069396241925,-2.6314851132273542,0.9408862075077943
-3.7851644102425364,0.14115874694969932,-0.06505888027471474,-0.38369276286729653,1.9582301230220422,-0.7073830915676668
-1.7958976746511466,-2.2370631727071957,0.34162648344545254,0.23646662788920308,1.0777614064460068,1.1933797689209587
6.893175748648621,-0.49836272516588503,-1.5276266299258587,0.9867810621874203,-2.238829582198437,1.689138888597621
12.474186235799692,-1.8028352034036115,-2.1173510380826643,-0.6455665696194963,-2.822359052566533,1.6138166309186872
-6.068152693540592,1.2663311822327918,-0.0999628602393211,-0.23422991054897063,3.7221425469349994,-0.8359381972813104
-0.9957905273263604,-0.802922056415516,-0.5663627462193048,1.0362129902407324,0.8272385765218089,-0.9032077535086624
0.15798154293649258,-1.1244890759016497,-0.41160555952946165,-0.17262430232633763,-1.1685328391439551,0.22972664600789983
-0.43801760177105287,0.3164285920517673,-1.6666111739886618,0.21402084671940136,-0.11608569449271888,-0.7116617343816369
-2.11444636444505,0.4619988467973499,0.4329311506948299,-0.6611059747995184,-0.14059791498313923,-1.483202798628416
1.035763187262701,1.6581282873962213,-0.011093761511508538,0.5652549233947992,-0.6458881449415694,1.7615912094800712
-2.560467383030343,-1.2089520063029664,-1.7110768161983905,-1.1797183014744026,1.9290469013921765,-0.7351930192105864
2.7814554252662336,-1.625518461828856,-0.5998447682947372,-0.11201163077999898,-0.8695517245399289,-1.0776052320083065
-1.0219046355566217,0.7736651480045076,-1.2286933602856562,-0.32678842190115653,0.5579893898957256,-1.6852577300432936
-7.89102395980812,0.5362462170815328,0.35147174945169946,-1.184974874122497,1.9820654490892835,-0.3687486708583734
-5.552396601944155,2.185660467003818,-0.9333407999208065,0.8117787764533679,-0.44697602598486275,-0.2066112864582379
8.73883680756303,-1.8101952380889523,0.2394517046444315,0.09995138311974366,-2.6588056514755496,1.2594369644047112
0.653021539623324,-0.4140872504818241,-1.2661793127962602,-0.7293802353422643,0.50693735296922,0.44668045498274916
-1.6543469909296864,-0.18159370386094742,0.5855748603647575,0.30301101238753525,1.5348691716447342,0.21394020648787326
0.2717147756575271,-0.16147324825047404,2.0602103058660473,-0.8419172907020961,-0.6334032897274265,0.8319101165334046
0.04188468505628146,-1.3861870742696065,-0.35042665204762335,-0.49557147386813366,-0.08695931927517225,0.6372832567917895
-0.3319418284419183,1.1738491947095817,-1.0603112746140602,-0.10143720527048528,0.19314620191491094,-1.9013156034397485
1.4133182655059235,1.2958344609503585,0.08936336427036604,0.5431009492343712,-1.3048125543493159,0.7439043770752328
-2.3433337516402863,0.011724885198412971,0.45930056214607407,-0.3049873803273294,-1.1264909982655151,1.9944863372993358
1.5104920566339413,0.36209735481916683,0.5179334229995323,-0.4357018179218063,-0.34396085167428825,1.3290329664103022
5.31871255960096,-0.30919940336181556,-0.7682306011775974,1.2094415033765509,-1.130893321447241,-0.3323591317246022
0.8839935391835325,-1.237932565761684,0.7130900684207199,-0.04177376273372549,-0.21993575967359824,0.11010402235410133
-7.481093964756358,1.104181961510251,-0.5196984919938861,0.19936577483275925,1.278072034003342,-0.8952320699268712
1.5377373884152528,0.5566294842560651,0.0358880258989317,0.012704927340753402,-0.4642255888651525,-0.46775019008306984
1.4733456448562958,0.8684204369150169,-0.29588070953761314,0.04715737989232949,-0.6106248743239688,-0.4953599157365623
-0.9438058068964909,-0.06387957592168148,0.693612651485821,0.3876280840820562,0.729982752775512,-0.4273750503461017
0.30593944294137065,-0.4385118252774922,0.23516058920855887,0.08329611779226015,0.5415950422203116,-0.34595732761500975
-1.7816959360796871,0.30491819850387214,1.1495406132665382,-0.8827513061484817,0.5968236789048078,1.2130523688090642
-0.5027941963035385,-1.6628994593267508,-1.3719884533572304,0.616539867949091,1.2672436834469896,-1.9696882672746905
2.173967708343406,-0.8961675123762434,-0.7960415503875521,-0.013433024420011888,0.37232922513006805,-1.1459356994048415
-2.731079206778679,0.537432116454664,-1.014569098457759,0.4981584719932779,0.7381201127417254,0.49852408591667885
-3.9062114126846303,0.20166330060549986,0.02355562173325034,-0.5329492595046137,0.8632610447593123,0.828976379392242
2.3952405837469875,0.22331493170950828,-0.40627899203688844,0.16344879269299312,-0.46378516557804816,-0.43801929641890347
5.185145551057859,-1.8424989959574853,0.8933966339642757,-0.747042814630318,-1.0743038288206979,1.0925440083182005
-5.779726791795494,0.014539184309315667,-0.8729078539578619,0.7471095588584419,0.9828636493079022,-0.28837548885211584
-2.252250917682381,-0.49126666912582834,0.3246675760583549,-0.05074895518348377,-0.29742991858368123,0.6452522075812075
0.1388231136594794,0.07841675103311524,0.5889793931868832,-0.21954712626531417,-0.3058551970813086,-0.7107403126238283
-0.7034369459846441,0.3770371848991994,0.028723916341579114,0.08693746849679257,0.21191465918933078,-0.3604849812557691
1.3464575854673115,0.026068024525629507,-0.4308163654367176,0.5277548282188943,-0.9993677680548567,-0.22016214878649265
-2.6952736971849873,0.46898879182986375,0.826419171859929,-0.9946740486564265,-0.4175516948002712,1.2640714589264719
-0.7005991700593244,0.6284703612920453,0.20357766545745543,0.3557172520362575,-0.2683118020654396,0.4361971934208939
2.428958448218461,0.013261845200122413,-0.16513000439852693,-0.16181392325943159,-0.32872499743265937,-0.4281200356631368
0.6778016185177194,-0.4677787732237301,-0.48553892388509,0.6524217562822907,-0.038074598287866745,0.2115646985024119
-2.360149410966209,0.3861866291335326,-0.021201405923152505,0.07850093692429494,0.32788367282873065,0.1826162582015487
-1.732620856279651,0.9465935667483689,-0.5534529205837875,0.33778356250982045,0.37726667970190125,-1.1745590192548576
4.897206783085493,-0.3532950896654283,-0.13459137217828823,-0.47229799806093564,-1.0937945167476153,1.0242731101756728
1.4275306912314094,-0.13130446160003206,-0.3213969249634313,0.04088856702351468,0.0907440196936733,0.6363698624877288
-0.38248698751567933,-0.8661436693999862,-0.0007460235592144926,-0.36743455700660743,-0.3420441378446778,0.5638570325935887
0.2271361903872708,-0.1989189013749364,-0.00182996197288543,0.10270831995293433,-0.0022946820686769454,0.2853166647959412
-0.5122613284697355,-0.4553420330269149,0.2616133923976503,-0.4889299837564882,0.5906383974861185,-0.27708948899115
2.537857196022393,1.191484570938792,-0.9274104375600262,1.3062503566709083,-0.19101284459713114,-0.8761461138597655
0.8063610836494828,-0.3509396915603129,0.24233493174106746,-0.47061763399457623,-0.24231892621932105,0.2405784426790324
-2.4259426300592986,0.3388160876899976,-0.1679431013067928,-0.12186781649068584,0.29618330790802294,0.06384731445194076
-0.6069479766519849,0.6210526534610251,-0.007146720254540488,-0.3817701088977381,-0.35307765143435077,-0.006882049158301928
1.7587641023669272,-0.3149126270543838,-0.35787517034283606,0.13453477976863684,-0.3276967951075446,-0.2888094931679463
-0.35051991353300044,-0.45365766218390413,0.18172477451770866,0.1727410209233454,-0.38817527318809447,1.2146428364731872
-4.032962157978206,0.7694645188092917,0.013200448257074227,0.15510746730042202,0.7810058438024714,-1.6873393132619996
-1.561385530448009,-0.6903414478432577,0.20877345358738392,0.10045617752254629,0.4501432163465464,-0.4213086344876985
