Gx,Gy,Gz,Ax,Ay,Az
4.768389999999999,-20.705160000000003,3.8237239999999995,0.5499999999999996,-470.086,78.446
2.9460867191892444,-23.394311963319275,5.946657198696431,0.1188911715151833,0.8719684685771041,-1.583237785164965
4.9463608812727955,-20.084000218607834,2.825952980201595,-2.4949830698251483,0.8828689762038648,-2.255616971002581
0.5114614523485759,-39.15815724767276,10.274279796129921,0.09874980506611258,1.3962058411351146,-0.9667477485007157
-13.095421475932413,-157.26764232632772,10.626233251204313,-9.006214724368713,0.024528984790240904,-2.101760823094214
8.126307971478594,43.66342397801616,0.16660990978971757,4.010306179297926,2.441685404915394,1.536378128817726
9.402115155779999,6.58843800712309,10.172029485869357,3.50555754191186,5.148539800408624,3.6039570475596485
7.277640612474016,-1.2098615721521082,6.761704943170342,0.6993321534732404,8.11839415730351,2.967934891341188
31.86078337816013,-5.403889507820931,12.686305973217273,2.8773851434888167,23.00841326830571,15.869618144291017
-25.255660673800755,13.620018241123777,0.6348686337910072,0.08493637862586295,-23.607599261530886,-16.006384037222624
-4.015439277359707,1.6097217707364089,12.143594768978561,0.5184434657818824,-8.558705986608178,-6.351649842927296
-6.827861215201469,-2.8253859868900917,14.936723837944198,2.9808926167566128,-5.221282129116859,-0.6260611071510276
0.26090095989346196,-15.341554861390797,44.517487220477804,7.590327127851014,-5.978482923570239,-2.72659617154192
-8.369506660658285,25.525706490847462,-86.9998781329781,-10.08974591886279,1.7537564000787076,-1.4329169981276189
-3.8344045256562187,4.274955279198816,-5.022472350204421,-3.5039658748521068,-3.1508605111733816,-2.2905886672864435
-1.535486344360721,-1.042726117542776,-6.765557594609998,1.4676798159524997,0.7561601099315385,-0.7514652390094252
-0.1640618473119817,0.9578815189023544,-1.8680413109896552,-1.8653786130573147,-1.4516798044450443,-3.25049621717078
7.725705657492764,20.18161814864098,-4.093869354460632,1.3916077113490393,-12.714514447651323,20.860158731684503
-0.48301126932318694,2.5695264455742812,-3.7184023881258885,2.4216183911626676,-2.0472702891471397,-4.579587236965996
-2.2514107468822657,5.611051914690625,-0.718008102922309,-2.045903459707662,-3.1431596016150416,-4.295546009626463
1.6838280337747928,10.708372946157173,-1.5764781457188453,5.192992374306195,-3.2228849816724177,-0.4905899569284351
8.497581659975921,2.9801665651952964,10.42063359733272,2.5497720790157845,-5.193488499354997,-2.2255218470618807
-3.349443005160916,-14.742299503864945,-4.96383945989811,-8.505682321100533,-4.838595672031413,-2.2570706363768753
-2.674040261115181,12.813766255826923,0.0630586154748558,0.49372806737014424,-11.350218367041743,-3.9314951825543965
-2.341665731437945,-0.12784040308795852,-0.8681001806975117,1.0796310996885092,-7.934915366161017,-4.405824005550031
-8.590810949216195,9.614396245643306,-3.6491597937771747,-5.692144264262033,-7.471804935979254,-5.634457881774583
-6.926054052900478,-0.5913111087124201,1.9847146105221058,-1.5312708558228918,9.081623608739385,10.428144673631635
-0.38597126457882713,0.41872339689325777,-3.7784676844057223,1.379004981007018,-1.2264375232638178,0.49176125556714484
-0.999665412951374,2.2389102949525386,-1.9730356411197607,1.9919443754260957,-5.102771244769926,-2.524720873337303
0.6964004316815875,2.709364240280018,0.13848314411761553,2.901959270774808,-2.4071007512162637,0.865728374816144
9.32798047530777,-2.2403447711558027,2.300198308366672,5.207267414418277,6.3075181182405755,3.8862097738022445
-0.6271937556137099,-5.277389259367467,-0.42886654464330376,-1.7378040986814043,-1.1970259176453113,0.20989538586542267
0.21891409951500207,3.997312156048621,1.5049451464750307,1.6260778724674743,-5.940634159408838,-1.3015237382859104
-0.3500396222244524,1.3077719979126279,-0.31772166943362457,0.24751393115460607,-3.402625627882096,-3.3097641025204934
-5.609635988625794,4.376087270978909,1.2866092956789774,-3.9105370863707707,15.59860828713314,-5.663070630973061
2.743912196955221,-4.285947221960235,1.7725889315995316,-3.8356374639024224,-3.4898230875351905,1.419594951235188
-1.3172302062456123,1.9297670235478357,-2.1893933834485897,4.540319128432644,-0.8422459694995528,3.1166116414223266
-5.88597583563477,9.181542849098282,-2.049713462444931,9.522502864158305,2.1070675798219485,-1.709335728232673
4.535932662579754,9.67044851622197,-6.423128825822542,16.711280594945556,2.353353097676119,2.426756931436243
-3.3779937724941735,-0.42287368961241256,-2.4028558437583007,-10.452763156729446,-6.72569817966116,1.188845748175881
4.1556310691845315,-4.131900324457174,-1.0842491892082633,-8.997884388880948,-9.245495361280067,2.284039170821315
6.862265027717628,-3.9509996394077405,1.2732915606874728,-1.1785011463240256,-6.0369424575249555,2.422185155781948
1.5470152748446249,4.72634174783082,-3.4015551381377422,-2.9191933566206107,-7.582197356526038,-0.5581820306611393
-8.78217505986769,1.346420673758308,-1.2641852596638046,1.8106935853235626,4.953634388355352,-5.368097526157243
-4.719179798505344,-1.4358008314546806,3.5237786032560123,-2.3457190948787687,-1.5244930236231062,-4.2946521327759815
-2.010575187691727,-2.393213559573512,3.7800465978299487,-2.5450613413974352,-1.7733102774835443,-1.3427705047485314
-10.447775129182281,4.246342136024122,0.3427092700010892,5.658897295064358,4.82274823790079,-1.3455800880094322
7.374858573790153,-4.138430584275717,2.1931034732258112,8.655826256615121,-0.011628341648330931,0.8251871536000861
-5.763151336807606,1.3359330257382958,-2.21364076501472,0.2803170099328307,2.721459067878552,0.8378268282192032
0.3311294075174209,-2.127856674557334,-0.007490747212125282,1.1861951336960275,-1.0211401142605396,0.26455451375679684
6.1418831654082755,-2.9431270095046864,1.4581022319553218,-0.9283438142928961,0.030341734614040217,5.315331686422605
15.135660093243995,7.018226417794732,-3.0586618216201558,1.930875990542315,-0.6582085046617445,-1.882550741803855
-1.9540702345768484,-2.1377119227661012,0.9176292977780189,-3.0174683267986087,0.40134975674256024,4.238339135574035
-0.7836900618825706,-1.1329082717928145,0.45917332030583946,-2.039307708322085,1.6482288090417716,1.1228960437137854
-2.585428082740581,3.9603436777219603,-2.3704355120424165,-0.13274576829293916,3.3458350814451596,-3.888913113788943
-10.291091534961105,-1.203232404171004,0.8408149939299916,8.2151671136726,11.196358188572411,-1.3791927923525602
1.4116910778255514,1.6264124221199676,-1.597763833169467,-5.089885648504062,-8.044467470055508,0.07772132436628709
-7.163219438316655,-1.3289099428887434,0.20947617604860846,-4.175337995563495,1.491355195557337,2.5554326919231265
-8.913694818715523,-4.233169743840621,0.6309297396312541,4.338338516269165,4.79940662710429,-1.6474191742127542
-5.567066977740566,-4.699532526001203,-1.4030022566023095,-2.0257940430998813,4.078519295714366,7.304377548972979
7.141489673472561,5.9839196354476005,-3.5581348728894824,3.7413177100398465,-7.345925091110077,-10.229344151680355
5.633562277201366,4.212053854190438,-2.7071469037763833,-2.959366024207969,-2.6203704029343866,0.6197314126767941
2.085476809577865,0.33947450415538194,0.8819415504204906,-1.20190884154146,-1.2923213028995981,5.256655052051002
2.3171926060999537,6.443992686497289,-1.5648452279971017,-2.6598164022230293,4.038756514521209,-0.8589840818130958
-3.8909478821681907,-7.595704164753707,2.2116506677607526,12.07629402925174,-0.732417983482865,-4.568834170430378
2.8599876387528784,2.607951291705097,0.089708463325054,0.5321274693260634,1.30370931635977,-2.48831306506802
-3.604936084967738,0.1810107244904149,1.751713481928436,-4.02723116775233,0.8882033715826747,2.857374775859845
-3.780445545030263,-1.4921405402540222,0.03129325120209514,3.333285215609915,1.7195322317433124,-0.4328551721273233
-1.0733317537568385,-8.426824352114279,1.9736786317622832,-2.4231334612196402,-5.788830141691183,10.938319771783632
-6.15777458201079,1.0970697531897027,-1.2844907034054944,1.8356358425027886,6.011742712050472,-4.333385118214828
-0.34364131975071444,4.592433083641425,-2.19248714689151,0.04831471834331591,3.4161159588252854,-4.511940853342461
0.4404661967081216,0.4118828735282918,-1.1550058715423184,-2.674676798783331,0.4493069545406061,4.417085451515323
5.995580641231372,8.2331741118954,-0.2659343630405413,-2.868952987793401,1.0863570417825352,0.07583112554577509
-5.5628703040894,-2.1745773182752424,-0.388224949638742,2.6513663239431002,4.727906231461658,-0.33755897467269913
-0.13479544937489596,1.5999975736913061,-1.361825949070508,3.186635488585509,3.4997407995414527,-4.245556384620057
-1.092847644550409,4.421694739150895,-1.596649194288386,1.7540129220570444,2.9730321066981573,-2.0735038716971284
-4.725287435175253,-2.934635001012778,-0.8028037695666117,1.660366051672008,1.236063217900599,-2.4270703326983596
-0.13244790279007912,-2.9253282153902394,2.045738833825182,0.5703371534870887,-2.5770750711194363,7.210875974053165
-5.491376633087403,-3.7954572767052546,1.2464106243455544,0.22730434336783123,0.3839942401894332,2.698593594955131
-4.9004903854019535,-3.618190923604431,0.17080347539659735,-0.45393770355425406,2.3000071026795093,-1.5437010502180288
1.9890475825390734,1.237380247822264,-0.48540460106494676,0.034366179839214306,-1.2911238389033413,1.2041153026916118
1.4345321961400441,0.22147221349698976,1.4560024538421465,0.833987310972503,0.7299005453207563,-1.2227886626623738
1.5911438106015634,5.447597313753398,-1.1795263869066548,-0.0025109375874623474,1.282909649592602,0.23057518668702492
-1.0312315860714396,3.380932173923731,0.59304988357575,-1.7253431522213876,0.4753149761418647,-0.1108721732875333
2.2888615882005072,2.4246582219223587,-0.544365039033595,1.0664691275292981,2.386532370450219,-2.983335636662173
-6.858335865366701,-7.147254104818343,2.0868361149560015,-0.8102740487093485,-2.645154461044454,-0.27538585822249806
2.385990055546566,1.264624422228962,-1.890717211058349,2.2823433128794375,2.281684855886934,-0.7487768361393409
-1.087392745155012,1.1124413813907652,-0.2687450832282481,1.1579582716487464,0.6783341163320469,0.4772100047927008
-2.611772878425694,-2.195007426775319,-0.2506909102320667,0.561426983122303,-0.8628408379077082,2.5123097089061504
4.324494506781361,1.2583011633838987,0.5673668943289887,-1.3850571548324069,-4.077978620748256,0.8731166453940435
-4.643728334010958,-3.4231671414821445,-0.8802249085264182,1.4591337723934643,5.674866185005044,0.47115102541708853
3.126393150200731,1.3885039420749719,-2.1097757966208404,1.3158438758874444,1.6941107781128548,-1.6774466437487545
1.470693720688174,4.071921397685216,-1.190559918443974,-1.1410312157505125,0.17482837750768165,0.555321824659722
0.8898303863478119,2.2342702892718447,0.5651378795785089,0.7145630708253241,2.5694222605621997,-2.797605781520514
-9.304892729833163,-1.8331228299765894,1.55642032256933,-0.22528922617713465,3.1235647920969773,2.5930760361235263
-0.9008427761749713,-1.2704912581274779,-0.07309484252910459,1.2924315587007174,-0.22822194024166587,-1.116608911399793
1.9188125290888358,2.2985989300396534,-3.1655697243383045,1.3543573020971302,1.353661929271076,-3.6596148147495486
-3.60692991271396,-2.9302490735510327,-0.7522145291566439,0.9698345569326827,-1.568304593293925,2.404177759087001
-0.5817455524622349,5.470356344236207,1.3356769580580778,-1.3283401455652697,3.143370333729802,0.20612535689910594
-1.6669084249741948,-2.536346123256237,-0.09575760246007459,0.22174486507418323,-1.5382076609628643,1.5548046609841057
0.28311250414787303,-1.5579722239212046,-0.9765899470408148,2.107382856250874,-0.41974582076259015,-1.2501777505827434
5.060168931979363,2.1387616105690217,-0.6753717405204643,-0.7665124378973276,-0.7415962330327798,-0.5760709820842418
1.5747490741544867,3.9839781492076716,-0.5963618683842229,2.068972724193409,3.2016096137398318,-3.319709586760123
-0.18395107733998617,-0.3003345622489615,0.3091322751318083,-0.769114322319879,-0.13123790952080494,1.8055324886865962
-5.383585287670451,-1.4279220890187614,-0.3721545739333607,0.887859709113564,0.98862765367707,1.7696399289197047
2.115303785675666,-1.9370938968601839,-1.5897408102477848,1.038882413904446,0.5053226591672697,-2.253486826021365
-2.7970884768160005,-2.5880163095150355,-0.46734875867564296,0.6333128314645993,-0.6905585194075055,0.18888050593062555
-1.6711101848264427,2.6870623225126975,-0.08379087685645592,-0.4319219195561579,2.5978987577093537,0.7280230731126047
-2.1490930277633513,0.3282763208379009,0.26199163945162973,0.4558362664336344,0.3796251540767699,1.2386181785105403
-2.582420918664835,-0.24636442347714382,-0.48217183136537034,-0.014534643639745104,-0.555208609118298,0.37424635395463657
2.858211926447604,-0.006821248159901039,-0.06924172291790626,0.4603109026265142,-0.7426971092983665,-0.45001544510647884
-0.46938705618396526,3.7755213067866156,-0.0495388529533656,0.9812266816192574,1.584246913429377,-1.1780227055540309
1.8666459111297988,0.20717952114151683,-0.018008525585053115,0.3764443287802183,0.7698161593794026,-1.2949962988611743
1.3417500085901024,0.19296767209385735,-0.23368024712847973,0.5718405956083221,0.25532888487153294,-0.059705008338780896
-0.6545156290091405,-1.5090852104662922,-0.3860279143423322,-0.029364219667563418,-0.007230348412007259,0.1991219979477643
-1.7694511694665527,1.201960289791868,0.6858788137149396,0.6908365072613446,1.1523918484751317,-1.0021889518196292
-0.6593231561912436,-1.8713498082274622,0.38043319608932924,0.7189578891535083,-0.16069802535223482,0.6537428341353669
-0.16330129718094777,-1.3641361537813448,-1.1120551086707386,0.6851026098488565,-0.21695776766920027,-0.5856409406196921
-3.9880890277377157,-1.1087257580453984,0.48832631118087577,0.01868532952858304,1.5149731798553574,0.08034888268943735
