Gx,Gy,Gz,Ax,Ay,Az
-6.269770999999999,9.335911,0.8949680000000012,48.232,-488.548,49.466
-8.7437732196697,13.233116012045285,3.648300257547167,-0.058074402109898414,1.2168719400770744,1.4029092629962965
-3.539508657587635,3.008949975125713,7.485636231587433,-0.12407033823958327,1.6325735925368814,0.9711086972391078
-2.685035471646497,22.77936558643253,4.897071287649436,1.1519986003900937,1.199648885178097,0.06925046940208802
6.015001690307891,28.745890445289373,8.004907471080498,1.5767192214541377,0.6925669531847057,0.501081818029056
-14.775257715977329,22.908536755347477,-17.12271349453896,-8.222640189944377,3.4835194066947195,3.5533784735702243
4.42381785806027,18.59602230829287,-2.794517683317522,-1.8527522552068751,0.7171988246491101,3.499017240608394
0.014622325499656696,5.609110836007585,-0.6524153238455451,1.031344889555504,2.828131851229546,4.199313367551664
11.383175485776526,-0.5300857233428906,-1.452817728322381,0.7835869000935809,8.789369157259749,1.6212786030513517
23.488860630568094,13.76825563636212,3.2940173318704025,-1.3342524659171506,19.880787000004897,-3.8736087138764814
-35.02883491382509,-2.400122354820528,-0.8589352937111516,-4.238399380138011,-48.795318377388035,4.30039409460519
4.2709761386168665,-6.636497761810631,-3.7914645928490307,-3.1407825500610302,11.005856782105832,-6.083234732424505
-2.0530030773419305,-9.65939329166929,0.14019596557856495,-1.616141010380686,-2.845067513724212,-0.3753683965167567
5.972108050834567,-21.164665577974272,11.231182159060097,-0.09866171887279407,-2.3545823339333425,-0.6710844896773521
2.0199677650979786,8.20981777554176,20.67999768365591,6.213991517368642,-3.399909450814892,-0.39741348026999046
-9.81426577725407,-3.6300304183173346,-39.11657769805089,-3.9050158761703386,-1.7525615980730442,0.30501548953420465
-2.7242059781574577,-1.2738782629910606,9.742022262112826,-2.7316113653246563,1.7234640351484842,0.6356882322232978
-2.236466929353387,-5.000170708575011,-3.2792524421004896,-2.475945516867297,2.8084430213826517,5.427124209203453
0.14669093101879982,-2.4405889587480107,-1.2133283154349117,-0.16696196893479914,-0.5065822620851301,2.5707016883235423
-2.0752662975072202,2.653234901184063,-4.667502980514485,1.393613257528604,-3.676372877557212,-1.8716850327377008
-2.2941887995714705,8.469346999974015,-4.126805508864074,0.0433229315915209,17.80376591726696,4.440436164672155
-0.7141487687377903,-11.55313306430596,-2.793188909523266,-4.593740864860149,-5.192672371039444,-6.644208979072218
0.6667454803194023,4.66205053600614,-6.080737195231314,2.3104725273570095,0.1679786350284424,-1.1336787765939715
5.868403868797568,12.042940936734723,2.7269250846364574,6.152664561906747,-3.845519534704759,-2.2363413263997134
3.8227635413745515,19.6036085464833,4.729389027483395,5.949135700932759,-3.9197984285779164,-4.770077554093005
-7.012783196092699,-17.855287270678698,-2.3666111908484395,-2.835010475927014,-2.4834181181007233,-3.470753664772703
5.123572863654871,5.4379912731307325,-0.6210274855930759,-0.16914462594165558,-4.687337076260789,-0.7769178869229172
-0.32710584035943424,-2.7347755984293514,-0.5388216772421273,-4.697113403597334,1.790990000949248,1.4484078487729803
-3.8779288910257486,5.857829996712736,-1.0812259855722028,1.3953515248860648,7.834185136206653,3.960637403552979
-1.0094487950370283,5.027002046205624,3.743804940764572,1.989623078753743,5.254663609210978,4.664936725202699
-12.461063609402409,-3.577295829315653,-0.7360839212225654,1.3726305289446437,10.60090072620839,0.22454189536585778
3.3499092100700074,-9.35392256172964,-1.0862917500040656,-6.54860236965218,-5.61848567563094,-2.097559454377279
-2.3012382311202892,2.176209227118573,-2.4170694185930106,0.0970996753817398,2.5116232280222004,1.1816774516638808
-1.7415056726832336,2.589622688943074,-2.0103508279197007,-4.562374291616212,2.5223591170506414,-1.4310790787643977
-0.9503010415907258,9.864984940378397,-2.440560584616767,-0.35548442692182114,1.4034885529056766,-1.5768669172383387
-4.068876693547744,2.353018291469563,-1.0424230109440975,13.337252778742139,0.4446914092163912,-5.470293001556293
0.39467939929568585,-5.27085978741934,3.1988915225837284,-5.713556719093589,-0.8933083691500933,-4.152549664186131
-0.18324644725037836,2.715671191874315,-0.9895966125531086,0.05291108037343517,-0.3798764108095567,-2.1693599355106783
3.181736696775602,0.5853718763476314,-0.19857223992115985,-0.7251714547450111,0.9200783707866462,2.794058342295799
5.497753232839098,-2.6708091810809123,0.3962910831167919,0.8440799488056207,-0.2840676868237062,4.652318659594692
-7.249496510897938,-5.415083633893863,1.0497986482829655,-9.110948190391795,4.4052972835951705,-3.1768174151471644
3.3869527278330525,-6.061404284697702,2.3167363651764035,-10.411635735469027,-4.096922722418175,-1.0488715802669386
-1.6065167516354408,0.3144927827708004,0.906576368317954,-1.3294590441634975,-0.9470979730056983,0.4171928893538247
2.2607783623667004,-0.03814383918087971,-1.895061387842392,-2.717369264451813,-1.1316612354283564,0.9182086319810082
-0.9398230609762674,-0.7512682679800962,-0.5793093973283119,2.820550524590534,-0.18112359066605255,1.7304964539028842
-4.38532577940871,4.285718727609126,-2.360017578867931,9.563185202182394,5.119944994644687,-0.7565286509587336
-0.20345185127327858,-0.2702145032895167,3.956696738860679,-3.6328880085545423,-0.5281701370174634,-3.572294349858625
-4.623923983763876,2.0100991539153723,2.006042626091922,3.2485939487563624,2.5156139117457768,-1.8933668464400997
1.5878823786930811,1.6574777711215312,-2.6925195948151073,2.9819903313227383,-2.9269804723629673,2.2067787971436728
-0.4351677042008538,2.206319012294708,-3.078761580143661,6.102668027681744,-1.3523933367735013,3.506038722698184
1.2653120534456865,-3.1649384303626045,-0.9904454845291633,-3.587992211230615,1.442224634345717,-1.2610865386145265
-1.8501777639300783,-1.1372351251238668,3.9329652430727853,-4.855140216084028,1.4777587416781912,-3.4780496616457603
-1.4690104513147755,-0.9581287884628928,2.3068943992312128,-1.934034853983589,2.0892246708242843,-2.2610514835557236
3.530010125373868,-2.8072380794775946,-0.07263881401916716,-3.438198378503246,-1.6900350989364101,0.21184646510207927
2.8669437675304708,-3.6410533018036335,0.659264449998408,-1.7509602731142433,-0.6826763971948563,0.766932209623532
-2.931045957114332,-0.6123559804731595,-2.4279597593275497,4.606043176516399,2.8610107764313475,-0.095606744009272
1.5383493875747967,0.4289968716965681,2.619064059618325,-4.179236190508864,-1.215092517305395,-2.7687096580361104
-1.2754143956700088,0.3913430823583375,1.5870463663223728,0.840289692871341,0.7025028489409153,-1.2446979288758788
-1.36599236116039,0.7313995236264772,-3.4303083907043845,2.9700368176765854,-4.2471820506189975,2.14137180180129
-0.04941434726081534,0.593704230697177,-3.2137768836909637,4.106488795407196,-2.24607435227841,2.058138885888662
2.2220242946329716,-1.4082957094488897,-0.8279597687550462,-1.5211528793560973,-1.1655054455817342,0.834999624812198
-2.4365019749646852,0.7637314897700023,1.2202857515154444,-1.6042776644065238,1.3020523150531784,-2.736737346782074
-3.265954740778668,0.08815899041057618,0.793956167770836,0.09024589644712488,1.7960666210843041,-3.539991895833241
1.7408192104649065,-1.3110321738826023,-0.13587745588641936,-1.063529267410535,-0.8763475469879936,-0.9751589224569982
-0.19407297227904874,-2.466566659365809,3.633451716143631,-1.8020975492660771,2.6605469750153072,0.17363080219500082
-1.0685718793612475,-1.2132777236757548,-3.5242026872215098,5.8549112751293135,-0.6805620381968007,-0.294534777460731
2.660758839225952,0.6657656298874666,1.81513225554608,-4.356839351638812,-1.0968049440823937,-1.5173327422527128
-0.9579619383702669,-0.6752333513600002,2.572938450038821,-2.262081144113539,0.8739035494595379,-1.2881211344163592
-0.7813056883169914,-0.77726135172781,-0.20598470622441317,-0.686395341801147,-2.0417784381665767,1.7272292231469546
0.2565706869768807,-2.294597591731365,0.044116126215407836,1.6274221969966782,1.0436128369787692,0.9787859652079044
1.7986300345580215,-1.2008929813772642,-0.4499293334224935,-0.6555036464463485,3.2270129892071964,-0.13977942466730106
0.0008612216762567959,-1.1307837397298628,0.32197399600820037,-2.701339542806787,-3.659480391037798,0.48698158095645305
-0.8015472991842277,-1.4873030551089674,0.6748767721666791,-0.8411853690186383,-0.23575628545446814,-1.643837317386355
-1.48891968923178,-0.7870140963528363,-2.2253885606456265,-0.1923945639163407,-1.7663550844130025,-1.1341082746246216
-1.6708520871996024,0.7034580494050863,1.555908082790372,0.5072814839078109,2.8763205616217244,-1.7037861072795968
-1.1348735914727361,-2.7711842668664852,0.1444820572687627,5.05980375675799,-0.6935736993319012,1.4716820689333838
1.2593281499238218,0.957705210019111,-2.1317312997990454,-1.653788567373701,-1.5348820600671096,-0.15906979892544837
-3.002416725356134,0.16883629006753792,0.033810231554708414,-1.016956912024961,-0.36725684682556414,-0.9988898128081451
1.4677982124039055,-0.21051140549733172,-0.05555503455011107,-2.0106235688335263,-1.171235308939175,1.7121126971686382
0.34354061194376184,-0.8423767493242795,2.1171746068363992,-0.39429091576224434,1.4588832875381774,-0.778773927258947
0.4541422306100626,-0.2859525338221583,-1.1977860101296802,0.7191734009990173,6.435471378676962,-4.036751743281759
4.50679646900647,-0.5010237413571607,-0.24314244221999035,-1.810718191970638,-3.8947437016151887,0.42670351595995337
1.9428642169774912,-1.481156075972841,0.2768744661446955,-1.9487806225547277,-1.1036538073914903,-1.3628642951280332
-2.960719853011465,-0.5375015061539758,-1.6023998144695824,-0.15702330833495826,-1.1913922943267492,0.7575453467939659
-2.4057243159376034,-0.2731769093640361,0.3278418149265707,0.40727748988067974,2.1195736427491916,-2.2434705260351837
-1.297945918383756,-2.531464050193669,1.991780936590579,0.3968961647412055,2.040707925922892,1.5851724531599698
-0.5804925906058708,-0.40181295094310937,-0.6480849625152405,0.04422754074764426,-0.7217551525885418,1.1811714304692256
-3.9110393314205494,-0.3656441994552789,-0.33366657127356,0.1335824284250216,-0.6500578033476272,0.4514592355322872
2.9606259569141153,-0.4016438613624801,-0.2194053032755017,-1.1445554249901841,-1.559342239493069,2.660058276030622
1.002729164652345,0.004067358333366022,1.6508020883988879,-1.9672853707833964,-1.267116589381348,-0.3581920178582226
-2.9586236946387214,-1.2861853185417906,-0.6172198178319268,0.8570867284315324,4.58805014188274,-3.675000328026095
3.397107481733685,-0.5660503379463036,-0.15658340660173548,0.13380423615809756,-2.309383757473177,-0.31053275781604894
2.962673206345282,-0.9606925858808151,-0.4250947666601982,-0.47486863612857577,-0.9889498701501417,-1.811830334740932
-1.098093103906713,-0.5117115335289962,-1.098012872602446,1.3500521692983547,0.24743624039057155,0.837788296384216
-1.3790926711973042,-0.19615748489910478,-0.433024892982023,-0.09370445666940007,0.016666329804190666,-2.408131060253943
-0.01796818616460416,-0.9116466176803202,0.32415228575542526,-1.7353484027055024,0.7759123285192285,-0.3296480669636006
0.18627219275028148,-1.6696051728975356,0.4012128238360817,0.15842454009656332,-0.18458512241188424,-0.5377260534185694
-2.490243382647031,-0.8352911454246792,-0.15145064191694532,-0.7165780719700584,0.2816062314816742,0.04904987122760998
3.754262746852796,-0.2519589952744079,0.5885283094529654,-0.4325271848383878,-0.7595181290190214,1.5307819361227606
-0.29126268829858476,0.30821604358443183,0.8981753203083168,-2.471843909932894,-1.0303303624287277,1.1802060971600699
-2.0700750483649815,-1.0981666074677332,-0.33093300351588256,0.04169502822218171,-0.024524664435884656,-1.7787121433510262
-0.28932873197476794,-1.1435252538690772,0.12017897187985599,-0.5176477719359269,0.1481534635786229,0.27031314022940794
1.52774602057385,-0.6082355745775543,-0.46847484060364797,-0.3553099371833194,-0.8071593040431484,-1.241348283438327
-0.5827806944741681,-1.0163983496284248,-0.7733346929583966,1.4833559978970012,0.9597646157209712,0.3079190761903822
-0.44060435595702074,-0.05481404756781619,-0.3818332305764898,0.3084174961475685,-0.3002620110379731,-1.069089035662011
-1.3479997119587133,-0.008553936798448611,0.5618885526115684,-1.045144759201659,-0.30964743976859066,-0.06294277908139956
-0.9864052122702832,-1.452382444712133,-0.8678721059617849,0.609294463160154,0.1437098470238537,-1.0368811275653527
-1.105938802343044,-1.5581312911339822,-0.3132240904587579,-0.7510745337616543,0.09466189488484755,-0.8065532389487502
2.8324331938767404,-0.3413144606600946,0.9275406606757162,0.282967002495944,0.1835464454280032,0.09834383386283085
-0.7211398209533402,-0.637462639797566,0.20175470730552042,-1.3651639459523013,-0.24764290081865167,0.756784682614835
-0.48692492065817583,-0.9019386823558565,-0.2349260559599805,-0.3137578514027366,-0.8897476432804133,-1.0196745766100261
-0.3358145584765563,-0.7514256820725569,-0.040229229677591544,-0.6928387314860455,-0.08823396759718793,-0.23466652719562828
0.2196917052570863,-0.7312819512457559,-0.07486407661412461,-0.7820189126000335,-0.44220233584733143,-0.7935597325085583
-0.26769197502335995,-1.3475617436200777,-0.18072222529564064,-0.1560529203577985,0.8265557320967072,-0.2467732898523921
0.5478790066259551,-0.687082869671785,-0.18094319602386386,-0.03317675590701644,-0.15393228868693945,-0.5603667194922605
-1.00317059225036,0.27720460089645826,-0.3340127367800355,-0.8944084768730142,-0.12004955574036974,-0.06878572108871756
-0.8832154123083489,-1.3968257686875063,-0.5198879911053524,0.01818782368715445,0.966939979129642,-0.43483497303533747
-1.53198798544839,-0.9765711802679862,0.32759916232821373,-0.6982218189928469,0.5405653061631618,-0.6421511679035146
0.3265296042453981,-0.886735584171296,0.14549940702178607,0.0477668385193413,0.5906902638335825,-0.18601378189029275
-0.5087566363634536,-0.924306931591915,-0.08390499075189077,-0.44544624943838484,-1.0028177266174647,0.7072007762771224
0.11378394851212303,-0.9277554240228849,0.3685227783369627,-0.16140739775643953,0.21824612123232523,-0.89525487566365
-0.650461445343393,-1.071971135612531,-0.1617040913237163,-0.0767605135880223,-0.5244238668027236,-0.3158304064614207
