Gx,Gy,Gz,Ax,Ay,Az
-15.605052,-4.295955000000001,-1.3027219999999997,19.852,-533.788,-38.7
2.6509152349035823,8.246411248930286,3.2934210568725297,-0.31955636898954487,2.614283611982372,3.709386913195845
4.826244809388248,12.437059474269883,2.499609245534479,-1.713104901783359,2.5520784626267057,4.95729090921652
3.347273670259035,8.651396159091565,2.3228958629944976,-1.5861469992974695,2.4412712747332,2.591786919235818
10.656015434442004,11.656758405396065,15.892896003425738,-2.6565941613306485,2.5383223124498597,0.9001021914899943
17.472351569925532,41.077079449626154,-54.772084112352026,7.972878791123876,5.956056872951612,7.138863844529382
16.387616731608645,-5.727990752645273,-5.171505033127267,2.247288550312127,3.45673560463014,5.249720441089051
7.67589345438945,-0.37703364731120503,2.893379859830562,0.89853607571688,3.0115206347499,9.970051225162008
6.239835975153078,-14.73632997465177,-3.3377353864914237,-0.21655605247180887,3.4233054651155115,9.225667584278318
14.787425040752566,-0.694109665701468,-7.956050827234982,-1.9454714318959763,11.059608485015389,19.144346809193205
-33.825130549847344,21.411174983621628,6.100489841706842,4.5260924872579915,-4.714192099125403,-37.45945160333879
-0.647039443910683,-5.255321084970554,-3.4212486292406337,3.157482668996941,2.3318561110170886,-7.607034609435022
3.2330462766810246,14.26744055791033,-7.672279557994094,3.7861436185875634,-1.372170589411433,-0.5932289473838182
0.21154198473988778,10.181074253434165,-11.614463666075178,4.894036134656282,2.3257350020870255,0.19361994277092798
-0.2787644853662403,19.14043612924807,-14.269125489999121,15.408364011524284,2.136592859161222,-6.244436435021008
1.6749047226076585,-21.863532546190015,23.470305429732925,-19.993171352259093,-5.832987457428926,0.25160669343701414
-7.752607530745453,-5.1295635653004155,14.067804780158776,-2.3111572445555524,-0.1500971990827914,1.3665412863366957
-1.7527910887996303,3.528030947302937,2.8223304880210476,-0.6840173223726584,-1.347626055863102,1.7590936036557792
-4.743220439326783,-3.4742428076431775,1.5343068645585547,-3.8813143668152987,-2.9183775259946607,1.141339495251919
-2.066830110899533,13.608446392607037,-0.153939842124998,1.5216374452232397,-2.9343221304796785,21.76548941941204
-8.646778071405354,-19.759684481071677,-1.7137885496634468,-3.907736235952643,-0.13110064397220766,-10.610511139142059
-2.707187814584561,-9.093006030841966,-2.190100655321537,-6.30532491749027,4.86506259295783,-4.22863854837307
3.5165258729836593,-3.3263952764844227,-0.5701250940384577,-5.420821945990682,4.158384791536861,-0.3842905531568492
-3.1127497672997837,-5.925170005228416,-0.3185310460836437,-6.145102217274814,1.3233400545025393,-0.06940560016623099
14.720262752837119,-54.78007460736327,-12.349025559686144,-18.042075298656144,2.397968871810855,0.14845014204705123
-1.4374316126905098,7.987835406037305,0.11089392844618118,-2.1762013454123443,1.6971372650969894,-0.911792912255595
1.0731354470997743,-9.694645163809087,-0.556079533370009,-1.019361420565016,4.431288149582092,0.9755694205878689
-2.3825277458637784,-8.847919422584663,0.29723866509413677,1.8641834921054983,3.666279933561778,-3.8334849406435296
2.4178190977542537,6.273207029360108,3.8368834130157765,0.6242000573985622,-0.13811387400716058,-1.5786121836426643
-21.832851516537545,7.627847207472418,2.035531259988827,2.1365424470537344,-2.3568247364697865,-11.642929891181037
2.1938458237342164,-2.7124477934654987,-3.3929266425521067,-1.2872822897878065,-2.975013404448636,-0.3031681312696112
7.857894490384278,-0.4659375428810679,4.42356171524965,-7.049746962349861,1.161406431399433,0.473562851259996
-3.625582499128625,-4.468374398035813,2.6859656425028984,0.6775715996203733,4.179388843356111,-1.5271330362261861
1.8951686787696982,9.37873572899235,8.99154387329473,4.384580627669257,1.122958275583156,-2.9756052070895778
-10.522167565263754,-2.837583813195358,-13.221426957651861,0.5558618117248288,1.27606239735995,2.602394916756384
-3.0458486048205464,7.1452984697880515,2.8812332654132486,1.5799643614899685,2.688215873025336,1.1784686740107808
2.6467239679048515,9.12651135089941,1.0746049689389698,-0.23859342626683566,-2.493657814475931,3.190237418674769
-6.882974855797227,-1.7859236874543702,-5.249333885566405,-2.4945235056348927,-0.5765345102412076,0.6255835784124244
-5.184777470048475,-2.16534072449658,-6.250319083084009,-6.688046630246939,7.004141229453576,1.3552387922788083
-2.064192431977172,-5.164162285665799,-0.4190832173518355,1.6009526974935113,2.6198252417253647,-6.846507596637527
0.19574095550453485,-1.6941289566886113,-1.278738649464267,-1.1301482993477996,5.368988023367404,-2.003321616043287
3.6805926826323,-2.0419085604965854,-4.688915604774065,-0.43850787011611025,0.8478865359072834,-1.572141007732354
0.42706801049853205,-2.6431626890144813,-5.726217659906208,-5.425826507664851,0.11487940392145313,-1.0961284271456062
0.15522442503372377,-11.440473534095394,-13.266800745334132,-11.440228069549566,0.23134145742558943,-2.81470880335063
3.692805016259748,11.671526174577433,4.503480531818896,4.919877200343077,1.545761381224683,-1.4269681063540638
-2.610148874147945,0.5126112235298246,-0.47678419113951653,2.975364355891971,2.0362006719642873,-0.30069665780395205
3.691496386617894,-5.007961658629837,1.6223829581514986,1.1733692816109402,-4.294412128513096,-1.9683206619749036
7.363974700265677,1.9431504037552463,2.2133055766823104,-0.3523477902687133,-6.051906304829911,0.044600172104660274
-11.459081097422498,1.7326437875183585,3.691464318480507,4.074419225388812,-15.285738483545225,0.46776245209750034
2.4519477007268913,-1.6098739900909504,-1.3296075883085539,-1.0453034615979324,4.381218586102473,0.20270619491654607
-5.760888530845385,-2.0006806235219194,0.1718624648065994,-1.325075502397759,7.756335458048615,-0.47364018067592895
-2.985803555530465,-3.108938809788846,-3.3131055427931955,-0.9440099344489181,3.443537160143323,-2.5734093749954923
-0.35848513380364544,2.1342674062757974,2.7893975699814115,6.628677562289215,-0.5834464152961588,-1.5621805919290288
-1.9955682545807747,2.1659700716126733,-8.418519392420151,-4.607985662830985,7.4456804273735795,-1.178590313236589
-0.3600495839114104,1.9906261501555145,2.161971478503046,3.5158653450401594,3.477854595666533,-2.6348378515980935
-3.8558015725214907,-1.1171461876086424,-1.476765633414564,0.21051407453343118,0.3753252481408711,-0.9052606793023643
-4.470762922697277,-3.1349423953274798,-4.233480123750372,-1.8899705901092336,-1.7232352688772608,-2.234595379097383
8.467082748727117,-1.929339611959835,0.6314299930666045,-2.1457711202451755,8.831787977387044,-3.078983661095837
1.0007163378276867,3.4932131545410963,1.0474848216677963,2.336506556901931,-9.53385272198145,3.137389332308139
4.763847038921566,-0.454454094324777,-0.6212191946042114,-0.4076391735176146,4.072713682799524,-0.2946933741974646
0.4572496119348382,1.906069081805961,-0.9980224514274592,-1.96697857757251,1.6116648068798924,-1.2451684165553636
-4.162063543774417,0.5356031940631731,-2.326926481131703,-1.679108910694261,-3.9880275378109102,-2.3451867255454175
4.871590405200765,-1.3893796127654017,0.227897471930948,0.9847258042755275,-0.9198011416209178,-0.8289306879672014
-3.9489092344195074,-0.1832382235176908,-0.29536807118755604,2.2579092412222477,2.9547095475363916,-1.4590429746644062
-3.2249628520721263,-0.9352314740114034,0.7386125180320455,2.9509186587004748,0.3480968812222027,-2.3714730924166796
-1.1814703239746591,0.8601092272305176,-1.0063239980451661,1.3901298671617062,-1.7701277277213108,-1.8112388359312253
-5.593737050851413,2.734771973673344,-1.1315398905437153,-0.43658995469392303,-1.32241844271775,0.20074985750978303
-3.3498582601404516,-1.7616979982772885,-0.9810253676572351,1.6706072893646635,1.9491118682630109,-5.151572148903323
1.402745454209861,0.677021175850502,0.26211534802463055,-0.24308611275003633,0.35129039177970833,4.3776388236498995
-0.9175738185978581,-1.8938482428163805,-0.8533282031404008,-0.6588830337573537,4.758204158484171,-0.4700663353976946
1.0696122654918379,-2.0110985087430064,-0.3258889715614841,-1.457866857441985,1.7095369407334997,-3.95186539739287
-2.05351763905293,2.2813146228024896,-2.331896740904754,0.3829593627393295,-1.620619837053611,0.2997322216681917
4.849399604444081,-3.2840965093339625,-0.7933498093031311,-5.209785998521894,0.8541308616641055,-1.7840895128549676
2.528254816733882,2.3692455042109675,-0.20811020668586827,1.929999367939635,-0.8079536388724147,-1.6161474587795728
0.8038394304125549,-1.776436714281342,0.648876049467074,0.8314230142957273,-0.37375304415011223,-0.5144487966466826
-0.950226606885181,-2.9854937767011362,-0.601791414223646,-0.5220393035198633,1.7180990802643448,-1.86020977737349
-1.2298301472177349,0.057943834864412125,-0.8570375841194826,-1.374962381193809,-0.10018593459096481,0.8943942001207872
-6.449759513324992,0.6906954463066048,0.008107716282481192,2.8135257820530377,2.792036821031886,-3.662461174173377
1.7436869995826454,-1.2252505193116665,-0.6126631312426234,0.28229625133145175,0.27507432963507616,0.9615805993443096
1.1563747501056834,-2.4705010273372583,-0.3163088246648593,-0.5246979137589243,0.3616822353553266,-0.8783534595258027
-2.3264407438004273,-0.4566508227356434,-1.0071793160867923,-0.04307829465393748,1.7883912196644705,-1.9171792565363865
-4.1698716043844755,-0.5637848097329734,-0.22385969100276037,1.9108653362351324,-0.7275376805445313,0.8255021348147155
-0.2883739313123094,2.4001229065279497,-1.4169362826190142,-2.2408843321819334,4.1566588581846595,-1.1917445406292093
2.084656448153064,-1.2026558760898851,0.9775597122557523,1.1980803918443503,0.5909162917388144,-1.9849365798384273
3.3620312444840086,0.8806681858221181,-0.463277141930738,1.7232998443954637,0.8480364090603487,-1.2209151565658898
-0.19607286614791586,0.09672084399526903,-1.2464208179962384,-0.8360230974755937,0.6255843085875,-2.624543001840017
1.1346530562504982,-1.1146756855496252,-0.2767250757154631,-0.5363000300898694,0.5257861637551293,0.6663189532660375
-3.7611759471983746,0.7874618034252217,-0.7837671317579018,0.5664491962648233,0.06148150233435862,-0.896071790557424
-0.5849940128066625,-0.13952770613983156,-0.25156332854267216,0.43375755318093373,2.013416926240055,-0.7668597103986452
2.450169428266748,1.083528872270628,0.20406193512945647,-0.20139906440007896,2.419832681996228,-2.183232730433717
-0.4281813410048312,1.4528274059796535,-0.2851225292375875,-0.7551397586608556,1.9883934577635756,-1.1960778222070285
2.1114243703983866,-2.563627636937915,-0.5889822509802501,1.1372221120586987,-0.5407304198718996,0.062837899790263
-2.1256167511764024,2.0963109647975178,-1.0019707580834318,0.29377270512953446,0.9372881790600147,-0.41725387280842274
-1.6151046146756156,-1.5289794873439853,0.42637055351335196,0.8234070276087515,1.0196175570729746,-0.913865248804108
-0.5655555562084507,-2.6362093340936097,-0.3630192206172549,-0.35180251827741316,1.1640424890903842,-2.3826988385836545
-4.518284843927848,1.0758605982502267,-0.5729223512680361,-0.04679310121013469,1.9486162049817692,-2.1431390550480645
2.1787031993793655,-1.5806050552336708,-0.5255825778114659,1.4351580331335096,1.8801393403472475,-1.1624972959078614
-1.4122344020828708,-0.531007399285268,-0.4282839572772541,-0.2352045304894375,0.5493352528594704,1.0687118577815393
0.6945145739192542,0.010449815238652516,-0.7651108338547177,-0.25791670957744584,0.44075397421071183,-0.27886030255126015
-1.4154423640548413,0.5607215526492129,0.9513932342143505,-0.9207959518894631,0.6087022109917948,-1.8172064961429153
-6.577455145357157,1.0822171524851054,-1.0467533565458198,0.38617649721105685,1.732464485655858,-0.06299296170092106
3.3712241817768906,0.38190294670650815,-0.4612901326274208,-1.3094834747625712,1.2311729463669172,-1.1165730291561116
1.9897045139740401,0.001202384635015319,0.0008639509863165307,1.0431923435461812,0.6195041773651749,-1.1070988299413032
2.7472077866699864,-0.984414317103797,0.25322994297331064,0.5746714980343478,0.2906027560678931,-1.7269839838711494
-0.484334133426376,-0.5677945472049611,-0.6373725299669,0.21153242531478966,0.6209862507618908,-2.265697567979008
-3.678410358100976,0.40587539811780504,-1.4712093021468249,-0.8025560457392822,1.2345854765969848,0.056980369097146544
-1.2119644446433933,-2.0912991367633165,-1.2368718109650416,1.6849315219186338,1.6756022271295898,-2.4766615392929343
-0.35219400124964495,-0.7027114904601459,-0.23273603724798653,0.2687712679485659,1.4953664143180851,-0.9639362884209197
2.561160429908598,-1.3061164301949078,-0.1815265722169896,-0.892490257907688,1.1884361782750121,-1.22999656414864
0.7927444861319779,0.1443568492309386,-1.2794620549198323,0.23213709547539935,0.8055897097553453,-1.2995405788123136
-3.790460489024511,-1.5938294116129843,-1.632601388393299,1.442307111969865,1.0796391702585133,-0.5819094189767104
-0.5760812080592825,0.6921402115180783,0.9309799069673724,-1.1680034514147297,1.602020445940664,-0.2125166215938019
-0.39766602835792186,-1.0407002518921664,0.19001399734454827,-0.23042655071236473,1.7658875579835467,-1.4879216775445356
2.410240442792673,-0.9530553683028352,-0.13186134980572978,0.5017936603236763,0.9967927784092985,-1.68302448565817
0.048895842461091465,-1.3094856316081327,-0.20632013316785625,0.10757141122418801,0.8882697005296063,-1.606871878967366
0.1170626452967563,1.740656944395932,0.16028740706122235,-0.11340000324517548,1.6263693489989328,0.10019645514692099
-0.8888459379843874,-0.9399844792896902,-0.8008303154047742,0.10662815694794747,0.1047295851677933,-1.3827788958679714
-1.8123361676725074,0.2107816537464573,-1.1959555143122422,0.23623842471545292,0.6096386971823976,-1.082574848153257
-0.64103807395129,0.9474420127619383,0.9487791881840882,-0.7093793001548299,1.4463211494481367,-1.3226864313033093
-0.980127362321495,-0.910006331326329,-0.23767712810147157,0.020234972891992886,1.7009264877206642,-0.7546962737573435
0.3480166976347919,1.0676375231102637,-0.9806723637213851,0.7090681230418253,0.38169016671814626,-1.4774035629660336
0.6061770170978968,-0.40309321115826313,-0.28513806784182893,0.8499681907869212,0.8389120782829527,-1.046502437468576
-0.013976895193015704,-0.046325369482038026,-0.2714758273856896,0.6870260322290326,0.6684321873233137,-1.4872788325851414
-0.5782386757512481,-1.4875438580497313,-0.605715005751519,0.43702785485867635,0.9341242705428392,-1.8674206226756038
-2.2042505172097293,-1.223081474829367,-0.8780450801637161,0.2687667389664203,1.6817326302420172,-0.986070977019155
2.086498122619591,-0.8798581489300322,-0.08788137540715257,0.6309502881913989,1.4683787994924238,-0.8693036530587119
-0.8627364443761503,-0.6286851366316136,-0.42452432648360505,0.18457507189327665,1.5026859733607971,-0.6946628187161618
-0.425815806097696,-0.23535496907419753,-0.2839266394336748,-0.4201433245676216,1.4425473351988438,-0.7497412113708737
-1.0066908521022389,0.23985702947650733,-0.09957156531192823,0.13734656002767087,1.2373701514597877,-1.1764554073755369
-1.9302058434955103,-0.8223472016935618,-0.17698424328860074,0.725262113892978,1.196995915108929,-0.6147930005514305
1.3532019092786118,1.41560158213547,0.9865069804982859,-1.106683844044552,0.9078776168924106,-1.1538291714483273
0.35597248880562293,-0.5419095027246357,-0.04498379637969366,0.1093512850965499,0.9767657908728601,-1.257256081328401
1.4915371571221254,-0.03002365077131075,0.08854724351010684,0.6461278932821096,0.8131768560944269,-0.9317375515492653
