Gx,Gy,Gz,Ax,Ay,Az
-13.712625000000003,-5.341791,-4.499776000000001,16.578000000000003,-483.648,-39.176
0.9660010496427622,-0.337816101773886,0.30847352807452694,1.1686955153339942,-0.34013694781304404,1.2018106335453673
3.786722682334823,-5.396564547725401,2.414757581076468,1.1217657488729866,-0.29915878711309174,1.670943215287168
7.974867246358129,-1.3003666819880833,3.2172132233285646,1.0680707917878816,-0.6988156056662127,2.0424503490913786
5.479654231271982,-0.9874437659019473,2.2420379508418886,-0.5411320606427088,-0.6624467163826638,1.8596557939928018
-8.556276960038188,11.385564999062467,-20.444155631356676,1.1575044280990423,0.6246542503931374,7.717611577232946
-0.8918408243743499,-1.4499967640097138,-0.4393737651460508,0.4477177761051066,-0.5262355968579142,6.616455021336413
5.74466703586077,0.42433780220399825,-1.048411054581072,0.8471617744882439,-2.1409672543740665,8.670316665976062
-1.0250377714182453,3.605530286885058,-0.0115950272155326,0.5172767392496966,0.35758187468039215,9.710360552173896
3.4943995921742688,14.766913512436714,0.7186322603890121,-0.22554192070950368,8.261350990620821,16.994916406137456
-7.127755964949377,-14.174426071218694,-9.156704236221112,1.8113175764801417,-9.943033364080069,-23.842361669941816
-6.193992700860055,3.9045917258284604,-4.854616447105995,1.2359518607715023,1.746999515578258,-5.616433574014581
2.548253920994017,5.3300496012834895,-5.208026631090194,2.5947429676194145,2.7251813892933536,-1.7368615554535436
1.4797562355192975,6.986020861001993,-10.727542879427645,3.3882410132215237,-1.595352360915547,-1.4988200178296653
1.1743514492386824,13.483637677003822,-14.527192116822345,9.104005387026994,-0.5652334268186382,-0.20742551190596947
-11.075924738360566,-15.52634139835009,9.850996870510471,-12.238987386877643,-0.8196008650166181,-2.9569992486312247
-2.0785664502788292,1.6083501346580418,8.32071536181758,-2.5020369122961066,0.81276406786564,-1.2447209526972784
2.6926141730374655,0.44847868588590933,4.5008165853766045,-0.9418092844705294,-0.5723032820235227,0.8173361669724003
2.0416589122973616,-1.3778580416034099,2.16215509958515,-1.9079823862248668,-0.9799191376353873,4.648377220972307
-5.248313949457961,1.4823565516786454,2.1749939304804053,-0.179362503817241,-4.8349320731232694,16.064522630806007
3.8808827839905544,-7.81065419376222,0.934700803085106,-1.0867501032860334,2.551037564274301,-7.813070095671722
1.8445942052593307,-0.3587498753556144,1.8763937994816688,-1.9151810568240266,4.077921928966644,-1.3657094648790835
2.4870831776932274,-8.258769833407046,0.48399574400889755,-1.2400943997602396,1.4687221476894456,0.24564845592228868
0.7847966982025676,-7.789405988062837,-2.2989964076960305,-2.3301456062259414,1.7060543652215292,0.46513603637117606
-17.557098654587197,-6.716563722990382,-14.44806161492156,-1.2536526951654998,0.6329567726666068,3.395765484356083
4.810884620750812,-1.250401904959822,3.4300206173144545,-1.5868234815342082,2.3596152888122166,1.0071179407610422
-0.09447370706593278,-0.13769616419536534,3.0620612276316446,3.2523731994040674,0.07013302335777483,-0.7365339205915501
0.5317333674363247,-0.4373421033057483,2.1559015999595963,4.1369063079981006,-2.6931455330821987,-0.05187141380827387
-1.5144158301856931,7.013226064364793,1.7968683613029717,4.239707819865782,-4.182481592380311,-2.5673897327400725
0.24697797490455464,-7.675820627124768,8.968228360472459,1.0246431262605427,-7.604025937765054,3.2209737146671946
0.6964245991945928,0.26414004083898734,-2.8458308827441643,4.205665898736959,-10.288673166755206,-1.4332102666836941
1.918333154011226,-0.6717510372814173,3.546525800186191,5.785719374318591,-3.0315128415407298,-0.7935610834815848
-1.6232999478356218,2.710885664349237,-0.8143356137808972,-0.21936923546435627,1.0654658371347052,-0.031144115308392895
0.1286240481902965,1.7769986282942516,5.9393773291182175,4.700917560915141,2.5931146389110578,-0.6590840008448802
-24.592988138883506,7.471837779956813,-15.319594879446438,-14.066802589887487,5.838503268518699,-2.556021961296249
-4.301787869734163,6.107406297157887,-0.8886548210476363,-2.1423664025462323,2.0079618267800132,-0.45274680996414984
-4.584740271740926,2.6193150530082683,2.3922434982249907,-0.7163631618973236,5.413906130459639,0.4017853424400154
-3.699321117993837,-0.8700174346078107,-1.3994982268797584,-3.8990072492073966,-0.09033730653462158,0.4300403758331115
-4.932536884738315,5.743192715046708,1.2135422839525658,-2.622804513181283,11.13985211449035,-1.9097419284726471
17.6296934631539,-6.72873243533766,-6.497427123100729,3.5831758360220123,-26.293486556112754,-3.0257413459573756
-1.4396024460949877,-0.48088462544197613,-3.7473469904111196,-4.020369934426462,-1.2378677271346579,-2.7099034404713898
-1.5140362900455475,-1.1371328439526098,-4.666758928502302,-4.115663924042816,2.039473437699812,-2.10652626688636
-1.5916967637658492,-1.1844325170313164,-5.222519680890495,-2.9061279119117938,-5.734905344266538,-0.6037272404571921
12.780190659598869,-11.144908762315188,-3.3140767532429827,-0.4727690737105652,-11.1622024010444,0.38125207627985347
-12.721369189216967,9.861274420542351,4.1215069382476965,0.022127371118299433,9.335674730184476,0.9782205999230543
5.988371833573812,1.102229047761654,1.5755333158030496,6.536743366212272,-2.8297784835801125,-1.2294331342387022
10.048462328105334,-4.674132370466035,2.087781561316594,4.508610617188412,-10.856454249468555,1.185923199907861
3.6935315761594545,-4.660006857337994,-0.30392680905704283,1.897944109732816,-9.782253384949545,-1.2203263400202897
-1.3498095367238485,-5.434454716636381,3.708027741077433,1.9904798134699013,-9.384982659484507,1.3313370210561657
2.5057566574462005,2.6346086204869055,-7.22039685893751,-0.45496384058218875,2.141306248307165,-2.992736711819031
1.2752343730410818,4.9779618138095465,2.7575003016867177,2.3760339813821125,3.8022375357579015,-0.8487634687883684
-4.045743923650056,5.838114462443815,2.102004877929701,-0.20244070919005663,7.818285551332195,-1.8365171907462061
-4.016911844314049,9.715460937636474,2.525816639308231,0.4184807819592791,2.230798049815444,-2.15965463998727
-3.2209293283902034,4.242073669872196,-9.447544461510704,-6.533727441142932,0.5451923008681079,-4.121262564513642
-1.5926625242971337,1.3385809522737722,5.78890755771477,1.2620710766919736,-2.6664679398194133,2.5014254377852208
-0.4823258340095542,0.554100063462129,2.551734816253511,2.128828560879853,4.981484858608399,-0.740305268344907
5.332079183509854,-2.1413243452129853,-0.3423953420935473,-1.4013444892900808,-1.3976531501212706,0.08373596735361644
3.3321249333938283,4.684311138313947,-2.416729904450147,-0.492144928227112,8.437239421908961,-3.2584921792083046
6.1248107101416185,-12.981459017845207,-6.047521587065297,-0.8075149158137106,-17.593845618027306,4.091920195982503
-1.1517187021686786,5.233608020553428,-2.3823581085519687,-2.088431922317512,10.838854598625156,-3.9103183338032395
3.867606494147428,0.2145926978396162,-1.085788713408944,0.2952964645562817,4.214578136148409,-0.18270771952582474
0.3497078417208186,-1.1023139297451925,-0.17591191640974796,0.5883810521300579,-1.7869763069513944,0.2175238480742126
2.584723500855241,-2.142022756567214,3.3907362586267,3.7907712560307796,-3.2959190656559705,2.967918010918874
-8.574679055542175,10.01597583820628,-1.192494588995579,-1.8335852196521225,4.508195885919426,-5.340987267484593
1.7861004600505732,-1.7812723809477151,1.2915260713489842,2.067440942677046,-1.7777592343520299,3.934543745305371
0.9917607208385364,-3.9629991763440593,0.6493017749058374,2.6507133066589477,-2.4607889710073927,3.4116352248374717
-0.12135111338606641,-3.5604014429888586,-0.5826913666106238,-1.9067344788274665,-3.3260711443383713,1.0377706558975537
-5.236245287943813,3.7600722880599617,2.665332293685612,0.31422350268441,7.044860433734312,-3.7775038134576198
6.373229686482189,-3.4479720154448046,-4.053074806761201,0.13173491696229345,0.47032887700467585,2.3517551708093998
-2.746060067355923,6.443598153724615,1.6585317175855672,1.029598060480121,4.142325672632294,-3.123173089293106
0.07322563556228079,3.3900972927580515,1.3196139078141726,-0.9988279320761022,3.841732378571459,-3.7803230100433165
-0.0735158618056242,0.23022557434708646,-1.7045650498608929,-1.9766355105573115,-0.7123255173599814,-0.6461571885088798
5.0794308155440415,-3.9221571665029833,-0.04883958326259563,-0.5341801719608057,-2.3093618302974623,0.8811232902186129
-5.688845345116197,2.440305750038417,1.081798058169144,0.8622989562919456,1.0079161256801785,-0.5218066920080877
1.6809391302222585,0.8059679649004607,0.8381952814770767,2.0871778177426417,1.394354132930084,0.14583816148627535
2.160105352536412,-2.1430148616947733,1.343509599096703,1.9107460128002387,-2.4980819521412596,2.2428602214002478
1.803422334298557,-2.5138429408755507,-2.5470111264931115,0.06825725117217893,-2.3987005848228966,0.2503914532224818
-5.086763853602,-2.6381205469477003,-0.9026775412067,-0.10202373597631742,-1.1108252948005441,0.5640125258285256
4.2468531438583685,1.1367222391655578,-0.6877348020473344,1.5266009278316004,-0.5563546530449587,-1.1771590874213886
-1.036851970551913,1.9555549507244114,1.2053035323993204,2.06533053225444,1.8333460988538324,0.4290467179554054
0.7536745000000008,0.24766750000000037,1.8322545000000012,-0.532,1.8659999999999983,0.4
-1.2505231343591903,-0.6678512195911148,-1.2513739266640989,0.3132908139547741,0.6110560377100842,0.5393240742813745
3.0614542011370878,-1.1149854566330024,-1.1968685284756146,-2.535825051236859,0.5368806072501084,-0.774066226032087
0.4471037607803772,0.9929729127752669,-0.14809821682504776,1.5137726497398936,0.7399009630037388,1.5993168788340721
-0.35909848767703867,0.26493894164377996,0.535746815208284,0.7168742804367393,2.627092754655035,-0.03149125083971949
1.109330198812398,0.060720917824312215,0.8420137085946787,-0.004997109503566133,0.022247956203083286,-0.578561216409075
2.5362679231416263,1.0560018314839228,0.13680836966097454,0.16677409693901246,1.423608384341387,-1.5645069981819955
-1.4142556495814087,-1.8449211007450952,-1.7930609555404913,-0.013219386008789802,-1.201554340793399,-0.37713706266169744
2.698265826236171,0.7062692791715144,-0.2534674811231732,-0.4082724084760053,1.0689314056651926,-1.5775044333004051
0.44816361585320985,-0.3403788116206186,0.6435429708046514,0.5684827942163232,0.21429363369908394,0.5402585706822247
-0.9691607203699366,0.19473941495762925,0.8223469016083852,-0.6604284312008554,-0.06103149223499027,0.005448791150943322
-2.9605994931182567,0.9676883082362426,0.4499640013788051,2.08934911160786,0.04891021738831597,0.6857117539629232
-0.7092493349196265,-0.5912773648067917,-1.7252183154825915,-0.8450980259611163,1.4724521377111057,-1.2125223459792986
-0.24979537672939678,2.226354670225261,0.2504482439797535,2.0139567850446096,-1.3074402455480458,0.36173324121193684
-2.1207911479143453,-0.584312460596333,0.0764748775840467,1.4212437165716776,0.900883947450706,0.8546376400397425
-0.46515890579762265,0.9592600925655698,-0.023956492310583277,-0.2233624695917335,-0.8614234278879942,-1.0754925998697284
-1.1682692903272462,-0.8159948781997568,0.2622516238917194,0.012530969665015768,3.3819689437998477,0.9483068710637212
0.06903045229213867,0.13753841337556238,-0.48235932683663807,0.7851408752396715,0.0842387822245988,0.288053577486326
0.16134017471376394,-0.24244964381302753,-0.5499128380792687,-0.07989279382255832,3.091556688198963,-0.22704665680719244
0.46850771636617344,-1.5271152655985998,0.18424456972054684,-0.9423101001876797,2.0630940854823963,0.3595985163142901
2.02056318130494,-0.2943550122969705,-0.7691033224649977,-0.67905038093494,-0.013943192725430875,-0.9962180694745698
0.6727282469090996,0.20590870299099673,0.7494192857442208,0.779758734913163,-0.8827672618593472,1.1535558026378236
-1.7712452735656798,-0.0872389478641824,-0.7563354314422892,-0.6438866576029326,2.940417007766139,0.1129988630811258
-0.5877386213544159,-0.8767176609162867,0.44860234023717693,0.7798364499330042,1.2067784664973789,0.9111615849902245
-0.31835401198022173,0.10451171313700203,0.09842661072775706,1.1407510633460305,-0.3312868286285422,1.107708380079022
1.3144554789562053,0.30496840467903685,-1.3184572494815163,-0.04427879573443354,-1.2631940046859373,-0.5895581023813254
-2.873653250470049,1.3942887753527455,0.4296636041388753,0.308126993012905,0.951779280949531,-0.7058641010941202
0.9263675339671011,-0.43371173175404243,-0.7926686808442431,0.5849635732155825,-0.017937662166995112,1.459106636501794
-2.1774810909939784,0.8597232074149591,-0.130809928907199,0.6267273445843725,0.8733761761439442,0.9127375080439737
-1.7147990457177626,-0.08563272384248566,0.12147960274534556,-0.04405644698604971,1.9792045169431547,-0.36894854586523673
0.41352840269320645,-0.1776898806526147,-0.62653717669592,-0.2011301210869707,1.4933254355132153,-0.5545942256994265
2.060034381884697,0.01777635034072028,-0.08997473514469312,0.37579822131685364,-0.3530903808060335,0.27763854624497764
-0.08352554417563068,0.3680081952184806,-0.45681537887123147,0.19692833215636008,1.7127866189581906,0.28677326534632036
-1.116186156307249,-0.5092087110314588,0.4074811043649589,0.1378559562250623,2.3034861371581927,0.4108421716166647
-1.7419816129738268,-0.9990774807274908,0.553154347070417,0.348934659739893,0.16041632093605723,0.4933463859253675
0.8780489483151728,-1.3130060994985393,-0.45618103072588245,-0.37338524505971626,1.3166963706832484,0.3459006524292941
-0.8185361345879985,-0.45111298698921565,-0.46914437308942647,-0.20035752130107104,0.3620145128857355,-0.41530989880931646
0.4960803822003471,-1.0814415725712752,-0.7930381819793959,-0.16597914104014322,0.29003957799329116,0.02498827850754637
-0.2504444554429377,-0.6968781829898827,0.16535186220384313,0.09385043218456857,-0.33429537561534217,1.1951807121339861
-0.4492817301031624,0.6473671189398762,0.2782765512938363,-0.030664959631306665,0.0594346753415696,-0.1681560865815923
