Gx,Gy,Gz,Ax,Ay,Az
-1.753497999999996,4.380416000000003,-7.1220399999999975,-29.445999999999998,-523.188,55.034
0.04365801310076243,19.456919197328226,5.642790017513736,2.566557847174112,-2.2010028946050806,-8.880433731099808
8.443364040092675,19.868385956003422,7.259345036092235,-0.8239505734709104,-0.6098652019297498,-2.238231247882285
-4.461552312477614,4.349789676524277,11.204528635361072,5.123190378890449,-2.1323030149598856,3.149099202142076
12.479347753154734,18.136524343351407,-4.747681865478213,5.1437814597578875,-4.837701679218164,-2.9254767533212602
35.56961284085617,41.036339107222844,15.470092827440297,12.597593533554157,-5.993337071572823,-2.313661968191127
-26.074537011526992,26.997171242100247,-36.494799877731566,-12.929138755827312,4.314135989745549,1.3521668645915634
5.471171296404064,-22.574049903211808,-8.092597703683037,-7.147130303064624,-0.8852863838205276,1.227289876124527
-6.218623230041743,-4.551159994524441,1.3617204071806355,0.04319257300582205,-0.07771110146043281,-4.235580498402057
0.7238769809085603,-7.132031648361584,-11.27290335804104,-5.12821726521815,0.5688824486078463,1.9870977495868487
-6.611446431603726,10.674595575551635,-4.301123840967804,-8.403894519366649,0.41587000667795504,-12.165254394442247
37.95399231880347,-5.6715088420853945,-29.459005099448618,5.499583930178371,79.37483877584191,-3.086030475342728
17.794863810302697,11.849749288915623,-16.270965590589896,-3.2412936886152863,-2.4966657251981053,-10.48551653079038
-20.199383369413123,-15.031961980374897,-9.49151664842162,-1.6124210406689359,1.7558278788901984,-1.1905393174350856
10.7394283941407,-11.412276907723639,-14.49905482842825,-1.9691222488651414,-6.920253938491314,-3.264446656052157
-0.3012447121923061,7.146423774691037,-15.197482987421958,-1.8851742063925103,-3.011288274224962,0.06544568647191124
-41.3093904360184,31.326435340519364,-25.121114756764285,-13.858896483146511,17.866405997328368,-1.146789690437599
34.9346064983881,-4.588363207544571,1.7236419903972182,10.130197017043807,-8.975813747679046,0.567693246490339
0.2289616738066229,12.206179563947464,11.260893502532559,4.336185185742794,-16.23460556873809,2.5805553108375863
0.13755149443819745,-17.875082448054428,5.328545464282269,0.6246936700536447,9.052907444104985,-0.8383233211001841
28.678825069633156,-14.695359988936222,3.834339052821659,11.985006129331303,-13.284161346907002,9.420189970984344
-3.409016998261002,-4.209739352316234,-11.2977907089006,4.920216274294742,3.1976787746999835,15.14618937605006
28.503009625801962,5.490359219274697,2.9551813996324876,1.3533874795625735,12.855647792350872,-5.885887513088731
-17.927882801470492,-15.59059034650023,12.619285674846711,-5.69469545361579,1.037146147771093,11.34072336275629
19.028046263525816,-37.76578287079572,-8.152401563955603,-3.1009411525440314,-12.639346894900749,-1.1268734802486489
-8.704990314176587,22.80363058691632,14.324930421589455,6.129723816450977,1.6273747866971475,-3.6230700846470634
4.824971413660383,1.4075588681267606,-12.288947520320121,12.448345031930938,2.638981612967821,-1.4846723620742872
-2.7150966495530064,-30.124099175909315,-12.255868889364084,1.0214947053875028,-1.1929276056362672,-1.4370322784915555
-8.85687578723045,32.73883213298603,12.320712167544938,-10.73709537075521,-7.998198933559135,-3.5855561186469
6.033127754451886,-22.78667668017244,12.339836573659442,-22.969838168143923,0.7715200710115844,-1.432963183255785
-17.398544851903857,2.8024155152517736,4.603625330955169,-9.799162265120781,-0.7442270367512719,-0.3990765652409829
-5.8292125482766,4.16956846630367,0.7431229466877622,-3.6960829251775995,3.8107072176781855,-7.701868653556039
-11.414567972394698,0.474630217073799,8.438172546163827,-6.021648052300037,0.6475994786695329,-9.411865239008689
-19.638310693174724,-6.156720083652262,3.266243100757034,4.753348955760543,15.720375449917402,7.45166119039612
-10.716701216007952,1.8369995914958623,3.4909933056517657,-6.65836466981975,-4.702411976179875,-7.158268067699938
-3.4566545667845907,17.15866152121772,-5.532189392949486,9.181372448674828,-5.122915557623738,-0.003363944105185812
16.13900574570718,-12.312675967367769,-0.2823871517207666,-10.87793907934286,-8.36884831665823,2.11688859135998
-13.302088601508085,5.250328013560001,1.7063265393996723,6.431673305705988,6.845936268941964,-2.0082996237599304
-3.120293033930947,5.009306867289089,-0.8027638492911646,12.99305732760385,-4.656469544766056,-1.6293073473510002
6.485926571262604,1.612623198580688,-3.103237441201223,3.883818714913464,2.0334273427936167,4.78587957243351
22.411755319235667,-4.472307229568341,-6.918321643407718,8.756438162012559,2.0986710166575433,5.3871786186855495
4.999729966987596,-6.334976533618532,1.4098702082418897,2.8161891219653334,5.091719943479431,1.994365106992564
-14.035804359066269,6.087735482603618,1.995504920830911,1.452898950487431,6.250813294830817,0.9519386181307582
42.69924226791667,-15.55512064167216,-8.629064873046005,-2.480033353465041,-33.1321473067882,11.948984498149086
-5.706905619671016,13.775613491363776,-5.522534615923933,2.248617190902158,3.4894689358891977,-5.503015384526668
12.698156024165215,-6.658203647664934,-0.6239730297651063,4.078635634324478,-13.822514746317768,9.353635548252747
-8.821249520145178,-7.294544840006327,12.869474887457056,-8.338961043351556,10.234045486562987,1.0991877315347072
0.9564927574578732,2.2211629019215664,0.9626804735223613,6.333256935598576,1.7720596675976927,-0.9326340830357718
13.755483163924207,-7.519783545228613,3.8133251092169327,-5.162593171198686,-3.424824381039712,4.831221387145418
-3.7022617667482773,-7.574365475558494,-0.014917946277071326,-10.458044409700692,-5.4692999807522344,3.033382227374392
-0.3054193557313861,0.31998383208914993,3.89300485657481,1.688247552894103,9.42597645687108,-1.8425946635097654
-24.402913511330564,13.627219774743239,3.3553149692187927,5.666620441516172,21.382074371779694,-8.751786215324534
-1.6952035790891868,-3.5267582198146687,-0.9153066292820693,-0.29996928567507997,-10.370013583726958,5.1517254225125315
3.6684549501658337,-8.07192158050474,-1.9964382085032704,-7.322075338909437,-0.12860632312324416,-0.04850543805470009
-18.34752325689752,7.855173251726654,3.0142786995316895,5.020453930348868,17.27967130191805,-13.96460706375456
-0.6119238121800592,-7.517737198843221,3.6225268495760643,-2.7529759645682943,-9.210079062162128,10.260765642877663
-9.171440799790252,3.684716218406684,-4.2212814225971655,-0.6159238122421006,9.187407212653044,-9.524465848590246
11.683031800254176,-2.4635187924714534,-3.9178882798066006,1.431141248188414,-5.737444871980395,-1.0032881964978766
-1.2322918974414068,-1.4869009981059538,-0.15641868887766958,-1.9040375439682036,5.7432562100832785,4.215785591524518
-4.720733736573134,-0.6173105374154981,-3.0880423679838755,5.437372704491795,-5.432274295129907,0.7510227198612868
4.486640347869258,1.2641496503408973,1.0708113209429206,4.468743305674859,1.509056943582823,-5.797562484881335
-4.923078282643726,1.8892546231363847,-2.499362644488699,0.906969047420907,0.6595642148617208,1.9665474023158618
10.789686191232818,-9.424158553674683,-0.9043048871868933,-4.788588244856718,-8.548591497215405,6.920136171104107
-3.5333659187322635,3.014208408162728,0.028127480964148327,2.7458600236457595,2.844399085478833,-7.44470464220055
-2.805983916509407,0.9458022689221185,0.4331279906169192,4.574117838208718,-6.704099904181939,3.5109353084164363
6.633257326734459,-4.214122848244913,0.15301057684856234,-3.3935575197453267,-2.4866847962827445,9.32878857249217
1.087244904682967,1.1893829365008521,1.8311083068247984,-0.48147130063733257,3.3682621208543706,-9.523973653892703
10.425975475694834,-2.0280278066783537,0.6868498259783247,0.39482939886188995,-3.5256308199670454,3.4988496342479802
-14.958058192940703,0.04120219265795655,-3.4044675535524656,4.09870087935142,0.7586614157303389,2.883119390369071
1.987883570704406,-1.5881611915491203,1.443387614874998,-0.13360858822287258,-2.63994785672528,-5.476809328337901
2.6064057832417387,1.5391111598970701,0.5882134424146308,-3.409279294971071,4.00969609985271,-2.093848294619418
-5.7377414796372115,-1.246048761659312,-2.522654458851883,0.5074609797613494,0.4964549305420035,3.810046366136671
4.353136803088035,-1.580729625860825,2.4791899378384916,-0.08682008787002438,-0.4732857662152383,-4.203728206973738
-8.468840838773447,4.414710594964928,0.22036626650990276,4.9536400038777995,0.9770776065045728,-5.3829681879787294
4.439249917149711,-2.1270340816218254,2.427470659211472,-3.4060762740628876,1.7733186381679236,4.525293004784845
-1.3660053353345445,-1.78496424133778,-1.2802842343934935,-2.3853986469233925,7.409762665409545,-4.4431123979797995
-5.286240994890051,0.5558453693627952,-0.9690637883795614,-0.03426836584164916,3.249547894832287,-4.570040839428184
1.6799506494608922,-1.330284208901576,-1.6863405835272034,2.563866558027471,-1.2430768154913259,5.267479356244735
-7.9317900241416055,-1.123004035101046,-1.5827302484743018,0.5570957914991437,2.372236676487335,-1.301836456430035
8.988974271159718,0.8357225378250377,2.07974119897853,-2.9649941654154386,1.0458986518471836,-2.7094197382965777
-1.6192496959994611,-0.8154535946312034,1.0225944895294259,2.0979403173268683,0.6873065009157351,3.5025658187307886
-0.10284760628531142,-1.0945635841625214,-1.4986085997119585,2.3001424699903517,-2.3512385476352633,1.2863273407942837
-1.3809781371957177,-0.9147059391241178,1.288888678923796,-1.215257617312296,-2.385474685545539,-0.24369072499569777
-2.1833748181557953,-1.8467005616916126,-2.5081702068061293,0.24552458074622352,-1.7187633995998393,2.3352232200542637
5.342148259482197,-1.8514720654173407,-0.8936159318388355,-2.120449834751952,1.2095660556639574,0.6524326469512501
-9.200124098334246,-2.040548335329383,-1.355735040018861,3.181869064329958,-0.8121789015265597,-1.476159569014089
-1.2255932822089686,1.2016048420871135,-1.0371447546586252,1.532925496163478,-1.94402993975863,0.5281876540628273
-0.8231580773047461,-1.306438205094143,1.9034678989715825,1.5813223336785354,-0.5440811518777113,2.6477483228917773
-4.538340445985925,0.703880610105742,-0.014738469757637818,-0.528921713837527,1.3552534701394847,-3.3030111766320878
0.7489264507517936,0.40658464980347425,1.5109808016823565,-0.35157496088394885,-1.0333860814880549,0.08135485801701314
-4.838031575344616,0.6155508663572486,-0.7814798280155113,1.95517721952655,0.11523890719087349,-0.8928176664392675
1.746927188931622,0.1735021470433336,-0.6965087204570405,-2.73389834192255,-0.9241550866552326,-1.174611789842487
0.30356695830275493,-1.419087014514678,1.2350358084927664,-1.7152941583420702,-0.19844165332884195,-1.0001101764503422
1.798401672294311,0.7860176435095347,-1.5415248726874855,1.9902321343370848,3.4236980660753886,-1.6821245158282332
5.340298250180199,-1.097013904774859,2.409030004240893,-1.3284470766906102,-1.0264757161042886,1.8267531943326143
-3.4716084634035234,-0.07407900976613901,-0.9959245593561553,0.962935855925336,-1.3744784894143462,2.0438216527884543
8.867438596070585,-0.06666702693043813,-0.4288260489276471,-1.4759635154555026,0.5838437514141843,-0.7105427524998511
-0.9698725436206973,-1.4904808794923534,0.6713417682848073,-0.38773547622903054,1.0478779247345478,0.7891629943394093
1.9621244287994923,-1.891574503026596,-1.5692499107276832,-2.0762026335618438,-3.328841467003954,0.6097300122633907
5.126622963906569,-1.2937286465121962,-0.12919521700516884,0.06661906381076678,-0.8167344340434698,1.0970487727057692
1.8044286218891332,1.3116414590561822,-0.4775560474527699,0.7508852703791831,-0.0057109517692093825,-0.06383870034300987
4.701422264615346,-2.928491763544512,-0.40443760215298374,-1.273903037149209,-0.8738718126423048,2.5984294018174725
-3.2950110406507203,-0.8382740625401243,0.1581828314977369,1.1999058666162703,0.9370472562101122,-0.33837000138715695
-1.938602371720014,0.18959499932134155,-0.4037829974904612,0.6305764608562252,0.6968005474151322,-0.5510539028858406
-3.094766574211233,-0.9524119898915853,0.5173869589416143,-1.2328201457696983,-1.7099168733937025,1.2574155885612226
-5.888221108546579,0.08471894742810601,-1.0267051853929428,1.245690873979358,2.220856042782144,-3.89384252094875
1.2770930893202252,0.7723992040904402,1.4332763021453714,0.5691719946430451,1.6107658586989566,-3.2023407048183445
-8.694962079937966,-1.5806644812982027,1.2495048766523205,1.0621710016978072,-0.0778904995624417,-1.0484152366088513
-1.9689173320755327,-1.9120272019977922,-0.5997397246623425,0.1073446253960927,-0.8629390982369434,0.5019031183844834
-0.9405086060442781,2.2200576357472195,0.27030164557996156,1.05499977272822,3.181826832957578,-2.2452304517839963
-4.912827975080713,-0.7567934497893107,-0.13693942157414363,0.24415883046294862,0.48999517122570313,0.9389088976807576
-3.053689668418012,-2.259914264659807,0.13276329755144903,1.0245073015240411,0.3066147237762333,-0.766352833475524
-5.822514483601285,1.5809548560779312,0.7405904609973782,0.7555693144706789,0.6050906456673315,-2.8659926537151907
3.9525617099271497,-0.16358929849299567,-0.27920079611911625,-0.3384391251545852,-1.1045371356936364,0.8047042310823499
1.910696158418637,-1.4574897986910422,-0.744952334246295,-0.26984489909905535,-0.5948598372358431,1.5485006168265667
3.0045222149808586,-1.1773534740136056,0.12393806855079591,0.6374967632566629,0.16242955967632247,-1.1684817866370074
1.269978362981436,-0.9841736292686887,-0.37647153985462034,-0.7692628964962331,-1.1513713178513485,2.5384524134354107
-0.5811299881838867,-2.0619690839281075,-0.45065405928359936,-0.6189723563712914,-1.3296740879818603,2.2605971845710897
7.620742358140848,0.46704941406299294,-0.2761428165237536,-1.3284750212638028,-1.786667412351001,1.9321753821668017
0.21545448786653754,0.8005791718547222,-0.8059984961641788,0.10031577459547414,0.5720045868673342,-1.1474139429177432
1.1460450991062907,-2.7262966074016965,-0.4155972978098964,0.6078738931139357,-2.041231924528015,1.7838305714733735
1.306213052491748,0.08226288057266717,0.5366784772854061,-0.36972916653274435,0.8058394406541949,-2.129542905886785
0.5609921927948734,0.17254197900972718,0.0827862680880459,-0.47677091108979575,-1.0036664416875496,1.4648694284709847
3.7900170221696157,-1.5642307826104567,0.07752467765703436,0.3492500937026643,1.1081713715396566,0.3713318274242874
-3.6693898438014174,-0.8811105259401835,-0.470404904155459,0.23135736779567243,1.621387919011314,-1.066928443274459
-1.9741861508528056,0.6494473268090205,0.22758061620843237,0.15094287461100164,0.9802608441036784,-1.4094875733314196
-3.495564295007107,-0.15562329974433817,-0.558352006151062,0.09435075494341505,-0.42302560156850977,0.3856355086338846
0.07698207893331112,0.04696086453842452,0.5819422561216742,-0.03652062251533174,0.031441405499950614,-1.2145869363890114
0.2995435506382227,-0.11261762842097964,0.49550914019694425,1.2957079969343925,2.043605831594768,-2.1323066977999354
