Gx,Gy,Gz,Ax,Ay,Az
-20.491860000000003,9.515089,-11.443247,-8.54,-651.8599999999999,-0.26399999999999957
-6.791739347320363,9.013128751742098,-4.263940574550345,1.2461443483811085,-1.1593233772892104,-1.124783172103828
1.002677544877968,5.334299655967736,-2.4119184296430207,0.13804995180113283,-0.8591660047682916,0.7057294446916829
10.584485263924297,-1.8122935062249612,4.225915682698836,1.2280678104205651,-1.568515928046024,-1.7515293895212634
0.40811514519303954,10.610353521877204,2.1697642920956306,0.06304205080320885,-1.4874986941503043,-0.002157583621275938
-2.695257007266761,-8.230463863544156,11.547668561885118,0.22288215247665416,-2.944342229890383,0.48358495069472407
-10.277118834134326,-24.61455791600943,24.47928956581166,0.41916625681990527,-5.274570803880694,-0.8789304551178232
24.98085349625921,42.49597334364382,-41.890779510382444,-2.7003877696163885,2.8315976244005716,0.001839493226197475
4.658331249832824,3.2563581698768704,-6.018725117539847,-1.2155454666037677,-2.4402506006478664,-0.6099443007404864
5.854926044286881,0.1986841663538561,0.12854577513725784,-2.103642056502103,-2.6974400186476686,-1.12808762594522
-5.4750200759972785,-6.062215758394171,-1.7382993428444693,0.4423089675715183,-5.883584472459205,-3.8446621333799094
5.619366319248428,-4.323213189928614,4.364850224265818,1.1474286852113293,-1.261354756198267,-8.012909990240884
4.643952106169486,-1.150346765347742,2.1480308075305476,-1.9179807781395073,10.398074924916891,-8.53855414650771
27.556064005111384,-6.080555219555707,-9.383133902476288,3.804040353968894,68.9724894790771,-9.70397769831521
-16.030007227685815,-6.150066570177319,1.2286401306309134,-0.8055732095894574,-25.6084335050702,-2.1004933441761593
-1.0980389671004787,-1.1300903128108497,-6.427993751990426,-1.6242534984937018,0.7473902559418306,1.0908007166426534
-2.1221178062134483,-6.8707239798430475,-7.111984018000125,-6.1139784068467495,-3.9558516795649465,2.583055859113714
-4.3869733311484795,8.933896722789108,-15.565059698344655,-1.9861661040944993,3.322393690489217,0.11312241992555483
-1.1382957590887455,1.6111730990691813,-18.222128496313566,-3.515013497101699,2.733141708509755,-0.0988132832567089
1.5745172410138606,5.772812585840468,-14.436491967650998,0.10726373193587802,0.18950044737722885,-0.2631138532712196
-15.861373018948578,-45.469753971155455,58.32312757662247,-1.8029467097114402,2.8395026505099223,4.28670546083769
4.750956166762078,-9.590354617305563,3.8651740761918956,2.2877031719559087,0.9858703801265596,0.651587146032685
3.9802172981744857,-11.860867248450496,3.550557903183052,0.9300357695493124,3.4223218623119562,0.4951024249188292
3.729979442788058,-6.884347086960243,-2.7183966197667884,-3.3039208840281424,4.286996695453786,1.7685206432904392
-0.3589939893806511,-10.491449225851847,5.159583278801497,-3.7022272365854754,2.416966621247403,4.572928874546404
-5.28549147685124,-12.967477344927852,1.892141099203882,-3.4496584087552624,3.087404867225845,6.804234201518966
-8.458883494897735,-1.2013031260228129,4.278242087417832,-4.98745561387788,-5.446098361867045,6.695586542755438
11.063651948954462,-11.673528537047687,-4.790800032901368,2.140444593907063,1.7016977062061538,-3.205127031342701
-4.3921539904003115,2.343095731776596,4.140219897942419,-2.730180885699119,2.7407487952694325,-2.908075889133366
-4.73713286838657,-7.498374577172132,5.1332914766165745,-0.5842801796660047,1.5573677906626935,-3.663357320160908
-3.671867305194969,-0.4126478762031575,4.99166276774186,-3.412806909975229,2.955265643349402,1.5907538612049463
5.967704426376997,10.537272038590189,0.1295994629191044,4.004275236360351,2.4614579996650883,1.5903572712599972
2.543688205451037,8.580044875442173,-5.487135767350209,3.9759941693345286,-1.131257526209143,-1.1765204542566166
11.676066977185947,-12.400085271166125,-5.547673381324295,0.5700348898559326,-5.684761992953798,-1.6050804845668925
-0.7459772524824555,29.155451919540397,-12.965954720588254,7.833353894083637,2.0424845729438497,1.853593326399011
1.30545323819632,2.8569250279899645,2.923593695802117,-1.898617941510713,-3.6561348734948638,1.0715910467962109
-4.8829925696622185,6.245402511468935,1.9293836247938678,-2.0770645789507713,-5.764641320259867,-2.7882308411571715
9.10446073079583,13.379613662374794,1.8979749103489763,13.301282305139962,-9.455165552769124,-4.586759313414877
2.3675343185653084,0.3101395242923174,-1.771665398119735,2.385537148731404,-1.6794303242130177,-1.320444217487701
1.443025312366501,1.3996907292319083,-2.2186417624679864,-0.3112347531334697,7.550641604312901,0.5032174908639011
-5.951106808880556,21.11569698060802,7.102528695986473,16.91057994598032,-10.768803827990164,2.2907385135607843
0.03971935523740355,-1.6795579066623225,2.277644747018706,-1.3494328224485443,5.1294482328102795,3.424726259510479
1.53918892538203,0.8750996519117029,-2.156594670454681,6.104404476315051,1.842253798040968,2.832291411996473
5.5128182813478706,-1.8558832268763048,1.6944104887516769,0.8960804504863562,-1.0386625118475905,1.7327016159772928
-3.76650685392787,-7.397760974953639,4.391798398518894,-7.449511904805659,0.9511758199338001,-0.14314795968840066
-1.541396708206777,0.5232774799932287,3.417588527068655,-0.7663950784253263,1.0020928107142633,3.2738049511081906
0.6409186988056295,3.0250112403926623,0.6888381237325165,7.287186080766587,1.4318873617159151,2.0197600470746218
-2.5314042450609993,-7.991534863830616,12.865595309686675,-4.769404000325908,-2.604265463481656,0.3234380527283991
2.0375513823904496,-1.6099806673765147,-5.270037185910428,4.121742139036751,1.3483892297594904,-0.5840742244215384
0.4696320527374169,-4.280055903290052,0.0668689543194887,-0.08678314146659383,3.4289291739459604,1.3502671845409906
-6.807528620710974,-1.7667663294795286,-2.9727944485306015,-5.401335958678397,1.3609142503269398,2.8775803204582195
6.094943935837257,-4.407313641396648,-0.47920042187550127,0.40523560400215664,-4.338086971912286,-1.3151987529868903
5.839514829296466,-4.053410647805766,-0.648136833341688,-3.506133323928963,-3.8818287694523423,-2.46416084225374
3.956117643363924,1.5596417966408807,-5.44505196998482,-0.5635376140776523,11.83040977279361,-1.7062792624196683
4.408707803184838,-0.6379568837397085,2.6861496878372186,-4.294728506110959,-10.661292552005118,-3.7397700514347387
-1.7264428222378463,-1.2730857175239128,2.546045169062252,-2.6121009416850614,-1.1203154617398243,-0.5704575766769817
-1.6283745657733035,-0.9600655539589031,1.118587571906482,-3.8799904118772592,-4.903486225488209,0.7633332977102433
5.953080652053931,-1.1796431729913008,-3.0621939083293945,-0.38104568778428116,-5.14605351375595,-1.2807097509327416
-1.738684657670124,-1.4145873797562452,-0.39456598626863393,-2.2772068892414463,0.00919727196990383,-2.8610356276578575
-1.2081498833788227,1.1443900359301544,-4.844640618214882,-4.217101337384765,-3.0699483483086345,-0.9974461578135533
-6.0401531542051625,-7.228717729254971,-1.0207736004051902,-3.4124054505605295,-2.9133517980814907,-1.371377300156083
4.726398448195359,4.153663453933478,5.556725872823001,0.9188368504435563,-8.10761510019759,1.3375311327465542
4.643839520537529,1.1906562252300754,1.5476393282907548,1.7781878118291168,-4.927714207099928,-2.4174977764027217
7.447861193272564,-0.40800519627024956,2.1185436711760963,2.807573435479034,2.053055827552327,-2.1278417525974644
-6.1653044422165,2.2676531019652186,-0.04247488851315362,-0.09083122794200893,0.747063212308257,0.6859009859301888
-6.087073328419777,-0.6434547380482294,-0.4121963314106445,1.0946091022022413,-0.15951268259305795,0.29234762658181623
0.5037790351663045,-3.746912422611472,1.9605602365768764,-2.656484900335575,-12.257972682861993,1.8280458068666514
-2.49522132574504,1.560972831969802,-3.8646148663378654,4.1170708900747535,13.020872803273214,1.7746984619298882
0.8680878012815278,0.9933119788637956,-2.801990551256356,0.21631494140986351,6.951899158915534,-2.447134981027338
0.8706064697883584,3.235447219368849,-0.9785337936955063,4.913151420725853,8.082735127097525,-2.1290124614489248
-1.8102282309809354,4.723970614609487,2.7147041086290846,3.0206257372525287,3.899104357644007,1.8433107797732702
-0.8542371797899071,-0.2227832255889729,-0.05798670807517525,0.08554004927331416,0.9463484596750988,1.5167850279653363
-1.4105306680811958,0.21458786767585103,-0.6079772049008874,0.6268778151997019,7.1951434003246915,-0.3874818308236895
5.876472932028459,6.723308593530565,-5.901602623903544,4.968481961425348,4.341153998975015,0.35365286122220485
-10.480237487037403,-6.714831292129358,-2.94203135300321,-7.1467842309219884,9.742419004952485,-0.6085403148724751
-2.887663486592052,0.7842774124323322,0.5806345405585424,0.2286685933660051,-2.2187209503049274,2.491080787651283
-1.1171016841468162,-1.5601346488161276,1.0306147536207508,-1.5016841028385968,-2.1504053377565207,1.2326929806330438
2.1784200713159136,0.47133150013591996,-0.28772122776879216,2.730677635103812,7.804813147854395,0.03454571308895116
1.3510405969215655,0.5273914185111277,-1.3136452270848542,1.7340918688228162,0.26987994230526446,1.5570469403806202
0.6769692837055494,0.6178961093714559,-0.7746840671529167,0.41182393642068327,2.9202304238464123,-0.5777535316756169
3.7073329255769707,-1.561074684822211,2.278708913319117,-0.6248472282543418,-8.637137913104407,2.2942447547206672
-4.543501193825806,0.4127349520780559,2.852798486204854,0.2117446369056566,-9.175368248093786,2.6590270553468356
-1.89791235001452,-3.204409067512091,-0.33116800733172447,-1.8752817694135318,-3.078096958017601,0.9710043409195577
1.2663056437114424,-3.9068702438252987,-0.6959132900339848,-1.2675671387274212,-0.2817482327740902,-1.2937530534712693
4.265564050627881,2.3383526898311677,4.9643720210294795,2.9309365921452093,-3.1683143942058436,-0.8680820160020206
3.009805490951611,0.9631484970206281,2.622310378977009,1.6816608433292777,-5.519921052423842,1.4641668867465867
-3.3465516908611614,-3.347990184681403,2.8196025903663813,-2.81716077006127,-2.9330891338980365,1.2881504605341711
8.762034224421397,4.693443214446004,0.8903145745628873,7.157516995023045,-5.168111174480126,1.4090863976958432
2.0665609872186113,-3.4829903386146186,-2.148694517859825,-2.668627362129543,-0.209824263394486,-0.9481459210330873
-0.24640520724522907,-2.057668505060045,1.03365045524966,0.09988079311210143,-2.8249539324462587,-1.4592102394615827
-1.195913483934443,-3.184751628964988,1.6806865193652833,-1.756772966804588,-5.156600212917472,-0.9067547094886738
-1.8403481942016828,-0.6295142228236899,0.8871435289828653,0.06133020442774906,1.2289737967919128,-1.020998639108834
0.7581872961568659,-1.0554872112788432,-1.0217993994880066,0.643595269194088,1.04762901112898,1.4258635754418623
0.44514331841929655,-1.2932351378546467,-2.474443202814224,1.56003977446851,2.0565036966565993,-2.3050553580117037
6.9467801489720316,-0.40792000649465665,-0.9324960073982749,-0.8263263322642702,-0.01523643304958533,1.9287239410944428
-1.2634044548115173,0.5423588518803393,-0.21694180857046685,0.9044190474427403,-1.2527367784189154,1.0029478313354516
-2.0971109217872916,1.0253106305368942,-2.460280917945739,-0.2347731475889122,0.3361692343581315,2.4491305119122666
0.6494505741073959,-2.432457860617962,-2.5430911098213165,-1.944229568034924,-1.3434245372886275,-0.019208823113024076
-1.1001001051249055,-1.4474385578406535,-0.715690141152969,-1.1209286945595829,1.700313147799106,-2.568817452684308
0.3997127642460672,-0.30970758594445136,-0.6371895005454433,1.8198717955156278,2.7589473521524446,-1.877763893623263
-8.047100329693906,-3.6046801607944516,-0.9870414182826005,-5.700290964527634,4.679173830883503,0.019166149346639072
-1.2202165734093724,0.9897190965944129,2.5309027701688027,2.2861718950724796,-0.0665240890405201,1.884888282655318
2.1389493870748026,0.7408091650929327,-2.1077101049201263,-0.05451657575464264,0.668645998585844,1.7290040655821788
0.031433539020774504,-1.3761462554575412,-1.2349846313791148,-0.8206491837400557,2.262356152384166,1.2105967231601586
0.5544489591179711,0.10154493792824781,-0.862336789132498,-0.21939244508557965,-1.9321488591421894,0.059233394515529
-1.299209301502362,0.5262751168413262,0.8465636607765972,-0.09112103917058634,-1.1770030574890502,-1.529559047692151
-1.7892425305559656,0.842378122426798,0.5764135746879446,-0.7549099950361153,0.24180828749219518,1.3587517235931732
-5.493015100170595,-0.9629076095254212,0.5540436322564042,1.375021257602645,4.27919325527947,-3.735154319906602
4.176985093442025,-0.9873200151157393,-0.964194450794222,-0.7065218976221916,0.7891429991140309,-1.1183979774317159
2.0294862601747576,-0.4519206812010619,1.348946447164769,1.7339033063430926,0.013478769012898795,-1.8541485104727182
-4.2847352789453295,1.67693820364028,0.47096256861380215,0.5125109962282579,1.9460356928023943,1.9123717627742003
0.7671144717569791,0.036929700870304005,-0.2771226195886436,0.13127164959409954,-3.04297953078869,2.766961884706194
0.9310981273356089,0.5007727632890179,-0.4301100267803475,-0.33887703061322694,-1.3778606032054626,0.33317535617165017
5.4568449566479975,2.490880166229984,-0.011930327157876425,4.588640932873998,-4.011439463766399,0.01902957958513274
-2.0372939269367443,-3.0061342757635314,-1.2947826340983122,-2.4966336332359176,4.201613349361085,-2.7395561139722737
0.7749633128163795,-0.03479393521802643,1.3059496958612489,0.7363018746888429,-1.3118857437739904,-0.4535794935454891
1.3560417477900728,1.1312426601143208,0.5171657174681696,1.2904291950441635,1.3224936110078729,-0.5775668041305427
2.07411678672994,-2.415516537692432,0.0751616910764138,-0.07647224067814695,1.1502821039762317,-0.2707577797085794
-0.6990324905845605,-1.2736696859557355,-0.5293526634686407,-0.1517741060759794,-0.8702588098236439,1.1800210356563086
1.0405930100463299,-0.22754853404659303,-0.017497134110031454,0.4178458709574262,-1.8740848043691387,0.13677682273084824
1.7358919647452578,0.20468290080103477,0.1058896177496147,-0.5279642219952936,-2.1217073758556144,2.594476801492698
-3.3082132090402236,0.8734653914465487,1.4223677341755867,0.5510922023929478,-3.4045174304694887,2.1007908101432724
-0.42608418595803166,-1.128428115850547,-0.6429241520548061,0.18702951641397514,-1.4440758798457451,0.2778669788598058
2.702724479295117,-1.3979529321367354,0.2528831325079208,0.9227133416194357,1.3873767481135946,-2.130755341961132
-0.40198914035652544,0.08937620438954208,-0.46340512561232317,0.954942571939537,2.9515836399339683,-1.0913855644639254
0.8775357860672561,0.03809264519856362,1.213797058998871,0.341101951634574,-1.9854781640784416,1.2202988321664194
-1.8255027719408436,-1.1633564940141206,0.46929218631488323,-2.2065730807820025,-0.7119281345849543,1.3277733405631156
0.9857068181349282,2.4828949614940523,0.7529606645940858,3.0049850352441254,-2.000311771932075,2.8419359832143436
-1.8641517796809919,-2.0129941641523263,-1.291547850719681,-1.400914851359704,0.8175722725924728,-0.25073403428624186
-1.8366993883155076,-1.3290261011354003,0.7474006439825631,-0.29235345309333294,-1.5569729612526642,0.5478499895503248
0.011507035680421218,1.4265502451103385,0.6767218547745024,0.7292229628182662,-0.8228974511548401,0.6983174230205347
0.24468741269112132,-0.38466508096453,-0.02611395360926716,1.0061630544112266,2.2912376325300117,-1.0718268801945738
0.9205460491628665,-1.2635649124362334,-0.38959931427741656,0.29215123368215,1.5913048714812283,-0.3951894575357794
-0.6130613041320326,-1.0630117935997383,-0.18052203608914708,-0.20081853161486063,0.024057885955397706,-0.4689159275792586
2.012971077329001,-1.8361400510426757,-1.3104580417004452,-0.8517623629341526,5.225994644506223,-1.5601171179787936
-1.9828602428132152,1.1032211412939423,-0.0588829460883018,-0.12804776967742199,-0.9806404747420248,1.4528670774307464
-0.29860487062006424,0.3212039305871601,-0.40066730230092173,-0.37602228611880495,-3.9011524737062846,1.932475077042655
0.13004248158914944,-1.7919942610778288,-0.7963995205403038,-0.8392377711984906,-1.2152320578725424,0.36123670623664506
0.32061665417376606,-1.6228721890255167,-0.6904910747713553,0.14377834770168918,0.9687268540823314,-1.2585691744760195
2.8046060878953902,0.4718500739219121,-0.2760666971551793,1.3889119299884765,1.0369520815704982,-1.2616184137582915
0.6214255248077719,-3.1382807710624308,0.5274775732339798,-2.809532469627136,-0.5091964172040804,-0.702462434797949
0.32083614648282,1.8998355142714327,0.9058088853943607,3.1785050030355286,0.6222180693902624,0.42638359592461655
0.8029756665642319,0.1822141326602561,-0.29457952077032457,-0.2955299526869082,0.9491438155542047,0.09494740698671089
-0.9721090544103206,-1.2234373781563044,-0.9573033485771584,-0.9340517818465143,0.17036612946709462,0.6166327273710873
-0.056586404264833634,-0.2497893090616734,0.4068403572177451,-0.20901278215360497,-2.875114583486538,1.126744125827543
-0.5469692023987596,0.28869233611517897,1.0893980206301033,0.45040255921468214,-1.1962097185641878,0.2811271643222931
-0.44097442821286825,1.0527516531593817,0.5080120232216738,1.081533966268935,-0.28551459162118453,-0.5974699788769757
-2.425794449987154,0.942114690851402,0.9900407188026931,1.2342336814800925,-2.618633410715052,1.2923332112238786
2.603545132237405,-1.4942893765546836,-0.02939507285738041,-0.19073812827636236,2.5279803488547135,-0.7894911221781074
0.26968980918555363,-0.8069057651597015,0.9551317510473267,0.5097740387058589,3.016512091624879,-1.5698075279360906
1.3188547140183409,0.1544575685607299,0.05076045838241616,0.23538263794787623,-0.3137517323696899,0.3441575532833465
-2.5920219000127753,-0.8909876171018986,0.037739487150708684,0.5870429159485936,0.13944708175104725,1.2888228722831747
-0.6820530513876104,-0.447328444938479,-0.18325704226207729,-0.33245888738361995,-1.2518768729486693,0.9545351817833236
1.3498560797833918,0.031384192979429404,-0.10546687527081083,1.7257930034050015,0.08798863837866255,0.23056622499556068
0.15827738738968422,-3.46613789367394,-0.25683699500292595,-3.664472352700903,-1.6358744527295965,0.8133982876330571
0.13436723499841646,-0.14050888973746686,0.02062384251030891,1.2104618914125604,-0.6947017521448319,0.04753417750434996
0.1739357356981791,-0.24955520692424465,0.4138728951272626,1.157263325591605,1.4798146801668766,-0.5177337820749581
0.3730608805376787,-1.2091362576571454,0.1409028205670544,0.36117419221505764,2.0737368938750667,-0.9229652653699938
0.45395952012074015,-0.27579218893843793,-0.41727568152516814,-0.36007868708774876,-0.2664321627614218,0.9285818391399508
-0.15505737162334676,-1.9858280277387963,0.31446913326184633,-0.6678725459016652,0.15783957651197578,1.061895871340428
1.8445769911935137,-2.0446544229576755,0.21333472258359748,-0.4993029514079134,0.6392227958809985,-0.9148293461830426
