Gx,Gy,Gz,Ax,Ay,Az
-2.519622000000003,7.348607999999993,-11.644702999999998,-18.18,-381.21399999999994,-37.19199999999999
4.561326677865814,19.23702431310554,0.6677930334629267,-1.1899286880526772,-0.19277553220574337,2.929941615174738
-5.437934499785196,17.282747123950813,-6.222523166140769,-2.125170994346852,0.64427513703727,-2.419247531322179
6.157019621535562,12.500785152531645,7.828613751362531,2.6038375707355406,0.09998307512947452,-1.5586556418740496
-36.32059483664184,-322.2809076185402,-21.77852644783639,0.5465569381693607,1.7770446735758096,0.8883220570998906
12.663196089336456,13.443528915727555,0.45037603269706233,-2.802848270754144,1.0758695875803168,2.2075722534716262
-0.21521164108481172,-6.629109404402529,-4.012227651819911,-3.2172735917017823,3.616691113928371,-2.918065081354604
15.445369332766909,-4.843042072594459,5.743912605617283,0.23680158589065003,2.1399771331309982,-3.747072801507601
-12.971280345278366,30.097929589999556,26.62463609405146,-0.4501013535594898,87.92240308911482,-6.031995582456638
-11.453223712579561,-1.7150850345371862,-4.239015439537875,-0.658594448197465,0.09506783302088762,2.155489815290601
-15.723117878693373,-2.014243153844273,-7.480606253364835,-6.148314452486895,1.9705128357290715,0.07844461584923001
1.6821554341461733,-24.319572918951884,-3.3681712631449408,-4.603597761149679,-0.9627242425432103,3.4813534258637238
-4.057941180429577,12.59302624018806,53.76269585985967,-36.47770260430549,-2.327268356570224,4.68698886763862
2.236241607388892,-23.653821014937442,-34.131767221684015,5.358496742070686,5.461939914337509,-0.1815527794640821
4.139618215688724,-29.049276345773773,-24.571987539841658,1.3015215546835504,0.4174568141267891,5.189869493857682
0.5731245235304359,-2.762591976853651,-12.026453128337728,5.6192131686673665,0.6378445402254734,7.356879221269692
46.48407423293561,-40.15702124277337,2.4093192927422735,-10.459641779489887,9.260792635209029,42.37989796149157
3.393247873847627,1.0635944681045721,-3.9309828185444786,1.499519810764653,-5.405327440548733,-8.868791311529495
-5.13897354542501,4.761086517876527,-2.9117598197753214,6.8438233191392035,-5.043560089744609,-6.05924993368858
6.026570190727087,-11.577083065014257,-11.461452901328935,1.860995466076436,-4.762998177400481,-6.855168609942538
-3.1447035195309962,-0.901885432685765,-33.27891879428453,1.5791417543072388,-3.607184101835994,-7.987021144249188
-5.876457114237489,33.7217671419169,17.90089869366627,-4.573392287506007,-1.9106295366394987,1.1269905731263372
-13.81897459422661,33.912307391981784,10.811509441639144,3.583744425899223,-3.9313497710388687,-7.127862984008346
1.7853685840375237,8.99258573419128,6.694944232865687,-0.9891245761479706,-3.145079755514936,-4.930462458824242
-10.293720517902806,35.08395394387838,0.8704108012470574,12.156915808516732,1.2425864572773149,-21.316321419924982
3.3399988218319527,-18.807666555698187,-6.727672689240633,-9.903220972598888,-2.025453676930228,9.046838382177432
1.7018283442563442,2.250368931868585,10.193630992264854,3.637024655298127,-0.5042451022527534,8.965997193916323
-9.213807155179927,11.096465437026797,4.134496666678061,-1.7542651986604962,2.747349660244705,5.129920376702793
7.531536010310157,9.251197764376158,27.874812019350944,23.082187634204736,-1.7298885474734325,10.5085655677514
1.5017562820654438,-14.888792467518464,-13.868626674585405,-16.32302464599539,0.20543296633194696,-2.8345924681008476
-0.6034709106173777,-2.0431734561652415,-5.633336982662707,-3.489881160876811,-1.377094685269304,5.215155283202676
-0.3133579967050521,-15.258306819704954,-6.788906777168012,-8.062400406737154,0.1029500935124514,4.319911929045294
27.18331639960239,-17.022969106081014,1.745361216478618,-15.089846324380277,-15.161195170028616,15.064419175648824
-6.8280377452888565,15.732797383775006,-1.2997639388307123,3.8901741385673025,15.727028183732202,-7.30737313741915
-11.447554868456368,7.949122789723228,-11.00306736750126,-4.735433543000428,12.541925578053872,-5.756535296403181
0.10671475488290927,1.993213053427037,-10.086640851141112,0.9269126467392947,6.288426106035567,-4.866754944144171
-10.053246682056784,13.241045244399487,-18.00704662472007,-10.909340527429935,8.515276698948936,1.8829028237459295
-3.026111100990189,-9.37829572217702,14.000080946121834,14.577878654523362,-3.945939631602106,-1.8081163115354653
1.6161384206742753,0.9985221341989936,7.682545696012526,7.149226979806601,5.783211657777456,-5.770103816399326
8.57687387743279,12.03497441669945,2.8582745284147073,8.308041338151149,-0.5060745989847845,-3.1840908065769247
-16.45440353502675,-1.0004541222559755,5.276649696768399,5.332210574269444,19.28453498899376,-8.355587904523706
6.832697385913311,-10.747535011632547,5.301724806307064,-4.328641327860951,-21.312324171469697,6.130767002617925
16.05885215257403,-1.500029698710858,5.90190496144664,6.32936004761879,-19.85962824981508,4.6413624821442045
3.6279327346710355,2.5643500391017486,2.136510263312531,0.4162498793592637,-17.203877265873544,6.3634818376477496
11.251732526170258,-2.3071099579125893,6.199069957625595,3.8679772566148283,-10.249074269209725,-0.9781984490883473
-9.702153252545836,4.998281278245498,-10.202245327656989,-7.330973642325539,11.081608292485843,1.9186275824751458
-4.810967279454818,-1.1782508490191779,-6.190524146324255,-4.414791122452094,-5.825993231893969,6.449763170324241
-12.502102345092071,-0.0707550251860829,-1.287712822602703,-3.8518469014571477,2.335373558075019,2.7388918765443537
9.863568095170379,6.018840018855606,-4.426758502050246,-0.8578768262889118,-9.56573672157269,5.408391106332821
-6.231484448899341,-4.039867410515857,2.8074223194091,0.9134799088358785,10.801737826087766,-10.038215391969494
-7.012862792999502,-3.0751911268853047,-0.36293306976075745,-0.47040445882539245,11.873884397851304,-4.37875397343449
4.789338678867022,0.8575718652419064,-0.07922517168579823,3.045296220477786,13.024279786475125,-3.8878927755253336
3.210539203897097,1.2515156222499042,1.1447390385065814,-2.4778849763194724,-1.261794131816117,-0.7859351949720205
10.282016659832767,-0.3185615526805595,6.5518431021003884,1.4001403921824191,-8.165072170377895,1.2939789708873586
7.5853062428245455,-0.027583825926408956,2.8119396968159456,2.966664352826841,-0.36512051601975815,-2.6169313491157973
3.390633197519005,2.2899192908906203,-0.8243235751614635,4.4509416019882,-0.8312548655043783,-0.41655623267059116
-8.77484898292513,-4.802400414670569,2.6203102680399146,-0.4316938197500375,1.9609703355236754,-4.805868455481233
5.922838759539534,1.5273806435819557,-0.9240891950239148,-0.9261044810212459,-2.3538022068734477,7.01091563558776
-1.9645500089867283,-0.3569512064272502,1.8168786563854316,-1.6805226781230236,-4.644384988522908,2.995404656202301
-13.960740757250628,2.099416527483662,-2.2703092366039472,1.0248215755948207,-4.185272215542273,3.3813629870631665
-3.9467778207138213,3.0054164327337984,-3.691575861338211,3.4328905563348546,4.607637349009056,0.382196686617172
-6.804199090814083,-2.342531670951942,0.878588646631268,-4.271484626450655,1.1461836274688615,-3.1227944037483795
-5.446188401059414,-2.686568726361226,2.6644688783376704,-2.9250047232191774,1.3596082029283232,-0.08895658134006604
-0.42049893994086185,-2.148530786305785,0.705388289821419,-0.837339282728253,-1.426867094631311,0.43920793309255235
6.938215949876718,5.574208934326497,-3.652728546802127,2.9971714328236123,-1.9511296099441582,2.8490865499563314
-0.983760474847901,-1.1500857403791793,2.6729426656855657,0.027906674184631775,-1.5509983090475097,-5.758571619261845
0.8867512733041538,-0.8219098037612448,-0.029064705332686014,0.35839879841963,3.0146424181893705,-2.235094560745944
14.312448900586762,-0.4823766521811982,0.9570856059299059,-0.41338763640068377,-0.01892144568177545,-1.2989841454430464
2.011279215692373,-0.3470880151285213,0.3644744209309011,-0.0053359416538097115,-4.631463545651789,0.9693290698306471
5.558134938667223,0.4720591721484593,0.9234556176925748,2.426480641752134,-0.656390926335921,0.7565730741130565
0.4217832962194834,0.9922325387489657,-0.150594537091139,0.7086936244732205,-1.2331551896570783,-0.10174999628351872
-1.617128590925227,2.4016036601734507,0.2500145241044279,-0.050230094542181636,0.9469225305597004,0.6207245853870279
-4.0020333725050365,-1.9087769137175166,-0.02308745128601486,-1.2018670555406752,3.0760934836865053,-1.1411794270807383
-4.042638596542432,1.0668634676323954,-2.3612002466378024,-1.2606123156070372,-0.38792182297495914,3.3890055165847373
0.5593246347997978,-0.20415079252108348,-0.036900940058542026,0.24291245970869152,-1.494919464273062,0.6381318328337101
-8.810953059130286,0.017697931358290397,-0.013199936725702272,0.5525341922013761,2.5564982409567967,0.4421549406405534
1.1289246206190562,2.707711571128479,-0.47446166146454394,1.167086865102541,1.0868908317501629,0.7200047038904389
-1.2751306538056282,-1.8640638464046886,0.6557364626544294,-2.3870889475632824,0.17503387263972792,-0.4291166773431655
-2.055702906604043,-1.2484669341850347,0.27974333453450134,-0.22489121068421106,1.9440702411023425,-0.876685540214506
2.0825563231475246,-0.46427062453205525,0.15787955690050492,0.7489394740736919,0.41185878958598154,0.4116123260678276
2.8696051294884493,1.8086695588688948,3.8297831491474996,0.09092700330208937,-5.15178852675682,1.6424893564646625
8.475665537634812,-2.668949427745548,3.2041092763288415,-0.6013375173308106,0.017138715433443696,-2.1354913033822718
0.9853982981478864,1.0872422162392952,-0.12219019386076777,-0.25025648536011785,0.2096486347528514,-0.25492745247241244
5.127672308825014,1.042171769692782,0.017428899281416606,0.3333691486396487,-2.728187716028395,0.5977245206162579
-4.328188755666895,0.3749081711416625,-0.09209077624346869,-0.4796490522696005,-0.536351849904816,-0.3981646911271479
-3.8005953750354067,2.9812414965609273,-1.2190658690700495,1.0211467652633732,-0.722111295067281,1.635569882774386
2.730551072765228,-0.06694013890174222,1.1064155377137335,-0.22863661791432793,-1.1436054833336116,-0.5323679602008369
-2.8986331749175696,1.0420982291370389,-0.4959181889535935,0.865868869773933,-0.09314727022747682,-0.18525297009573852
-3.6849643460476917,1.4589712776691581,-3.2502798404635547,1.576469234024378,4.059379920225245,-0.8288198740905283
-6.218547988411939,1.6021868627056808,-0.10041733617512771,-0.1934798312959251,-1.8981680199823385,0.787515308346563
-0.18070450274980243,-2.0006766066677657,1.2916157920235403,-0.1571466436327591,-0.22824014319549857,-0.525190938525777
-2.3670247963933964,-0.9995561581494492,0.28385749314758624,0.14701945786423629,1.788619427991383,-0.5402135175863018
7.767799056704847,1.1568948676838926,0.530311008809443,0.49067837049547447,-1.0921658024795553,0.4514771254992883
4.161309093120727,-2.1946164821153067,1.1300172987983,-1.0891117573237967,0.7593300430704081,-1.8022034357861134
-3.2181455925440132,-0.0706182769646162,0.661464294719464,0.15491661212691527,-0.04377027978474102,1.1230831640799583
