Gx,Gy,Gz,Ax,Ay,Az
-1.9936459999999996,-10.215888000000007,-0.22652800000000067,-19.575999999999997,-577.93,117.95799999999997
-4.100996137400747,1.3607191308588509,-3.505435395501796,2.462490275469481,-1.1841081796642488,1.3094118741177019
3.855555611047519,-7.866931241302234,0.20322446602120658,1.464461911709211,-1.0972870384126867,0.13459982773373902
16.898822520104215,4.023524880405045,-1.1206361922710144,-1.2508824100665779,-1.8524528168517942,-2.77432801211797
2.507946869713915,-11.233902350407273,-2.7292520894766854,-1.0617449672863095,-1.3318013897053902,1.3598074942749705
9.886401823796577,-24.53235053269466,6.150596231541458,-2.7823216288465447,-0.3663708092422321,1.1017173665368776
-41.35283519231357,-93.35023398883446,88.03692954782011,-17.40349642448205,2.52010839519689,5.309398768039559
-8.180560174041585,10.321461154388013,-1.4008035752042427,2.462456831288494,-3.363666678743182,2.7914842245422773
2.6469851373752133,29.0904137833747,-8.930355402215936,1.8880732544503647,-2.3256447304631287,-3.2612450290553103
-5.178025395959134,-0.9254646412729439,2.965265331682125,0.7900037717608316,-1.0745118961956701,0.6282240810107353
-5.522596857418211,3.0984913490371895,9.254218474505407,6.8858013120523545,-3.182595878525497,1.3634725341914733
-2.7862553690531087,-2.179508721974038,1.6898316407163256,2.5621488212055787,-3.2121530543163326,-7.071991268119716
10.078338713786646,14.410750314864025,-16.825825698162987,-1.1374891439855712,54.94277683690045,-57.654932657286736
0.6920368701907744,27.748556534061144,2.265958396254221,-0.6398236538039419,-12.880309559644207,6.16622555888177
-0.9072339819338255,-23.386134592348377,3.7604571452462014,1.4511593903846258,-3.284675952670965,-0.6019565528513617
-0.8348159825788313,3.2127006721784075,0.2587515669510876,1.9812162018692483,-2.9127443317606603,2.467197552977275
1.6563185178544653,8.634582892347131,-14.582007412506172,-0.0018858953923648336,6.878500007328732,0.5406433888767319
-2.272974473169395,-6.747564535812208,-23.00900111532525,2.07224855360941,-2.808147314038523,-1.3160660835565299
2.4353896583008967,-90.52772947358633,-43.59619402048874,-11.26953088512779,-0.5924313794451708,-7.875023820176324
-4.268105317839259,26.55066396306448,-26.62783831053552,7.174283403460434,6.903625177343523,-0.9250336006596065
-1.9122034797489018,2.585788363997943,-4.075180178254509,0.3240489945236727,5.05631764337614,5.579060829017987
5.2611491483878625,3.986264283839627,8.535328487521827,4.307373566360858,-0.4778751432373822,2.9880806495434844
6.005167305796,-25.784808424972233,-21.070721829958824,-3.6052052563391745,7.110798903162713,-0.2263972819673512
4.287507871841056,1.5543598927445172,-3.372971505885618,-2.483274582460956,-0.4331512369710309,8.340277041556849
4.4101558507534,-11.662003082736717,8.80025127594824,-1.8546898886977,-0.7787085399573392,27.705318620349374
-2.115116256121828,-4.273814889364059,-11.807825807154195,-4.153103063461073,3.8216523083870446,-10.745466293394346
-0.7851451977713544,-21.101540972478908,-9.592521586610815,2.247760136153594,5.12553263667859,-2.3227640727969616
4.242837066829961,-9.66007549374644,5.113633296473608,3.1546651986253695,2.1421274314129164,-0.6859086098084608
3.8158077454725943,-3.430503797728031,3.2683164663481374,-6.466155724852988,-2.0896370944247433,-2.426073547170894
-8.043686935027816,14.234784242136303,-19.61192954170193,4.2096169312824925,2.014292078782452,2.2039006540348502
-5.25069086556935,37.525554118736196,-14.43700456514753,42.5372232996168,2.0071613061695412,6.261210468100071
0.019001810759320614,13.549245711839145,14.280521315844444,-15.765561548743605,-5.910207100158864,-1.3644374717561458
-6.680479605700393,-4.033690588597903,7.4526386724464375,-7.077201870718925,0.8796002264513803,-5.877718212729445
-2.2847401291456833,9.831491894208519,-5.3049455917595445,-8.02864670338366,3.5409496920802783,0.646617729382164
-5.567889209390139,15.136915317963947,8.447971727947749,6.166144400948589,-1.8706296655491368,-0.0844269530180104
5.898488937120962,-3.7566948809634066,-4.082241162334445,4.202150819609505,-10.130843918203444,-5.863406823202347
10.782128816760238,-3.931718005196323,-8.676626025737232,2.982198001894307,-16.13892906634905,-14.171665033633083
-1.8981914120469656,-4.434341643356543,2.6494856813616017,7.563350337061069,0.03449093883125576,12.094324032370732
-3.672690874452994,9.632479675996091,4.263748325716943,-2.7159610545626776,1.5948793476434562,-0.6683073377143234
-0.8451339083692839,-2.6359301797125814,-9.872903158194315,-7.351743576034476,1.9530861325088642,0.8762687414277961
2.7493952910388413,-6.025447535424735,-1.8111958868742855,-5.840158456455946,-3.7645808222387487,4.863028987939308
-1.6817156763381187,20.100043463307,-0.8940735838950076,2.9562433752494846,-1.0098355648208497,0.8320198060809769
-5.389568619675686,11.945542737884837,2.4520977968989883,-7.505333243215727,-2.072314136054324,-0.7410563330131247
0.26458128114938284,-14.486918868797462,-5.164587385539355,-0.8375445409091364,2.756605174407121,0.23465494096884498
4.6971860538286485,-2.671242221037589,5.238079305957376,3.689311572859266,-0.9639716042493758,1.4741634341332954
3.7062476810073113,0.31973471211138227,2.4695657145614054,-0.9298313987676179,-1.7606545340770037,-3.8857433790698908
-1.7060426828716018,1.5418697303467734,0.7785362485358416,-7.561894848373971,8.538131343371093,-4.439221119940608
-2.2571141699027497,-2.410906113098758,4.582966384351808,-2.3429668457884616,5.95485955656859,1.9411930804090987
-6.024150720397733,-2.2399366338709132,2.592597364128799,-1.0160942883958604,3.441293246152938,2.6379957451618417
6.017640769802396,3.4759063647542767,-0.9710066418638348,-3.840496842561192,1.6456518244122464,-8.89069194388793
0.5886279444528286,0.8676495927254539,-2.000342691375024,3.842048780305805,-2.7263790638993717,2.736625445383998
-0.01229462879474208,0.6067605306155567,7.259842687103712,1.9657308000675835,0.061706514422679715,-0.6485425168257652
-2.8631555191909777,3.066152660541371,-3.288257445984837,4.450611432787552,5.15610994396171,-6.056709804985407
-1.120250717908811,-0.5106812493435919,7.3838526616620515,-2.047695448800507,3.9858798120719876,-3.704658624864133
2.918061456798154,0.4335315537325348,3.1631051485769275,-1.9639385249019812,2.2901200955208325,-3.432604264379836
1.0746600595632454,-2.9193456136436033,-6.150223247144947,-0.5389493768132161,1.2735089875923828,-1.0510455888982122
2.093627457686459,0.8316860073124295,1.6902861404612883,-2.5413055720419018,-1.4996976146804677,1.687082116876642
-3.3842989895225593,2.452553296155003,-6.668676673728598,-0.8304691426296962,2.9342364788088426,1.3615343034572083
-4.829554559755292,2.008241653197085,-2.34846601107488,5.764060298815892,-1.652086457377134,1.1378383501396399
-0.1293528394177914,1.3725553510630022,-4.050465144329536,-1.7058556470770045,-4.063079686867859,3.4149133400864873
-0.9006734447027607,1.4970618650284584,-2.530678818660758,-1.453538231209313,-3.065637016997665,2.47095244893229
-12.799454990460623,0.14471691638577977,-3.281143088272695,0.7411918829429751,6.537612737759737,-6.954945709329474
-2.244872656611132,-0.36205565175273,-0.37080316045862416,-2.87206835284306,5.982451819758361,-3.8315630107084218
-1.5440800325469395,-0.1817566648328972,-3.2814647542620214,-1.1355229781017555,4.4308526635905485,-3.5912784402983835
1.698411398610897,-0.9284847548061034,6.203412941383344,1.0598358059040285,-3.8304825747694053,2.271222160781342
-2.895050479756358,0.4005976842181971,-3.4814244311505997,-2.2717630371265485,1.8296503696102007,0.006453761434368932
-4.990688784289132,-2.3743230325444635,-1.7061130509765023,-0.8900744608230544,0.6801521858774531,2.442835081744649
-0.14743539899246638,0.6046523375570179,10.418709495412758,5.710219434986369,0.26259948480748196,-5.71423652236634
-1.682146412617252,0.940633459810603,-4.404014532754705,1.820077404197054,3.478300609133402,-4.941744563130834
3.095123489114835,1.7915287219126594,6.244680237555586,1.3289329117371589,-2.0740548359620763,-0.1704560213118873
-0.16900269229929155,0.7725671730697969,1.90330703403336,-2.4627269370839073,1.022944012633015,1.830815598070723
-0.1614014096323051,-0.7264442153939883,2.9572132683215018,1.6637234161078593,4.817083433726533,-4.642621357360208
1.6157919667629768,0.8147894180744768,0.8942512688394044,0.1973844668229484,2.3484055751119683,-1.5972270972297364
3.2500848086160667,0.060837820861364245,5.201424842048803,0.6774041122946073,-6.444504468681215,9.428512836845426
-2.7753199789634695,-4.593673552977572,1.9629642726364718,2.9336184153022202,-3.751878485580921,-1.8938116415246062
0.9270644324039805,0.6966233276827426,1.8340754035151314,1.018485318421635,-5.163654675936135,3.8800406711526594
-0.4904458651417397,-1.5649073688921584,-5.90906321918356,-3.870089727389444,3.0536819167706524,-1.550715081665119
1.713331007409285,-3.6158564680608483,-0.14696862219388152,0.9373327719495355,-3.264586683137513,1.4237196590877077
0.8099219743836015,1.997300899481196,-3.1034887111505154,-0.8928151802060362,0.2611785371295484,-0.30139482954645325
0.3173324689057311,3.627694608533466,-5.466553812992241,-2.479982360718797,-1.6897965243358009,7.151838570547334
-1.0591591621182181,0.29808123257174435,4.656033949766772,2.148033450388029,-4.07198701169062,2.903262094676188
-0.7545156518537519,-3.9226800591054656,0.5782195429805541,-1.7749201539725266,-0.8806867337190669,-0.3338535083896783
1.5235517710896271,-1.2838523397987147,-1.181207094986468,1.18488915403325,0.21478992525885823,-4.896053818018567
0.42027877348393283,1.0344561387199063,-0.1095916565449433,0.17367491715097882,-4.3417987455274885,3.048126971905284
-1.5578391465236174,-0.8741944544592577,0.5664340527025011,0.04968305858786293,-1.4614086150165817,0.35519989319809386
1.8967176177429748,-0.30053099456153853,0.3249009228337977,-2.044020048225485,4.92328086369851,-4.41758798891103
-0.5224349820754606,2.0745595419836893,1.6236471928146647,-3.8502146257796754,0.3839140459518038,6.366412107806467
-1.5089596526282931,-0.6394305857144251,1.7301050825669648,1.2086541424301191,2.179258409474255,-3.0763727007625796
-1.7869250665978427,2.501284406059696,1.4214507780476489,3.8012092190269375,-1.4984832448505827,0.25652745335256966
0.5529727437281537,-0.3165390145902964,2.2285557689242625,-0.866682774212722,0.8605189211912453,1.1932180177986984
-0.9772297661614734,0.6899646535184802,0.13746922107549264,1.263701741964923,-1.4549161942821933,0.5010541100263168
-0.3208315292789212,-3.158810083239274,-0.3951691689202652,0.13232163135461583,2.1009302815003403,-3.0666715239785596
2.4678063639945815,-1.002863239451334,-3.0331612659723084,-3.923104960958015,2.3647680131547775,-0.8665206878698712
-0.747545981480655,2.214762586354215,-0.6669042935036021,-0.4109647913341344,0.26790180169111144,1.938293586406885
-3.406572801262982,1.5121603418608045,2.9389647936600474,-0.8773097150613451,-1.3155464097036587,5.300517708945701
0.2570385098529343,-1.0543901341377993,-0.5451255988921102,-1.0759143765165897,1.683865039381904,0.5635455644127745
-0.2088393316246996,-0.9336739004294186,0.5664347233809953,-1.124023276925684,-0.20319531161244697,2.0891959258863912
-2.1777041846052434,-0.9926731662143898,-1.0217692737005315,1.5033890965894856,-1.4051763829598738,-2.2096776992158818
1.452810141662554,-3.8384489199037644,-2.21644639790775,1.7827689520807035,1.6953337482894428,-5.5585883896641395
0.8738032414320736,1.8379930779491713,0.9048411769433969,-1.6865785993560045,-1.3313668822077844,2.014517959947657
-0.7736610906449256,1.7342076125982375,0.6821867608717216,-1.2627766576557549,1.2119904995090331,1.6484039552115737
0.12100317846319764,0.34555113739423726,-2.187576802273405,0.21328749511262807,-0.023762535867060786,-1.5652937864555572
-0.3784292384438701,-1.3005978082820953,2.7409555078256895,-1.9488770452965047,0.8724214652956712,0.801853699548365
-1.4044628462889752,0.5613942282688054,0.8554079230822655,0.6035199340286308,-0.3785012492452766,-0.4175699302555027
-0.4733344890669091,-0.2824879002780718,-0.701238223710113,2.090627279830277,-0.9699642461266667,-1.802091666662132
4.359005781653751,-2.840284227188592,0.3751930718297976,-0.08971955941478643,0.038398194381344786,-1.8523956144183527
1.4007393638256447,-0.37541905995403235,-0.31971112980951144,-0.06813734320542686,1.3744943977285198,-1.246631253398036
0.3955093094938352,-0.7093691384213516,0.7719608322614986,0.4558645947845203,-0.5561509922371094,-2.0132767859215357
-0.653776739522341,-1.1704306343348823,0.5658070992504385,-0.27398999792147827,0.11602545481631876,-1.1772068409424865
-3.0611210471450936,-0.08901991230641992,2.309023163261031,-1.470181574593636,1.0210714591198498,3.803278741624114
-2.2413067103493374,2.740960953700549,-1.2244560548252696,0.15715062614579078,-1.218738803608217,2.133982479057175
0.9385442405365384,-3.5762109303731062,-0.43383624245208974,0.808131950648374,0.24679377504500732,-1.8536382465744623
3.0547241681012496,-1.3285440800566812,1.1330235024366648,-0.2932697154977598,-1.195934177319245,-3.116347568650573
-1.5259989773803695,-0.21649004801790883,1.4845519433646794,0.07546701111344595,0.6720277543929676,0.4407092320679946
0.502487523249794,-0.07396248129237737,-0.09031074744680667,0.008366938547353708,-0.9411503483116145,-1.9166504197533432
-0.4053599513750439,0.16067874850301522,0.49376258472048495,-1.229114258786901,0.24507299401014732,1.3545626828110104
-1.497757399066963,0.5274476610385054,1.836369591261179,-0.9151490636927254,0.139939633090787,2.565283538622667
-1.5406285441077694,2.4947097229510105,-1.0275876083790876,0.30594713450940036,-1.3644043036480342,-0.045918293402815946
2.0984624987818385,-0.29831723718636205,-0.7657704196632336,0.749919929278277,-1.7417283881879146,-1.0702364042731924
-0.8850360827304595,0.02684448148157026,0.23612614823072098,-0.9580987693602779,0.7334989863178539,1.256362372808514
0.8959603911786242,-0.22921769412741433,0.43198402905762595,0.3772193879492943,-0.645771081404213,-1.2720159894820928
1.7816801601163879,-1.6538352337256148,-1.0615430749459462,1.1273859306109548,-0.5368840034908655,-2.0856327418596896
-1.156752106387704,-1.6329567418387407,1.7670404386044192,-1.1048629036164272,1.205369594628757,1.5066934598087138
-2.4152144207826574,0.87696036149064,1.2356962255204302,-1.0210949889566248,-0.12941182104220295,1.7384577927367533
-2.783515121602365,-0.14347698271832068,0.03149600754908133,-0.08113685295238238,0.646483754451657,1.60752600469595
2.979525704553973,-1.1659524387561553,-0.637446020105217,-0.5096619472787243,-0.6918491569605463,-0.5188964039310202
-1.193371145878202,-1.538922658028492,0.5396886964120102,0.08813578879004746,0.9866687915347945,2.0383195521386765
-0.7336572390656417,-1.3213514852353658,-0.5166222244960369,0.8238120733897255,-0.25100467473316745,-1.5210373640932184
-0.18091368714018374,-1.198569444508888,-0.241087427257965,-0.37991208731912335,-0.14439550426594305,-1.210530975641472
-2.0835531161167267,-1.9640307552108336,1.9868428751028033,-1.0865387715096402,1.5964569598570042,1.9677832751094224
-4.03446064691902,1.4938684335352794,-0.008290952476859015,-0.6353942639240661,1.2296468347429823,0.695435721752031
2.190135259938175,-1.0748424824383092,-0.6354322523142436,1.1035874160491361,-1.2310543401698528,-1.1294357883124206
-2.399723841961074,-1.5048155053594816,-0.4942843949539555,-1.2794416730096136,1.0499977103719775,1.636146190101299
-2.4343318793604767,1.1681955117885914,0.295274451276725,-0.9565287129492084,0.5556294498813273,0.36856260955358844
2.6788296325260488,0.5712637666021335,-0.4729800020622905,0.511033779515285,-1.2538322157800095,-2.8141835402752493
0.6878038115589153,-1.9710511093933194,-0.3847114752715275,-0.14436215689177023,0.542264197510752,-0.01643435983656727
0.3796555529435671,-0.8369025184112054,0.24801488040955597,-0.07389282554238863,-0.2197346798715829,-0.2663774701179108
-2.8053374057968767,-0.24961845639530966,-0.07714494093221488,0.38411159201649037,0.14224029102505545,0.33753001885231815
2.5526584076461547,-1.131029581810754,0.02559865192316213,-0.5704383374254978,-0.9009273639321796,-1.8656247553588665
1.359997449131414,0.7647588967216857,0.12326726791239662,-0.4822631953005335,-0.5707953502379444,0.5456086015380994
-0.017972832845798647,0.13878387064119801,-0.476999925625563,0.7502630380076757,0.20498795366521916,-0.5298144988189251
2.518055013918855,0.05410559119126934,0.09928288553336495,0.14360822100076143,-1.108690098968878,-2.8642788107785684
1.8898450054045457,-1.628706537720971,0.5648111601134288,-0.46784884714445496,-0.2737015637604129,0.3101725925043122
-2.753182979876297,0.3788770287735622,-0.0444309546040913,-0.15075590440862635,0.8732846577810841,0.9680328704444165
1.1503847865459484,-0.6677193052367225,0.049671219425365176,0.917248724469278,-0.9248758166646178,-1.3126771684944394
-0.5428610037317096,-1.8341041709526387,-0.849856142791304,0.20613567814055894,0.38713397634069946,0.5602456797903892
