Gx,Gy,Gz,Ax,Ay,Az
-5.271261999999999,27.805835000000002,-3.1234310000000023,-15.016000000000004,-547.3679999999999,93.548
1.86688615175383,28.314131155080062,-2.4056611150577947,3.1842658073692074,1.048922601811971,-1.2130318632880488
4.718155410120298,15.618751144364811,-1.2176141479384537,3.5278940312708182,2.0484584971903974,1.814276976123932
12.593153691452446,7.993870734114241,5.412633055049049,1.8850027587605593,2.0163441370744932,2.4202412094411208
6.914308264451169,11.533288905205387,12.20260413773459,2.0439037491806746,2.1758052130798213,2.3664798192087715
18.46694985070374,-28.312123411551138,25.215050715379455,3.2680840179130257,1.1015025296467214,0.4319731454499305
3.6305928694353637,164.35788990756654,-64.89373256541994,3.2882126786579233,4.295373240747892,-1.228844192951906
3.723682695017684,41.214204142284196,-8.927484724284842,1.3456767973454773,4.075562247775041,0.7825679976185406
8.912350663962098,17.317155702749425,-8.621098761847339,3.473053532376369,3.432430663085798,2.4836309233102245
7.651389155389777,24.715425986982222,-4.479334224576116,-1.8352714804345327,6.175060087254189,-2.5231045615091743
7.842909521111844,-13.081969148719377,-0.696389649538234,-0.43620795167795823,8.81878423702866,7.6174713177977
5.945076688359733,8.92994378247182,-11.58966288169787,3.047247775378899,-5.982980480085119,26.827520692961958
-12.52574612690885,23.14782584089182,-3.5022215865037456,-0.8537532210457454,7.246912481407686,-37.566581839839
0.15159684792816908,1.9689563152992,-9.164095995799062,-1.568079276756091,-6.752680524081281,-5.535175411777327
-6.951276361760636,14.671860755933043,-6.1703069193233935,2.379515949669205,-1.8836763894670048,-5.987898999113677
4.449237039571488,3.5141038580644293,3.233227721945523,0.046397254454190184,-1.8725343095179943,1.3278276458422127
7.048420074046951,39.59493335624354,-16.357917664015833,10.19934917630512,-6.930029994478793,-1.1268749779846825
9.099413156064482,15.257550033102163,-88.88402162563787,22.28221109005911,-4.769312328901227,0.006238054675296922
-10.718622337156372,15.079246583813337,46.458697600204886,-14.383254883569993,1.386269366814933,-1.4001118755438036
-1.3606280608563133,-4.8157324375085935,14.914035437105099,-2.34883984082852,-1.7210918511167326,-0.35348941944979395
-6.8666819924879166,-5.909224074691409,9.660342913158146,-8.886442525614363,3.40896360325436,-2.6389541494557514
-3.1776766292365526,-5.8453464695629,3.540213382805966,-3.412395637652861,-6.675916891293206,-4.273285945337234
-3.6919634559433048,9.360869461552882,-6.303435388893272,-0.5202587905784501,7.839490351456659,7.4055122828608635
14.90757884581847,-5.819909925252556,-1.921989083221244,0.6562540808953363,9.846471167905484,27.976046960624473
-4.332570127327885,2.5319279725178294,2.6684150161106945,1.176578870240017,-0.16462516871400457,-3.5912617625435925
1.1642392224536682,13.617221816750156,-4.387658286568727,-4.590208941965211,-0.33254039379492906,-1.9446267714422072
-2.5250374051471343,4.608032456950042,7.568110452418708,0.39912493901254925,-4.027184346313739,-8.053437605058317
1.667564148722751,-7.247023038619881,-2.1498433015094216,2.720788585558382,-1.7890718204555993,-1.9818106462186968
3.2524048501004614,-0.11843647122701495,0.24725554243170667,5.1154007766146385,-2.8784338422064297,-1.796500260598609
-0.31108461698751455,-16.15997952955532,-5.234762303999076,-28.312458498756207,4.564873226633678,-2.5026525841166887
-2.456881176401778,2.5303219375016126,-9.057259265022914,3.7915193563635103,0.9867820206626754,-2.3516062644659446
10.098767772904775,-9.109390300986327,0.4863493135542041,-4.811860465487725,-4.736028751861211,-4.587317006501554
4.100012200143963,-5.2798776915298875,-3.528961186588664,-3.0870605146905485,-5.7063565463234145,-4.763143581719927
1.5514814009656794,6.45493885699715,-8.75996322093552,7.954631306057582,5.137264078312321,2.8990125106783737
-10.51916939983334,2.4412992514596716,4.336946504780663,7.315525256120061,13.820864373055201,4.440465732778173
18.611566133560064,-5.167465593775951,11.073449735420034,-3.6658883175749715,-29.05877388787873,-10.995755342269373
-5.757536596061852,4.604374782957148,-2.6455271063671324,-2.6919279883214413,3.0846976491623126,5.148894627273407
-0.23365912057303628,-3.2246992588148062,13.81378228225524,5.133276291952441,-4.797740617925037,1.6139901154855827
-1.721942303182297,-8.533799349911014,9.002284456321105,3.726161499628228,1.9175904560837942,0.32021301342304165
-3.678542049433542,-2.9735277514836227,4.394091255728586,-4.4176152936565645,0.6968599612966138,-1.9935696116031902
-8.933224846877415,-5.141448920357352,-6.161162702406535,-12.511041965075258,6.502824163481682,-0.2349205905093834
4.011814702494531,-10.056959453412045,13.073752901210408,1.8919187232911467,-3.4377297512063123,0.6253777206462774
1.2276524570262053,-3.320863523558514,4.362674724787571,3.4060996374160357,-0.1958580414915554,-0.4740776494085872
-1.975903562452208,0.5398764831823595,-3.218575949063667,3.757168992461291,0.8261475217960399,-0.8274947995078961
-7.047605898571792,5.92101399767432,-5.142644331192517,2.4046438045875025,17.459177301944774,-1.9892061078726342
-5.354928259093132,-0.20390174157033636,1.1973626729180684,-3.2062563505015036,9.651742671559226,1.5190952647786917
-0.32450143285714006,-6.545185822207508,-1.641577872293879,-3.6189061277415475,-12.411569260355586,8.157700425668594
-6.154958046783868,0.675924610759278,-2.9203932427516883,2.5298527575697274,18.922080557551432,-6.393202779744514
7.666944923396738,2.837453028098742,2.642356392232872,1.4886223950755861,0.608508311904906,0.4347527748941493
6.535815638960454,2.4096710549400706,-1.770273500348143,3.088241518154419,0.5466026040625152,-1.7751839020781488
7.010227165853251,-8.609337983099156,6.303444177223234,1.5564409768782366,-6.616719953406434,0.018747289517131338
1.871276531339447,-4.285019534683491,-0.9234557595631063,-2.893325749163542,-3.767705545811074,-0.514906776629818
1.380864286862246,3.366591063168251,-9.869033766576091,1.896754432300308,1.024205423119465,-0.2715814910758505
2.406320608573154,-8.695996712396818,3.604255467635133,-4.086952320384201,-4.814052002986438,1.4074317325878423
2.7599649138346516,-0.7383862235509162,3.523226868619634,-1.4033394803625172,-5.509249146490669,1.4789489132927343
5.135769515831423,-3.2284647166183875,3.339515342520693,-1.3700022784784154,0.7868574177283711,-2.7614204368838595
-6.168454177737011,0.09499098900813885,0.04890011522179938,-0.28597597624097804,6.955961125419972,-3.035208611412013
-11.571506581237758,-4.125532810699466,-0.5203670142638117,3.168798079204932,1.896737328067097,-2.5874625657084693
15.577729675592616,-0.8697474468273501,5.594293002855465,-0.019842057932030643,-11.123570718208619,6.189121012490351
-14.773930824067683,-0.5789677105065105,-0.9067786154344526,2.791553278035967,-8.464434830393133,3.7456484251088282
-4.094515285765768,-3.6794464020623185,1.2449366546647171,3.1262396252064635,-2.480019516005476,-0.438147868214221
-4.581429198296253,-1.295778890315077,7.6747971394212415,2.7572562717365723,-0.29272712040055326,-3.5286286165022243
-1.9980080582322,-2.7203195831416425,-1.139957794746153,0.8467362928660118,3.469891903014986,-2.3480636376648216
-2.2812287403124825,-2.2669761042485637,-2.293789113857004,-6.081405843347833,4.0919219036528105,0.7395740636380116
-2.607595666110343,0.49781639200660166,2.7755691943027276,3.314854430282513,0.2489167781078745,-0.8128914301842155
3.2294207144528464,-3.536016982467039,-2.522340755837689,-1.3525804702762667,-0.7832139789771801,2.830976972270018
2.3174426074799577,-1.3625830600445996,-0.9785319004486832,-0.2583113826328751,0.08500161492828338,1.443739156748754
-2.708967372732535,-2.5566851615461625,-7.121972392789662,-1.7110341772789313,11.417869708615157,-3.754732151793557
-0.2767109622545948,-0.9071796585341958,1.0162422077368092,-1.030018274185263,3.399862307939554,-0.892331143442779
-6.443384996097351,0.016155917592629465,0.26757701494603214,-0.7163912733654645,-7.577736705712178,4.264708832319663
3.551804390049109,-3.4100295349438965,-4.9646909077232895,-0.047162000478776944,11.329839233428228,-6.944724436338232
7.846764453373813,3.1265945254234966,2.444777453001622,1.179398860081832,-3.1977530390125164,4.246648739773868
1.3958107874504044,0.3110408280405683,-2.8988167092647674,2.9920440545329727,-0.40388382396400946,0.642960889265507
1.7826213473484653,-2.6427836754916045,1.6970053861392456,-0.2911588131193834,-2.4776556297474013,3.41429728234196
-6.402306997451896,-0.6030302726180794,2.524871450509433,-1.6033112018004503,-2.5625881245802598,1.2373958320696943
-0.72750171407101,-0.001864854424253437,-1.5945820381868372,2.461209041972215,-3.102139730751775,0.23182638397138833
-0.755077193517516,-3.01307048608938,3.1519475160034562,-2.647275113655814,-1.9342972376066778,2.263820299057666
3.1298963293252116,-0.22472273902634665,-0.5272808719487154,0.6461952982604655,-1.714618936206857,1.5543301190124583
4.742448677512632,-1.425817378161406,0.36827970220539774,-1.2807511839321783,0.501051242420079,-0.37398628610631635
-6.677727727007796,0.2995150414902979,1.7859149724100303,-1.346484720958202,0.6935237575056716,-0.17666284406070165
-3.6221621978500016,-1.7483021419820002,-2.020613317591839,1.0370243842703775,0.906351580776891,-3.0025390574692548
4.7274688957657265,0.4588478181898892,1.5549401608270346,-1.4655573332517788,0.4276528649225755,3.7776800758652658
-11.346125504106231,-0.597871362171426,0.02882944069953952,0.7909853321591305,0.3423227437674381,0.6031101796937042
1.9487767488306327,-4.335788973395038,-2.942111309175472,1.123266108076315,-0.062206740671967076,-1.799371935049833
0.6125506998495382,-0.07064279033612683,-1.493695116256967,1.022728942025949,0.5189151875297625,-1.2958943275623467
0.33641393101253536,-0.41106090998151057,-1.4868369275152489,-1.179973320485018,-0.009642067344467709,-2.012951517646859
1.5951513919999996,-0.7011477890503639,1.1730289892073928,-2.078652917752645,0.2251939497513158,0.32435692566137364
-0.09921925184148517,-1.8244659467731594,-0.9374295463866791,1.05995763986131,-1.9719449493673449,0.026546629871326388
0.32927427892090555,-2.1335587175459585,-2.171704457263444,-0.09863037549127252,-2.1118165722817164,1.6233071106156098
0.4300985902371597,-2.331100897853021,1.2461220008427825,-0.739800167672118,-2.0204348362365927,2.4809662281796725
3.789504438712089,0.2440476606815687,-0.23489525512789178,-0.18112858557311354,-0.7006088619841278,-0.8059737244905854
-1.1923976284758617,-1.3200290159114556,2.9795163433265084,-0.9511869005314608,1.227969856789688,-1.1046454174307003
-3.4296516004173574,-0.7814782686050006,2.3524939107064853,-0.6998234748698404,-2.0567820224665705,0.8581162399169915
4.808630965535365,-0.44683192176848696,-0.8705543974018912,0.8039509378431033,0.9679348507698631,-1.8831771876664798
-2.946363003992511,1.0462529776239837,1.2241916088448028,0.849600115483076,-2.387712371327529,2.8135239328297112
-5.4994008780580295,-0.2703064697433678,-1.7828847940818349,1.7673230013268695,0.7459889084326641,0.12560574660461096
-3.864695121268227,-1.7185149357035674,0.011351075393046361,-0.060536290987775576,0.7583648974003232,0.09915004525683926
-1.9173676628287093,-1.7617461712878797,1.1607190187458356,-0.16642814443841514,0.17465612780876816,-0.4566981118618937
-0.8740340941390484,-0.006924404140871254,-2.5212768656120845,1.866126602438056,0.4413286724565611,-0.2716103655483263
-1.7743547758228468,-1.9719313219165735,2.889511131023564,-1.5910905251394452,0.37112515290184445,-0.1787996475508995
1.5300365929149784,0.5551086414822278,-2.9696350151754367,0.9599579594453892,-1.8437378955761876,0.7049090674606162
2.4090502803108693,-2.1909748734588153,-1.385467295619584,-0.7611811316646717,-1.229425097915367,0.5701386506608979
3.3328950146027543,-1.283541748233043,0.04559956559493916,0.010566906321548886,1.2060473374702858,-0.7735570227418893
-0.5852518513001694,-1.183227843742348,-1.4756537165456667,0.30519127945339075,1.2438000590351936,-0.22090488776992337
0.7884763686253059,1.2435117732001526,0.9820605245671482,-0.21561855564042703,-1.092533015897402,1.7814923892167212
-2.6510600982138257,-0.9569517587263151,0.8238996433422517,-0.3084787241621087,2.216255257498892,-0.5444327576816135
5.0147046969051825,-0.7792349807585857,-0.5159114709387659,0.5136834525375239,-0.4624029264229021,-0.1647638066637857
0.028404820763048955,-1.6472609573410657,-0.43198959755216765,0.19964871830836806,0.5185429167384025,0.37200840391135537
-0.2996874281722225,-0.05981148259297797,-0.947685622419318,-0.22545264295828094,-1.6298596418233826,1.4322936699450666
-3.8457025476130227,-0.2157531086440989,0.8015885950879966,-0.5697848208200291,-0.8396682926990131,1.00217064203105
-1.8894499476919886,-1.5718120027054,-1.232451876651051,0.7619101083504384,-0.844985586787409,-0.3025832041047739
-3.1052321566703274,-0.3729909816290482,-0.24885334254977887,-0.06530743028892962,0.3715293572376063,0.1140923987103554
-0.47548288377728354,-2.6745336119114125,0.6524719818545067,-0.6008833633337287,-1.8576415596182367,0.4243823243542155
3.637232248537075,-1.1342180701441964,0.638060595630612,-0.36646554308690316,-0.8084043110711403,0.20497954815387065
-1.8802301406784068,-0.3794290682465038,-0.7709524577083129,-0.04646820894720782,-0.6102025866693142,-0.12257556490797272
-0.8913244797716375,-1.399064862657124,-0.44317434230352737,-0.012668322398217857,0.0823719559389583,-1.2106933461957894
3.514658841219158,-1.1769633452719577,-0.3168244403394205,-0.233166471503994,0.2724073424851733,-0.6070816571326405
-3.34124404064666,0.203967891020846,1.0024917957747765,0.2925333967978027,-1.8448957043838945,1.3572232985824448
-1.9645685712281251,-1.0090313457211664,-0.15005241320807985,0.8968715837467188,1.581062413184446,-0.38448972091395356
-0.24278765889910553,-2.282588950651907,0.28458866062731336,-0.19309012678474663,0.7253945330880268,-0.6865113989110023
0.39598379512255677,-0.50714182465134,-0.16403053948000096,0.1257124781605322,0.18204301260852507,-0.18553916508001952
0.16284965119237693,0.15998367464757574,0.021423993214267356,0.27162384564210373,0.2970491641331222,0.48360899095933463
-0.5824233215480198,-1.7641457969098233,0.24297762210619764,-0.6982642135386851,-0.17412233140611666,0.6452460284991174
-0.0659701578716656,-1.8128046488646872,-1.040476471877338,0.4664644346245907,-1.3768869448387346,0.630241029293414
-0.6312489838346704,-1.8029980273268265,-0.14907985773227816,-0.3239682858270896,-0.5679932637470257,0.2103275259376858
-0.9265355591039888,-1.6322925666801398,0.789309581073934,0.0791507076447251,0.5698525593596941,0.4284830866958689
1.9001662124730205,-0.9361556696130787,-0.5867713252380315,0.01643719608781599,-0.7076323856455355,0.2895168911776079
-0.9813774354394608,-0.7599641510351378,0.22315862944316966,-0.014434284119727026,0.1692714533219026,0.574269269442773
-0.3677431976677905,-0.6842553708945005,-0.10547230406655916,0.4276953740133148,0.6555578655787924,-1.0899886499168954
2.440356429784172,-0.9211171570495444,-0.09414885004462159,0.4445375000181423,0.5828552173697774,-0.2577553824120993
-2.262135639339929,-2.438865384673784,-0.27452995953687614,0.36756019864563766,0.7051738544639825,-0.12935609594958297
-1.3850540590500702,0.5344275938400324,-0.6362224033111161,0.40285862884163604,-0.48876816259057154,0.7055162643383923
-1.8548209158781939,-0.95571505274172,0.1660949162478329,0.07651375666616844,1.007296691519922,-0.11687840263631133
-0.736848064889767,-0.6002174893046462,-0.9789452770388761,0.3937167567807315,-0.16129734218515487,-0.27937760508583437
-1.1644663755908897,-0.03826696842221683,0.057884092176669955,0.3672079142690386,-0.1338340251928546,0.029930192112569254
-1.5657194056733776,-2.065604067940754,-0.19064174016263047,-0.22548169064365486,0.0804204162905568,-0.44790143147994893
1.1315402965475219,-0.1914982454015841,-0.5515129008332001,0.37429349001002776,0.20214878557554727,0.7596245329703983
-0.6188067721143818,-1.239052439683059,-0.2779851317217189,0.19301052880132585,0.058186907263666154,0.17473551646479393
1.7315317439124576,-2.361097733428031,-0.47035498782608376,-0.053475177062062174,0.6901797466437363,-1.1406522390640332
