Gx,Gy,Gz,Ax,Ay,Az
-5.392453,13.190582999999993,-1.2948679999999975,77.52999999999999,-696.1039999999999,-92.59199999999998
-1.3338961107415825,4.470318182642537,2.759940030631273,-0.7459266423896554,-1.0800261779869327,7.861020940069829
1.7252071117689138,-0.5026600809802051,7.059894763398274,2.7195926081657724,-0.7389199269606583,2.013565229172875
-3.3568397400609062,4.194810017069802,-1.2364824315276173,-0.6823187696953479,0.22232405559165355,0.09383491138583752
-6.463677818472274,6.0608690307055175,-1.990877842593973,-3.2289101611471605,0.37718927545099856,0.5800404618642215
-5.632152464989668,4.029191007029287,3.1107014287926775,-3.6087725517569105,-1.0580651088126423,0.05193181176631661
-15.998064018207776,-20.912594188368885,11.327513762194506,-8.85153002908065,-1.1584209978821214,0.622892948665873
7.154805278510798,19.13870235199572,-3.364164494493993,4.341355815368928,-0.05865087317374251,2.9696195269909995
-2.691425526006195,4.971418233186279,-4.718014598352812,0.5369465705663106,-1.7299005767952598,3.3790545842011035
-1.100990767437284,0.5615249249568892,2.899338802291489,0.623153586254283,-1.4876099498721171,3.4128322529280544
-7.078154797928121,10.019578709862031,-0.6816175855094326,1.848219183472449,-1.121398541725596,2.9927549682981227
-4.519786113128028,18.725949717971428,11.3101714505725,-0.6138798513424721,-1.742014554710253,6.451666919949031
-1.570268340821798,8.910388909565556,-1.4110151072548296,0.9276179426807515,-1.9672537416539875,12.813672843541282
-33.31324477205508,-2.818587835504278,0.24601428821064752,-2.092354418819958,19.864358313530204,-39.35095440104083
-8.428490817742198,4.059116329579007,-3.20580159538932,1.0876326302653165,2.687913114146012,-3.496786416062475
-3.262910446171702,-7.684933887372017,-3.4147366596196553,-2.3592658984791117,4.266701801228248,-2.6903465937620235
2.5382844859818983,-13.832073690345704,0.3691409758618627,-3.55010353421504,5.109122714453532,-1.7390313134220818
-4.308963099223641,-7.025208723217979,5.204466258469354,-3.0239722151786803,1.1670435564795842,-3.437605193164428
-1.3117486244608974,-11.160439081900273,-6.833546450465691,1.35548652148642,3.6727019131595586,-1.26296346976669
-1.016200660569482,-86.71529620009105,-27.128685470215864,-10.143818434147356,4.659114766642931,-3.591802943167567
1.0829281957478138,25.479413305430995,8.963160203321275,5.7203879390850645,0.0257072996456843,0.37409212277076453
0.7030384338262077,3.4222407914807693,5.247097423176262,-1.1406543525330002,0.3568919828627315,-2.090201487950171
2.313492553207854,3.196093711087318,1.6296507532778168,3.1170316019986677,-2.9465964717118136,-2.142142271149058
-8.92299403288224,-2.8867876140280386,2.7666070062924355,-1.48175795939082,-0.08310198289467907,-4.8917399983455105
4.744980597596935,-12.096191641063081,-2.3219931038449264,-0.008301939645750211,0.2634382784820559,5.374777076954528
-3.7232864230188136,-4.24072385830077,5.0878483975617845,-0.9065078338598498,-3.4546270015275464,2.661254077108519
-0.30447091647624885,3.6822293622117535,-7.595255461620936,4.096177475989111,8.852568662693463,1.5222965736952552
-6.429565171256514,8.490187909089595,2.1343446642671524,3.0078225273455446,1.6772283779215704,-4.039670051077591
-2.0852704196265073,6.66506266022548,0.26997582110492957,-2.812668031180933,7.066981843158803,2.248954601422721
-1.7654364041971367,26.00435312947061,8.312628403689354,4.546388777969884,1.0292739009365202,0.5647564593960734
0.7379422486655733,13.62408258721593,0.22113081234233833,7.67122963509145,1.3896616462332694,2.8648912834093374
-0.019053801450348407,1.3970189083746754,-1.7517599623400797,-1.171869200622854,4.504001506584265,3.2789627086369486
10.490555090683763,35.69721516578832,6.09057990427591,-9.076411418381754,-2.137630084235592,-2.9268085473345917
0.873776918799268,1.3634478781864376,-2.582661595346533,-1.6901642126543315,5.4954189783668115,1.6419848657138996
2.0598944543009416,7.858840383785629,-0.20409641157004416,2.3931730230133454,-1.0507407054988342,-0.25608676145861087
5.29417099377656,-0.6465751345331621,-3.0487028742679687,1.6672923738435947,-3.6492474412719136,-0.02676234543719581
2.4004900171516916,11.507593282349859,4.222266563201809,5.691146031351381,-1.9736121177877823,-1.2101245340980116
2.15405919006733,4.905851343104496,1.1656539417041853,-4.293017289946253,-3.5386514098493205,-2.052596583337567
5.243866878872934,-4.95377087570313,-0.5531799194151497,1.095544821416862,-13.385276399856716,-3.726354860089635
3.7300741674664755,15.936558182895798,-0.11650931150665222,1.838829153958268,12.81356835672557,8.689957406116495
0.499518247356435,4.137681392292081,-0.6393542425247276,-1.9642832286779974,5.341161721205624,-0.395335205128881
-1.7638827463524085,-2.880253664838994,0.2583042351822332,-1.2598718949966778,3.5738676127223123,2.3877538254146455
-5.285440043545416,-10.09907750799241,-0.951226449560096,-2.720907695636358,1.7525665404673076,0.5047156880409727
5.4292085442356335,7.398857226149492,0.22569451647681582,-7.052498622220735,0.46406048361663177,1.7681360905157169
0.7279331786513925,-3.130025475019078,-0.22961047022080627,-5.050529253803436,1.944224047969103,-1.4116483813920104
-4.307251172400048,-27.53615576646155,-3.529758135782104,0.23094173710718513,0.9261136038139901,0.4481954880445147
-2.110283505893989,-5.637085307531474,2.6675961616677375,-1.5155632139129127,3.4223637501423867,0.882906894896608
-2.9845187412527987,-11.72083222991235,-1.056131075872492,-3.2477696367236586,2.327152848212736,0.08334822309949957
-2.6177982769407744,-1.6890852317012777,0.3131188512398064,-2.5293729621086936,6.658896954040075,1.3162648995889212
1.0579980841577974,-9.040239948582043,-1.0726261307986291,-2.4966074495051376,2.596034811474841,2.500367785963876
1.0261675100158967,2.3426895506626444,1.5625963848140518,0.7122904126671912,4.355786552709714,0.15666318739291815
5.804440701922596,6.481705780772998,1.9459004485625568,0.3660500608089861,14.29019126970269,0.8040355477172425
-7.159314060172267,-4.482830580194657,1.6074102886985497,-1.7813855169642383,-2.8338726370284517,-0.5141387193326663
-2.1884601454289445,-0.35272666977677725,-2.816568994496229,1.16743172553438,5.296620531870872,1.5047962364583594
-2.3484563022724654,-2.1881561669558667,-0.09314776313987794,0.9996989997807579,0.5579510547263624,-0.3790902285187844
-1.4223980050363247,-4.0079999446480805,-3.580696020924769,-3.3251455127440646,2.362635789396438,0.02973024259124199
3.118840928782128,10.68086269944053,-2.2790102824678353,3.327280587445438,-2.821842416603005,1.88576118073411
-0.31675124429699403,-3.9790177163928555,0.49706082664064755,0.8619436950721309,2.3461673069873332,1.1077146934816169
6.151913868165369,-1.3748633617218853,0.15307727339922012,-4.698633414047691,2.122226657905582,-0.44966631443882266
2.3715320163297022,-6.128160118696893,-0.23658671546490062,-3.394798424835754,1.7655728781822875,-0.5138180599688372
0.5030349761572942,-2.0225993842389127,-2.233545084280229,-2.664537914775223,-1.0668395384098366,1.0635553486720077
-0.3303814179559033,3.78487220814037,-0.7063329979980748,0.7974845517878367,3.101933540760471,1.261434551747135
2.44670368618309,2.5613213750228923,-2.874679115190076,1.784951787473252,-5.152354538687872,0.2512650233984194
1.0367440105098842,1.5215679027336324,-1.6191827058949917,0.8143702586037198,2.684087190857124,-0.7794305106202275
-0.8785579892087617,0.7383115628834322,-4.557233752015728,0.46625352699199596,10.674949578610576,1.951813648657506
1.0222165102080447,2.3261967372398438,-0.24509519527405615,-1.822829258655402,4.558116156417794,-0.8738498367389813
-0.5118416308506575,-1.212470683044869,-0.5971731937374969,0.9563708713271948,-0.15773825196169322,0.49166798742041773
0.7720905415514626,-0.5842354211387224,-1.9690117727845837,-0.5579460313966701,1.416119966199281,0.2453511298551952
0.834118033931112,3.286106017840455,-4.738202649292705,-1.5186482054857122,-1.4705323165794115,1.0271933425189252
-1.0912696997606912,-7.298883992178017,3.845374879731877,2.796674245613953,0.7586270426475761,1.3192524478809584
-1.3636440041470645,-5.913527552225602,4.788780302293786,2.833475958825205,3.1587602256379106,1.9945209800048187
3.066907157951917,6.40195169468258,-5.860211972416176,-1.9735545494800926,-2.300589711793651,0.24246203022530655
1.1463008071740606,-0.08694851409915927,-0.915089534575785,0.07822585612961686,0.5207243861196114,-0.9912631788881928
-0.6806736898773758,3.400773830465334,-1.3383550652720833,0.018229046828551088,0.725835129756738,0.4858383112617373
1.8461998813287683,2.4245363776853996,-0.25598726178148806,-0.255461273803073,-3.755213449444749,-0.2610050400364712
0.8388203826847154,-0.5377741025845532,5.739856111152002,0.26823503486908074,-5.353335985904604,1.7039867154071282
-1.7058470732042827,0.2733631818438098,-2.1170230157236274,0.29303250109158513,0.5628603664218825,-0.7752882762362574
-3.2642746497645825,0.5120277807070686,-3.7700509968875258,0.058392658169164426,1.1861924009710063,-1.847692705394934
-0.41595587187668964,0.7647572565873584,0.032568695940520115,-1.4494372556723696,1.7321526961486928,-1.3315578324835182
-3.0823725505852386,-2.8557530404421243,-0.9736718677119027,-2.360303921412214,-6.585715873308896,0.6646625883456375
-0.27247224320631014,4.000788432034501,-0.2229108857896858,-1.0136579988992203,-2.24783357989787,-0.6383287580443349
-0.6709520165872086,0.1385757893301527,-0.19480523740093714,-1.499678332603958,-4.015935991149844,1.521101198157818
-2.301069799323229,0.26438176719837525,1.0749052207300553,-1.5806241296546366,2.8047702841422213,-0.9221881736305041
-2.723113993112027,0.06449357643485953,2.206011122694474,-3.184542439554797,1.742022735460084,0.47107847772700856
2.2626206262728124,-1.2018998208329452,-0.3637031779272595,0.6002157620423794,-0.41908860445829,0.9339687860077555
0.8256553873099944,3.063067784077478,-1.8410110138215938,-2.1355344545154478,-0.984947934066585,-1.1539734315057333
-0.8798479939621873,-1.8470106534727286,-1.223757441213617,0.2229227980269971,0.9263766690958893,0.8274004539413694
1.1272409007651283,0.33370043071087735,-1.4236038788715808,0.8759065415625752,-0.24365886651505123,0.412901090485131
2.4173523984677043,1.4491431233061824,1.0907943953974368,0.4086428140941033,1.008577361053958,-0.11223838483217974
-0.41767627653845296,-1.1936992635953574,-1.4619576833173509,0.4876891902934731,3.1096224468657687,-1.1329495331240094
-6.54568062004103,-1.553553408942963,-1.9330191018923886,0.25297234120407575,-5.496213286727539,-0.9484232294664064
-1.4793502151230897,0.9470537089927029,-1.266563390004451,1.932633347099457,0.16040178128312355,-1.15006976960437
-1.5794743742398893,-3.1209781178974816,1.1908166786641774,-0.7409012598057958,-3.878517457034504,0.7816723694353787
1.809556809775694,0.5083831808995625,-1.5356159451475941,0.3830124308987357,-1.1751318258104502,1.0419921849343576
3.5658639600566358,-2.654169211039151,-0.5414343308505473,2.3273850123893025,-0.7929287729224079,-0.048305443247370544
-1.6742365806265753,3.823655029582761,1.7258428234298253,-1.265187923729687,-1.8429001923444155,-0.5069749262924084
0.6115461334100907,1.70807985461816,0.3406576758789832,-1.9271793901682843,-2.4020543537097288,-1.0726269009029845
-0.2835754933613084,0.8642809331888079,-1.0933458131311897,1.8232961956898905,-0.9271745099097821,-0.2991245071923596
1.5201548289401372,0.19729019562917877,-4.201660787356554,2.248585236935756,-0.5434824044924489,-0.5709530640764467
0.17366607917930232,0.03459815029690158,-0.3262243237983824,0.8077200229013587,-0.22461361029878923,-1.4029901051695868
-2.250155107375385,-0.7226336704501087,-0.22718575916885492,1.1801324985240857,-0.9337506744842398,-0.37095764467006764
0.9573482650342258,-0.5418233258980082,-1.0980322449084405,-0.9945173680588059,4.513408174815294,0.008953258184099644
-0.4484664308726475,0.172779587122586,-0.028041551157768338,0.02255105690242576,2.3449727791774224,-0.8115321156902433
-4.8758500091449575,-0.9490296198346373,1.8525961451104862,-0.44172033855979165,-4.973030139054552,0.6025369177592916
-4.4625483765735945,0.7142250050377834,-0.23626382859434136,0.5085204864225678,-2.6262562836675145,-0.9755564452386603
2.0399528234550464,1.046688863460951,0.3756581458747128,0.6378679169609438,-0.11768932718980413,1.4138326170274342
2.694153459792915,2.4433218344542875,-1.4201967955932926,0.9532979480309695,-1.3932838087623345,-0.4435520387653138
1.5655740548669295,-0.5069966733911326,0.12432094714802844,1.0773406347076797,1.8370652458608103,0.25438191037688096
2.326344374089599,-0.8516846294279315,-0.11785177766328461,0.36701298197192533,-1.4407158645873877,1.143869072657028
7.412694167337233,1.1804533510407207,-0.9100189142051215,0.7801299590059316,-3.9779026945111333,-0.3649481701460434
-2.8313925851017796,0.3628540170082528,0.8157329112750069,-0.6882924269834161,-0.9565141039069833,1.9755512175664895
-2.1590242815015945,1.7423789825052456,-1.7196550544365459,1.4269311360262433,0.2886047684576835,-0.8330487946520968
-2.1251810002719305,1.5748907557319973,0.3074480001610591,1.126826631134467,-0.6439970264513946,-0.9998324944003765
1.05660554192451,0.6768051347155589,-0.682561074388119,0.8045521218182563,-2.2525921232550408,-0.4132203727477439
-3.5757654695335552,1.0736332843637308,1.0087610032674248,0.8647350652766137,1.0036948805541241,-2.7034307547684273
-2.628471192851578,2.583567966722711,-0.5772512002151033,0.9987941964226301,-0.5751147796549311,-2.2876722556002314
3.138254157306714,0.13811004780101252,0.4238117086928959,0.3732306371062704,-2.7716694586527244,1.7351828958027142
-3.312554825317445,-1.6560729955355173,0.37958838066307127,-0.3644114550186517,-2.6199488505690107,2.0372216578907807
2.808583970527727,1.3055382344646713,-0.039730035304916755,0.6271484997407016,-1.6706967132129615,0.315028452548056
-3.1632644816781017,1.4174996835111529,-1.0926347502719265,0.9628865156538167,0.5308687030099726,-0.8704660540051384
-1.3615070720888296,-0.3651501228308143,-0.982697539259025,-0.03295573134995201,2.4770319025686733,-0.1139276422551732
1.2286534985151902,0.2263549890571963,-0.1307357013869024,-0.056219476896586525,-0.5729238588443153,0.00852132322686161
3.4579337678548776,2.117688528096409,-1.0769297314347952,1.3060745373639442,-0.5912703348629238,-1.6323193568082361
1.8894505301301199,0.13642601682339583,0.9392914730513544,0.33481403743523735,-1.7489736158017464,0.41076130700041
-2.6476544477353183,-0.7372818189571564,-0.6807793775669541,-0.6151627318899505,1.8805543133907907,0.9376093025593031
-0.8565653551009909,-2.829971907593088,0.4900611439149785,-0.11334322469836303,-1.80223432486892,1.7740410936911681
0.37703258509433446,0.2336146960977653,-0.6631866413793122,-0.0764974742566351,1.6770597035683084,0.5966565454922993
-1.157562296182977,1.3059329646392208,-0.3435388475742285,0.7876104167375844,-1.848597758174388,-0.4852680273799167
-3.1573716111974885,-0.23842696217445725,-0.06628525321505899,0.5582456191373554,-2.353654099591667,-0.1644399649646608
3.0412736785134715,0.8540400364288119,-1.511462283319527,0.7538327237754083,0.7886845933658208,-0.20345882134551563
5.8959955493745895,0.4942974727809305,-0.6764235627030828,0.4288642793734653,-4.370131458132779,2.176450856071138
3.3061131306412737,1.2573129391514788,-0.24271289154493364,0.187207616243235,-0.7562582800400206,-0.3057446600959492
-1.7079141139730514,-0.4579033330213593,-0.1462588741683009,-0.18774473156650573,0.10839563423334164,0.5134118612349325
-0.58155896998706,1.7291347268640123,0.6074819180085494,0.6986481550684291,-0.3330252057747387,-0.9809900178631591
-0.6363783107839711,1.1659544732167841,0.2814272604504446,0.16352371439257693,0.4630342374315476,-0.9811043360068127
-4.070489775003075,-1.9218190465197744,-0.9266416789876711,-0.15576331040258945,3.096387580928942,0.24435060273293113
1.579453864883468,2.7243505444899547,-0.3107481610093978,0.481361420379784,1.7776728976206995,-1.7937221831779344
-1.2970087972083773,-0.3031818922540177,0.20100959843860203,0.19047354644120176,-0.8268396274670038,0.7684318310957047
1.6574344595021828,-0.2987561124374518,-0.5752658022514369,-0.09516889655285296,-1.1578488316776059,0.9568643815223794
-3.2356608072988844,-0.5357682360155556,-0.18264726683741186,0.4704576597364716,2.3331874459155566,-0.5435459305953336
0.6678370885979812,0.5871900633053482,-0.04963609752461311,0.5794701807089644,-0.32906928898452037,0.800182916045004
-0.6606020338429776,-0.729413680118879,-0.5047361307905873,0.13640213536165716,-1.879828316086583,1.229364258940992
-2.2584095556786954,-1.184196344694915,-0.23408114093678267,0.3526894044082534,0.9079911847836457,0.4400757658150928
3.195466503367015,0.5629247618251282,-0.8618250405408009,-0.2069282330335277,1.796518817393907,0.027138132676965854
-1.1735877737802232,-0.25495386219614435,-1.0774098809682722,-0.17023695936077937,2.1228790977422936,-0.4184772590179594
-0.320349520860314,-1.3282731899231779,-0.4298454135373692,-0.22995242266968546,1.501342009623119,0.7810558737817735
1.1781331727914766,2.461986607832499,-0.6212676471924409,0.17695524434225568,-1.3764933396413235,0.057394628318525376
-0.28845187423747826,-0.754806734277476,-0.0422455609954111,0.3166693195480585,-0.22106364670571757,-0.2563321771568997
-1.9094985055349314,-2.051586297213082,-0.30083925045027515,-0.3653615723020629,-0.6629809179577085,0.7859461027903921
-1.424090848903714,-1.1678569597634123,-0.07577398200839831,-0.4582364813048028,1.8819921573228426,0.9398105386195265
-0.18977527542680872,0.9610727428340926,-0.7134876151957632,0.36027592083780635,-1.3286739442167352,-0.17867615152416144
1.3994046132705718,0.9236424361378625,-0.13883465716810467,0.14984226023357886,0.7416083091506496,-0.08915876491109781
-0.3093087052479311,1.6508656817272773,0.31840727406568425,0.30827198797784056,-1.6885948771682067,-1.1946091581995184
0.013861648773283004,0.40317262218736233,-0.45592356748108814,0.40264001748943434,0.6388392116679449,0.228735580261103
2.8897442967282783,-0.6490827613237548,-0.2982154854170633,-0.2714643404351465,-0.9587192427888636,1.7038353990216657
1.069427193905982,-0.37451140039267944,-0.577352247128553,-0.09409484765328213,-2.402821285240555,0.9775700432789657
-1.088364534802129,0.21126138787851717,0.3602696177831991,-0.20152128083429782,2.8445446117316076,-0.5741073739630246
-2.827565457342518,-0.4027027544889532,-0.12066207866739428,-0.34675310661311093,2.5790325360520496,-0.37635289455740717
-0.9588863968609523,0.3171151228128547,-0.11534817723066293,0.11948292624204132,2.2506862740307403,-0.8002995195779097
-0.5489123439296448,0.09910097495130132,-0.5766204537688198,0.10331655304056439,0.28570878347179557,0.22262785706957877
-0.1245304564040441,-0.7716254450841571,-0.6618866014016616,-0.2629904379996608,0.7235680679098514,-0.3597604335647976
0.40503499633822837,0.7136321011963054,-0.12405127544195466,0.2710685403370106,-0.5266630058675991,0.05901839875898601
-1.3790827002184758,-1.7632894282259521,-0.7273964325395703,-0.13791708097545774,-0.6762781858569257,0.925832518900684
-1.083469799796877,-0.395487296736813,-0.8678974330207602,-0.4622982303426474,0.4184803886800612,1.1739104232370152
-2.3321028797649896,-0.14604865194321168,-0.07956674602221497,-0.02327808408631385,1.9781868694202052,-0.46185711487462067
1.610892511215405,0.9359196571507642,-0.0297478350594097,0.1217304946824152,-0.9310766421891112,-0.4268122014142444
-0.5823095620393214,-0.2803366988153334,-0.3880163225981744,-0.08181609354146757,-0.13506193107885794,-0.09208429185192324
2.4052402807798754,0.4046923735778119,-0.06859861944733843,0.009261411192373267,0.6524320582919099,0.47146978944014095
2.959783259901623,0.5610316943360828,-0.08067735094659376,-0.2204070993234986,-0.24308629201915977,0.5070391346035243
-1.9838664289435233,-0.34899789797006825,-0.43536545916855895,-0.002608332905173833,0.6645977370046373,-0.677803956229199
-0.48786300371707214,-0.46121694707321886,0.3873314011178175,-0.15446810357001017,-0.6155281066266511,0.24458393547578966
