Gx,Gy,Gz,Ax,Ay,Az
6.140695000000001,3.6211260000000056,-10.468599000000001,-22.697999999999997,-546.218,68.968
-3.1057176423888797,26.443170256179005,-1.365548424067382,0.8091497412535933,-0.6980346768356686,-5.945384714565271
13.409723232186902,13.540725844872076,-12.563171565909585,-0.326810892837059,-0.48409878951851815,-4.976214234210591
-0.9741184069322801,-17.046335011891568,-0.24412933662965353,7.780230949723,-0.01306008577643028,3.030103282708459
16.419955711378876,-34.32547815733612,-0.3440743199515668,0.8675457975624166,0.5155918156198702,2.9365871225935187
2.358317454293327,6.2964560035253525,4.654125343319295,3.0436917038877516,1.8064451808538355,4.734513298742872
-45.67158570856664,-255.5792445762179,51.547422102539734,3.026527936794839,-0.1896595753363396,2.035362519015338
-11.272084793474331,51.90147972061629,2.7701077359085415,-1.4176108819218909,2.9216624614614375,-0.0394400415485503
-0.5003494638664574,4.457316970268623,-1.819029284159098,-1.7660313032355996,2.626008985306596,-2.17079603514739
19.57761729765412,-2.854486564269514,9.0686326976892,1.7936880366688226,-3.898407343022548,-0.8467434610570048
4.422161942804222,12.972162573076863,5.071687859304751,1.419076524881075,7.830218546102914,-2.3603150575597556
-6.730576752609721,-9.411987576587908,-5.561077584131538,1.9893930134559925,6.024846239951052,-10.81016032775895
-5.414365219544327,3.3285389636687728,-30.361794713917007,8.773360969600553,79.81161857709773,-34.622858605889014
-7.5796524974493975,10.878350191756121,0.2695194090523958,0.865941810771691,-25.815737671523863,4.216775723837981
-6.540409777363083,-4.583052941664713,-22.52264261606751,-8.854433775815268,-10.644416382208663,11.292910507659883
-7.601314535910346,0.9465045873505016,1.3466888451852097,0.5146900987156124,9.366421683802974,-3.1420476588482047
15.944379600636735,21.00617342140279,17.74393852869504,-3.6102616075537823,-3.600420920391051,1.544671702949592
2.5573887041707475,-9.877106911272838,-14.82509426800867,0.5136489322623066,-9.17263418406979,5.849821029023207
-0.2324687289134144,-25.004850545011994,26.719097760797894,-30.11603178120098,-2.2814819538580857,-3.3007593713527372
-14.161632204786914,-46.328051273743455,-42.85883333579011,0.633268854026646,-2.718993229445921,0.8550060619044384
5.375578558175355,29.298317097101204,22.581631089896995,17.10528934359312,-4.557828465088284,6.910211798015689
4.808644778130218,-4.516018495476218,-0.10062677355540274,-3.5569690543031696,-3.2455805501284796,1.7304285691252836
12.457925706180083,4.293223864657145,5.007099291871794,4.79619511155455,-1.215065570975447,6.62953257735358
-2.9661512951199587,15.790575650841259,3.9559518847353115,2.5076531147783756,-9.48663636344317,14.585296308835936
3.1919461478973963,24.453678044977185,-0.4086256900598766,13.066617772636405,-2.3988158630087177,27.342590981203852
0.43165583006885355,-11.877249283374859,4.890104769161872,6.492995279045816,-5.795815561090442,-16.111333970387488
-28.580782187490513,-0.607994864269652,-0.34761485684793403,6.402684659652606,1.6271203545983641,-13.468856855108589
9.556046052779518,33.167848030083285,6.513810671808973,13.773570276041626,-3.2537312912452068,5.470992743169655
-9.176615699005254,-36.797552569530254,-7.2840512029542355,-14.893671791533523,0.23388322352226232,-5.878073841010158
11.106547303906762,14.129151365203736,-22.34446682670534,30.764709650299267,-4.262772538337787,-5.557179409767402
4.915732743933039,-12.794164647439167,-37.21483613619614,3.2337780816791577,5.4220781046289765,5.492623738883847
6.437070279540626,10.684959582147517,26.053714472281804,2.6800086839750286,-4.887099175396649,-3.3392677733393317
-3.148627736950508,-8.693039209392468,18.100393269424274,-12.207201103263928,-3.8266788689520688,-6.945610745073091
5.411824701261829,15.89976484764826,1.0048013204460677,10.4713172852268,-2.838020111723636,2.0482221132698566
-11.05994819983278,2.367315060307213,5.432183731420453,9.51452359870629,3.4307203130549224,-9.192977085060399
17.67800496427614,-2.1457233903720336,7.430121249790864,-0.7513875619718067,-8.952528625389895,-11.312205215960045
-3.1927457450228554,7.071893225921585,5.589153295876386,1.6053032772417937,9.852169024171086,-6.35923280854615
1.0879613988931376,0.7504334756272292,-15.087799528923142,-18.622459856639203,-6.283830735545301,8.308808773911009
-12.055685927694697,1.7424193569494282,7.448380461712766,0.4030475572909281,2.9126139502724047,6.007593568679248
-6.490674827162108,3.6544165007784546,5.043133966629733,0.754109825571363,1.5676482310703275,-0.9729722086973287
5.614311283985051,0.9175170533924482,7.364539111709009,11.994328108106753,-0.8660193026566991,2.3024458021192684
-3.347053343494423,14.142706143943311,-5.089854672660881,-9.18245026251737,4.9838212845381635,-3.8673340624079584
-5.400593764423562,-0.7977970479375398,6.58742669195032,-4.88216836452621,5.919735212506453,0.6629881764390149
2.8295186386082403,-17.855547522703045,-5.67607841974359,-21.103794420555147,-11.26213997826233,7.827767270844477
-5.830728333128041,3.595876029320642,-10.447910756856407,-2.9434288925243193,2.9477154564878854,4.111917566393624
-10.250206943735245,-6.878602456347732,5.029916706060699,-4.91625675399122,-1.9022356971330208,-3.6024782289939328
9.223277228904514,-2.4377830189066807,0.40506214211687563,0.09451097771483175,-17.243004958281293,13.6332403807012
-15.922639397429226,0.7633256209638908,2.3138768963967333,8.881987742985817,-2.2967765171797936,3.867376948959957
9.929207221481219,-0.5940222531676151,8.925021360290746,2.6020307762820996,-1.758271231205529,-0.8695900938623944
-5.52331176572079,3.1480363756402006,-7.285676999600666,-1.6757791049259656,21.057556958056438,-13.037535959582899
9.179841611320027,-3.6139452742139637,1.1697872568925773,-1.0472402574696336,-7.892897484324678,0.8486131145854072
-0.15779081744441248,-4.9930927563310386,-0.3374037860886877,-2.661141626280789,4.555503491320743,1.118316645716627
1.2325755904896383,1.5457666058377635,-0.2348407851194274,-9.956339560790587,5.912422840368837,-2.830894279011816
2.59948475992044,1.1316270483789284,3.523707306204516,6.2221693857394,-3.839960206325131,1.9154091138012026
2.6407770197137297,-3.571104316317742,-6.929518032388859,2.4015279847350888,3.3445887060479453,-1.6977675231713363
2.1552473202824602,7.142406092313964,1.6719794744901009,11.045106857234666,10.785765441349849,-5.951316667997707
6.1215989677448395,-8.556644446678744,-2.903603437205185,-2.0887362810539383,-2.6272887993404153,1.6956427558547906
-1.8041267039220559,2.0766912688388643,0.11315952127330542,5.45532928479806,3.2959672941941127,-1.9166345411641013
5.062159174981609,0.7305282989415596,-6.271344844819002,-0.25524118778926974,5.673806362045312,-8.472807532850512
6.52361649005785,-2.527624439031654,1.7194158233197987,-6.158367844362459,-5.13624126325808,5.874300555352623
-14.575031240604183,-5.630907760152997,1.3869006139402638,0.30596903080613025,-1.597167845954503,2.3160290423158383
-9.944010869614708,-2.5272391946111625,-2.6913597517149994,2.117141571533901,-9.381407669713703,9.01184426789521
-4.419538791437928,2.8153073792632552,-2.1898143332622912,-0.006905543632256261,3.658221749463687,-3.677090446675385
7.752218699088807,2.9292143096276275,-1.3530223837878257,3.3269769465556065,-0.3907718010115715,0.6846580368999463
-8.472639562467752,-1.4377047971012544,4.201912636257379,7.326354378499428,-3.752563913256621,0.9347362378914634
-1.0709302448432236,1.5449935851955345,-7.482908374189105,-13.708452104703202,6.144252336945622,-5.602553955282154
0.7812066138638215,-0.12757029422822974,7.8953023958932,2.0079387495750733,-4.2415667959988586,-0.07964831279512063
-7.461096170704726,0.05328195994359852,-0.12818330863225658,-3.26167193440879,-7.978943649151053,6.383569040620993
-4.842253780088985,1.6920520250683762,-0.9199669374819237,5.698710998481318,3.61310228077991,-2.083428441636472
-1.8686865091540037,-6.840201713243053,-2.939588283080795,-0.41729600784579424,1.1322472161906445,2.075784736707143
-3.8787671433297524,-1.2529258468459836,2.4481470633942646,3.608088356731835,-4.0855559681125975,4.712358259317448
-5.552997444384529,-0.5998092860984867,0.9500538123525317,3.6049342089865366,4.382901730373561,-6.457148296917062
12.629726604690052,3.619396797877109,4.213957301246669,-0.5684038179450743,8.728959422161488,-4.5858219304026
0.44628369296429504,2.333613877004562,2.0439335450638576,-1.9936186774140623,5.49441466125164,-6.111889594569066
-5.282162708257601,-1.1197067524404156,1.8760549226237153,0.954657572277541,-6.424586448819596,6.46019716844592
-2.6803941266235185,-4.2327108413991406,0.5920991524637209,-3.980152114405616,-0.7831886250875293,2.7513322180558744
5.167351977300827,2.0588778574958377,-2.338552207040115,-2.298578279799355,6.979691258412339,-1.9801003101299235
-2.932094634403404,-1.9370709734065237,2.521780215895927,7.068904555843238,-0.7058338588851234,2.6873116335102725
2.3805783778817684,-6.836601055436574,-6.892290811925452,-5.074368572991739,3.7101083990770896,-0.5885257924985139
4.343643966963444,0.7570084187963819,-2.211189070674819,1.7643851618118878,4.69961175646775,-4.501645361024956
2.4774408898556155,2.7131150155479133,-0.3372022415687985,-4.8288591709339865,-2.3216654866696427,0.9304347563851381
1.1444726062534312,3.0598988559841107,0.8264966729026078,1.8722518907922518,1.1293393060971795,-1.585891025867019
1.3561624147015667,-4.233605294982565,-1.400904039688891,-1.2292494964547274,2.6853943558700064,-1.0220861137445456
0.8695413911692682,-2.211994922541482,-2.0030407554027696,-1.2035036397663361,-4.118789437906454,5.1351808880515355
-11.854124064422583,-3.8141740081405056,-2.046881119104583,0.462949731277992,-5.793352127651048,2.478573360631124
6.263349383318123,-3.7158667220401504,1.4250515844663278,-0.3471551395382584,-1.167542339791562,-1.413650336840481
2.9847312087556137,3.4951832979635853,-1.0639855754941303,-0.7823146515527832,2.901987073900125,-3.8121356059844516
4.581604028965497,1.6808219110286353,-1.3219315030071468,2.165599568441439,-1.716615429118145,-0.09873977654820398
-5.215133766637413,-1.2442617411212817,0.6597932196731653,0.7692869463426235,-4.07290644093482,1.5240343932908684
1.747799470035596,-0.8788431011805291,-0.15001902426720815,-5.466787377699133,0.7767224864885243,-2.1261683938729297
-5.075534513404285,3.828009263047898,-0.29507356532285467,5.509319424188565,-2.138705780628933,1.1181907674371372
-3.7177635000000007,-3.973457499999997,1.5446199999999988,0.15000000000000124,-0.30099999999999927,1.8300000000000014
4.360385524723666,-3.135357145535937,-1.9146467454759073,1.7341141515937621,2.1155245545345926,-2.054149486080429
-1.0931021682787567,-2.827086359381403,0.17930532624801437,-0.32369588710592656,-2.531411944119016,1.6881553596404064
-0.39048652840912634,2.4895511399027255,-0.2726605696609363,1.4524674261912327,0.649912236443833,0.15934967652041632
1.3784121905642457,-2.2786352846679674,2.061678401225622,0.019047930363069066,2.8598792817722316,-2.2575548385330224
-1.6856479432791716,2.1689641959877806,0.38770779761738705,-0.5791771799112013,4.6964242023623,1.1436313017729618
-6.178954482634326,2.017986027882437,-1.264313208253828,-0.5796887400733528,-0.789733533222885,3.090046246714682
2.4952848013391122,-2.887907098172635,2.37278080973711,-0.8029321193062224,-1.05663388465923,-0.1103063387549259
-1.8538940489067381,-1.2396435380424848,0.5538839585954007,-1.3696488381021217,1.1861147948643158,1.3885026081755951
1.762865771518804,0.07827659612364657,-1.9205323967679135,1.0572451624922472,2.9952154944267586,-1.0701605400352754
-3.7978541191733837,-1.0345405506727805,-0.11242896749567005,2.2485571146332997,-0.4893096833133397,2.354150488444534
4.440883852346288,-1.6242319712638307,-1.348973782063485,-4.025036768852694,-0.24847950883562775,-1.759739237666662
-0.17905761240714402,3.6313068965092055,-0.9834846130148942,0.038737856863765074,-0.2372321005696132,-0.7050962283489435
-4.184693203821997,-1.45168077868737,1.507847463610394,-0.05439708835440227,-1.1643769411910867,0.5254338464176592
0.28492708466657346,1.4593411186731282,0.5188290326388252,-0.3430401434145667,1.7103083238003958,-0.8800646610361978
-1.0124793221497423,-2.9539842695772145,-0.13577856491495677,-1.5498089733685911,-1.5092202347655674,1.3004477796985028
0.8663450392024084,2.011186275784339,-0.48499565152695334,0.983379690603642,-1.5216056550098092,1.3586978901802533
7.702318404076036,-3.125322307058344,-0.1637385989421114,-0.373019721852887,-3.430031814640264,-1.548134845467473
1.7680951184206948,-0.3103854561395205,0.04593857785333966,0.40768569759338646,1.71339565267589,-2.2207556787849594
-6.902651358727372,1.5740750233262752,-0.38037125695500684,-0.5882373750128316,0.9871597355736301,1.353210761873152
1.8620167155290894,-0.5024096818542652,-0.1572512337081835,-0.4786428166298262,-0.03821773205655732,-1.5133621955170797
-0.08494880330892096,0.19881967092593644,0.35828223937034687,-1.2098552985802118,-1.7325701282224761,0.704874368627362
1.3490288071407357,-1.683803547169147,-0.7209762325026867,-0.05061205822467585,1.2947519116456316,-0.9046080090972186
-3.6860015106271495,-3.1631122859146803,-0.4400664351144168,2.4449593216857703,0.30398849151439755,0.5919865596948304
-0.5499636582017147,-4.585513013000803,1.0274124120344919,-1.4672891913711559,1.6325065089205009,-0.2659327077223621
4.115846808607719,1.8744671497761145,-1.3774890289142339,-0.43481006494717,0.42925715888769256,0.12179546316414647
-2.8787174518365757,-1.4630914610883945,-0.05253042943523356,1.5212658034272735,-0.373157098700581,-0.3725375904285549
1.310167482462533,0.6625430777636181,0.7599601727869394,0.7806925231250841,1.1326558870548382,-1.267105729446714
-1.3958864917997627,-1.6677568116803085,-0.6830823199570069,-0.20743335747144553,0.993483012099615,0.043823011155135205
-6.170541494061956,0.8963264982327495,0.2063761307896037,0.38992084983936404,2.071256543839755,1.8903371039709616
1.2136226688215785,0.22767509904570954,-0.42769275226041037,-0.5664968636153125,-1.4395746084448247,1.8772571989301197
5.614560563672253,0.1948471316167919,0.050083456295305084,-0.12218608139578091,0.3974646477678352,-1.7068560738594583
-5.2930817433578445,0.7647053551057823,-0.16434138663558429,0.8316985139180488,0.22864781929543798,1.3901895075572037
-1.8625780418726832,-1.2520765635404978,0.2542205724705955,0.6226472189583125,1.8369873262627208,-0.4399010120083462
-1.1420808756309966,0.49364692297233503,0.7818009940101982,-1.2941576003315518,-0.6537070252680728,0.25682077367669054
0.39857316201827864,1.8371920965491653,-0.18480023380015131,-2.1381564514720863,-0.18301194999757087,0.024327710053661633
-1.3150584688524702,1.0237521874104654,-0.3828459477084549,1.075638844654725,-1.921874508574024,0.5649161195097259
0.18386916277813548,-3.5913043804847016,-0.1746778253771114,0.7689088361566317,-0.41858149814942514,0.4105170917730585
1.7775128235903865,0.41160602259718293,0.8033722882317652,-1.5494830878892503,0.9429315074490587,-0.07820249719169725
-1.4976859798292703,-2.2296617656335767,-0.39616189719177153,-0.20951154642932845,-1.7279020800977385,1.2364226953095545
0.935491470378488,0.8512239323883005,-0.45319943873730706,0.8051306233813951,-0.5299149497791937,-0.8737868881159789
3.077236230073928,-1.2360171080763789,0.38754764173903455,-1.0834319606150558,-0.8891102272571598,-0.6886291301523894
-1.9171551856815996,-1.5540766803748272,-0.15107593188519808,0.1548022943542634,1.3853305282285353,-1.0808912239223123
-2.5870016912995135,-1.2335308467592987,0.2586013366904695,0.21696139239087137,-0.8158945316932378,1.2815755604245873
3.416032874206518,-0.7672815493753753,-0.07990538812768229,-0.41432743132567984,-0.36288774431285953,-0.6660323771477878
0.9940939307235672,0.15626312698866518,0.9620070794567134,-0.5455586190471999,-1.2334281834615175,1.2485555372768633
