Gx,Gy,Gz,Ax,Ay,Az
8.676530999999999,10.048181999999999,-12.518698,31.380000000000003,-505.05800000000005,43.446
3.4275634833142683,3.251659935317795,-13.483848182591254,-1.1292087109830475,1.760358072639282,5.080846317568111
0.6290041739132259,22.53395466090459,-18.192604562011564,-1.6692378042465097,1.8774044789142237,1.0076259522685633
6.27187246252333,29.928463836052206,-19.88615235518077,-4.606950940541012,2.0174687734702235,-0.581607936892957
1.1840579127844233,78.05724262652537,-28.66370747428129,-3.9528953126774526,3.130588684748295,4.905835869123525
18.66530675421183,-80.03524342137474,46.4789684291898,8.586440741319967,2.7909446751732263,0.21187938486069147
-2.3423737540602962,-44.41261666272097,24.861714230305008,0.8227868807348173,5.098979240811261,5.212768208956411
8.47926557520225,-13.429658351359471,8.559473318645136,0.000598895396742738,2.7500760242664386,1.3849452659809822
-3.8234868344476567,0.9914269362123913,-0.8461616875920064,0.5927630883748465,10.014035510697717,3.770392311985236
37.45813945565918,7.1087881248270985,-7.743605615449926,-12.122347830432703,11.10433223630141,36.2952593534758
-3.386787522544697,-10.663836211158245,1.8464688479889464,10.58504166060913,4.237899721592844,-16.90438385218636
-17.053897814378608,10.385809698843655,4.177127763319797,2.614268637627859,-7.952477166082982,-10.195723180361496
-6.398537625361249,-9.560710324031941,3.2734338200314705,1.0747399366747405,-1.2887101323723749,-1.994855706936339
-0.005236779716320972,-1.2745207368408202,-16.986146817369477,-1.0807695224995857,-6.687488086212365,-5.852226002449145
-9.061671760369887,-28.254659522212783,38.99898962353926,-8.663647749384463,-3.622070620479454,-5.789916779559493
8.246245230305052,-9.910036619707023,-15.328808644181203,-2.655610992599246,-8.21721900718094,-2.507425289188646
1.7618317785516087,-7.182875849016199,-12.312828646223569,6.028806698937249,1.1957844233638146,-0.5708204314264925
2.044395760870825,10.444563320293678,-4.34234176464785,5.664620104589151,-3.7282452891624054,-0.6239194561147081
-10.155843025022499,-9.732381832643103,-5.976322594173299,-0.27363179099517865,1.1247303106013145,-10.680181330851228
5.054599662300499,14.872253026750549,-15.37608504088256,3.2660356683309586,-11.773508198233104,18.25066551364588
4.063098695970843,5.7538685538876315,-10.981282317143524,-0.4603787358959721,-6.6920815685139265,14.138490034183757
3.777453652178425,-8.84150004507189,-7.240695712204386,4.943988019879356,-6.522558575459394,3.013881889077907
-5.163921810923338,3.6041305700078174,-7.874764343349584,10.528058298430153,-0.4412781494630805,-0.6425069536352188
5.96962505994212,-38.78406805705809,-27.05545865894774,-4.216414056609364,-5.7090432348713165,-3.35414835282665
-14.375164440571002,20.090405251414552,10.02093865385609,9.234077975863356,-0.07322383940940291,-2.3654111156009336
-15.493519697617916,24.726227646790207,20.169207786113788,3.2575653624712864,-2.5366546619321335,-1.8233201968220973
-6.873128225188273,5.4789831833455995,18.24779240132386,-2.944516359245156,-1.775057741376703,0.9229191930619594
-11.108404877655566,-8.019687660595935,5.903021212873368,9.326823205153765,-3.311219099185142,-6.928869237184226
4.001052991388765,19.25970162694604,4.091198795675517,5.700905940756707,-0.3511952329807868,-3.468847978096052
6.587621256168002,-7.33960124772342,5.81061075977761,3.92609137633218,-9.582735217118806,-5.282875830040617
1.580946473013931,5.037146052190776,1.4708050860878163,-2.412921702345363,-2.892134039316119,3.0418112392531143
7.028826532336612,18.492095440406967,8.899001928757379,3.4836085553484017,-0.9426240354535054,4.574318173565564
0.25410798234411436,-14.214131463728776,-22.55617240204713,-6.128528684121427,1.9231826452485699,3.509654480548222
3.593794947827755,-7.721277870166355,9.821648907036334,-21.273661447667024,-6.908349519387812,-0.03127161168269765
13.240282307633294,-19.5509418388096,8.121382328201022,-14.308389460624642,-4.317542499889226,1.5227181209131584
4.127227698659302,-3.0830115432786886,1.4853501794345476,-2.933557278210391,-1.5751289881920363,0.8429430174200288
-0.29835118056157484,8.45638034415239,9.425113175724533,10.355012294117332,-10.56887938211408,8.330915071417543
-5.315940934127459,-7.777272473794335,-3.851105401205743,-1.7227236207478334,2.7794086192986702,-6.318594868762681
-10.681226844924087,-7.405295235675769,-8.214710062728663,-7.958427065034355,1.38436932841121,0.07024672864249021
-0.7758694947378029,0.20284314488270816,-13.14169243842781,-12.600643125514905,3.6958678288194102,-2.2012562397162005
5.767587256651087,-1.2900326781969746,-5.179616673992187,-17.23422190361135,5.758241878462887,-1.8610856834736884
-0.8768330803954703,-12.053932530261516,-0.23546049215530562,10.95724034758391,-2.539348030422305,1.4186194211331014
1.9724981877176502,-8.340245013636116,-15.912328516306896,-26.762548658804565,-7.252066743084907,2.1996176344086757
-2.3227122506859423,-4.5426213506495,-5.181609388571965,-4.579685879118295,0.40754203637530284,-0.886128663671155
1.6805919633455961,8.709795547284736,7.451308616531648,13.573534553609935,0.6022550136865368,2.2064560638679276
-4.665857498446771,5.611652381152666,6.804423516661321,7.147142055459522,3.6428695985976285,-1.8850201764190928
12.18025196552735,-6.26883993988119,14.23927324625535,13.519405794187586,-9.362724572644797,8.055364675791596
2.7905557393637768,-3.141592423009247,-1.991278577455252,1.7902716402539327,5.436898398921966,-5.095311640910871
10.1573586214236,-6.182257797957846,-0.7667466412551169,-3.4127488427599975,0.6078733979568286,-3.016799897458288
1.974365234209344,-2.191635970933733,0.08234014019701563,-3.7011048702855707,-3.297223983577313,0.7567074577869377
0.5561613793622138,8.972513027592571,9.0130183023002,16.555705074282148,-1.4397208543588051,1.0013530531869144
-12.255022991037002,-5.580740252097363,-3.4945409846758113,-8.793009423823355,0.619864151963732,-2.3800552749861446
1.0699573479540792,1.262972616617306,0.8854095448552615,-4.298845669059056,-2.7851814870870486,3.416081637956113
-4.1360632853296515,1.94143121848811,1.3052012411659093,-10.957098146927967,2.380041266900371,3.9912065960449556
1.7251736351139293,2.2794937997027986,0.1252988857296291,-9.986733449852036,1.953688765945636,-0.12860100253800866
-17.112539005570824,1.7795077209760635,-0.391325605546168,-1.4621390162700623,1.880928319607817,2.7505852025069215
1.6370610467294737,-3.6395476931241078,0.8205067440336151,5.180369295080627,-5.957645595937315,5.409431518411742
-5.8417334377620715,-3.838744148741604,2.703758462071967,1.9814683055819866,-1.5888490308248062,2.692790219513544
-6.172105532394511,2.0006203547137407,-8.508973790444845,-5.297262030800112,1.3780571888046504,-5.02792453300485
7.584892679110081,2.0585557211860834,-3.156156573688466,-7.790558326851176,1.3359007737233304,-7.011712319929508
14.35802591770474,-0.49612597837313954,-1.985576777805055,4.299622407922626,-1.1902024212402722,-4.8908181559930375
-8.073309060773065,-3.056566452759285,-3.288795269640468,-5.048493227258686,3.2260752363713348,-1.1611143068969798
-6.956270271791622,0.09997104940882728,-4.852769422196756,-2.7982456923123546,2.4005530707533618,-3.0432929906883843
6.224430292056395,-0.763624102872736,1.5321123870828948,2.150832266012112,-1.565901438242876,1.291012465908674
6.372272943179828,0.6393272141098247,1.6553083473689831,-1.3057792871806184,0.30969839559999635,-3.174791723141054
-5.285765104943489,1.637458664771477,-0.4770656864037852,-1.2852558952028128,0.7703035819884492,5.528835302930805
7.5845999198765295,2.4864144647074697,0.7262889721073872,2.8656546311157625,-2.5330568120880077,4.264954130850963
12.412813792883027,-3.0559157420346805,6.03724076578658,2.3304895879773655,-3.2260440669205144,4.461123454802686
-1.9102020817151641,1.2912627303477557,0.8546568013826612,-0.2698056378122886,-0.5783406607414148,5.296944136879822
-0.2927996408602995,0.9768965494553732,-2.3599342646458625,0.7232430132661154,2.1645729195928904,2.592874347964661
3.8285102813923055,1.1919354024608904,-2.6379731060586544,-1.7829344221127386,-0.4128902605445127,-4.149501485680503
3.38949159549421,2.1895964402600425,-3.2098817705436877,-1.0619924800754605,-2.0323744832259747,-1.6314897529503876
-11.840523302754132,2.2803913909243536,-1.827099772662789,-2.5457089170582683,3.640690561168454,1.3615432443063842
-5.52486072758011,1.645724126303986,-0.4542688807363051,-3.955643225144075,1.5667263909516387,-0.21651330674006086
-11.97658902372212,0.5564700795070228,-1.7416038693412679,-2.3329816611447782,7.3308669910837825,-3.8171490636985834
-2.3929814060963976,-1.0702043863430228,-0.2878615064641581,-0.29544831526306004,0.17637447130528305,-0.6323657056374161
-0.07889921105881825,1.2512891361466774,-0.518545272564352,-0.35874738762897973,-1.1208426846331978,0.4759221152515274
0.8651680031399394,0.6889481413507972,-0.19149354242480632,1.8270684140931948,-0.6881540170930839,0.4335753846637166
3.3310098861937716,0.5042039086012222,-0.32177733631304406,-3.4538930322785504,-2.395844426029063,1.207190769600187
7.028000816073868,1.0724657855278936,-0.0645495014071058,1.0438158443776917,-4.984737610671553,2.120492779423956
3.0278480650628925,0.14609121505168687,0.2750362357884759,-0.03818334357214859,0.26630628685363744,0.11400068663568996
2.8518985981805933,0.37984111230422835,-0.3090060473284737,0.9496300863197531,0.26324111291391894,-0.9553977564992162
0.8516966570635898,-1.9728923517565828,1.4007395637923032,2.268823269517523,-1.6094558260447576,2.113495195249399
5.093286014437572,-0.31485642198221697,1.2126992234998841,-1.8929452586301452,0.5254028765677761,0.2505068466045408
-3.1925705042836343,0.42710341998380574,-2.3363647244435723,-3.7516474923284697,2.5044756555396095,0.35206253985064606
-6.695183,1.8428949999999995,-0.0319629999999993,-1.7500000000000004,2.9300000000000006,0.5430000000000004
1.132616012302126,0.6782838748057234,1.997423519450999,0.26678722408637334,-0.22873409045691906,0.7531829401384669
-4.9426087077537595,-0.7166023681234281,-0.3656173391259374,-0.7633053913089309,0.5021647447622883,1.0843099260027758
-3.316968254241565,2.3647150078925483,-1.5529178990168546,-1.3353729828106715,-0.26139858511535097,1.9215268074444225
1.9904009395925195,1.2340104995358203,-0.3014739853962993,-1.7709252681476069,-0.09086707348445883,-0.4416839569060982
3.7826899234902513,1.0297052447383992,0.416606770061819,-1.0412242563418936,-1.1134430980059022,-0.38605890647410135
-3.9986541340120283,1.786875778225662,-0.49207502050527674,-0.1273708684135152,1.7587639872288214,-0.27631623654010107
-1.8126104972536043,-1.5583818837808143,-0.013201411139126984,0.21459712155538135,-0.8986937199910976,1.293501763566316
-1.950262184005128,-2.3567555618830927,-1.2355858572886924,-0.3364356816462529,2.610863239134043,-1.2026677187642625
1.210003931910462,-2.556510922223632,-0.4217664752554615,-1.5551627758015278,-0.29226821355789917,-0.7462766667688487
-0.6822069864621869,-0.03486140157023021,1.0297978411612014,-2.1023912339397235,-0.7056967792165636,-0.7727337940754282
1.8895605407180267,-1.4186558967341856,0.2887769482583227,0.2708245296274505,0.5836207671068862,-0.22831284526230655
-0.3255630933589355,1.1960654823942245,0.27587452086206365,-0.13327259283752158,0.8525448628529586,0.740510886833952
0.5937491853871599,-0.18828298242125519,0.21989025001419515,0.3759619606660831,-2.7417897189894163,2.483553430342072
1.197486951869453,0.6400972621885594,0.9661427396983719,-0.3329141757621824,-1.3566401019134913,1.1556553699285268
4.7983724918441,-1.3455622529873161,1.5838630499654927,-0.4613834705923907,-0.6969229464887441,-0.6749311516844342
0.4079363428110554,-1.2590235185545853,1.6979858174042741,0.27384320762436,-0.1963544037434506,-0.006798377066646655
1.8572576430136065,2.2957205091834054,0.7530711379179452,0.2826938620737127,-1.1860676974662065,0.8216412396037286
0.47898611557364296,1.497541843840686,-0.438285931470517,-1.6026798513620601,-0.21103681968827553,0.443479007890876
-2.7381747105237997,0.6176289937479362,-0.42628305363140306,-1.4969493963096496,1.3919376316512144,0.04115030589650043
-0.23799813933117608,0.6800860420733036,0.01121670798241689,-1.111147288678749,0.7935521687871441,-0.473986948761005
-2.4978382561073618,-0.9649851640565297,-0.16095425732090152,-0.09632196430111284,1.3416740100329663,-0.3428987183244372
-3.3241291272472733,-0.2683918791295521,-0.8570220776642472,-1.0316747070255972,1.6102933757701723,-0.16190385648493436
-0.3279235591607872,0.9827427903797761,-0.5845520891323275,-1.4711279767173306,0.07361367306831945,-0.45408539048205293
2.0671824467409228,0.4665936700805129,0.6919802695518069,-1.000836085771736,-2.5490363129522002,0.6817426876190658
-0.06812900009440859,0.1939770046472019,-0.5153807529512253,-0.7076682869596707,0.6752064616693354,0.9291712622574213
0.28055098900680875,0.20749922424182787,-0.5917833681916144,0.11738762413692028,0.4086982474967358,0.024103346451808783
-0.5444480467562506,-1.350598907405264,0.1899101616794332,0.03354245916604459,-0.15268651127179556,0.356198899513958
1.4635263158951055,-1.258176035985511,0.7104304065989187,-0.14402301761333258,-0.4893119906378396,0.12766357541264206
1.344612510510292,-0.7466813894717363,0.04986542669925326,-1.5151950795080888,-1.4214272005084143,-0.6451099384974137
1.306914470209694,-0.538895838660161,0.7517071101539237,-1.217105665994291,-1.2795701584492212,-0.0985181332119045
0.6109260504658169,-1.2260712174745434,0.78893059904023,-0.5597967011371081,-0.3369027480892338,0.25006635561748025
-0.4995263457162875,-0.0774760977408766,0.4622429475924106,-0.16478790201380944,-0.11907757736964864,0.4006903233957031
-1.3015267775890056,0.1630754176455651,0.6029052595790292,0.2180077454923992,0.6025127014862465,0.7927358688633257
1.473462858545373,-0.17559953178208687,0.3183951869729409,-0.46717785834768355,0.04335830558709741,-0.17401434696650842
0.5890789865324411,0.4240424637063431,0.5690386302917745,-0.4542225395829613,-1.1384790338935709,0.40109723354931903
-0.6426722983107558,0.697404878997876,0.6633156325471492,-0.39355241159547505,0.6776303228052336,0.22330801477943896
-0.26616732087662254,-0.020424821987400366,1.205569236573435,-0.4032906750005735,0.33574613548397336,0.43509824573594413
-1.3410096539362475,-0.6757727571395891,-0.12827879945259762,-0.8214420765561682,0.36208214390964455,-0.26123640658148994
-0.5663803350718215,-0.42660456859863416,-0.6314691915124298,-0.24492615851099267,0.13008643141042042,-0.23824591046820415
0.7922804517188564,-0.2152875694227383,0.12801473025205745,-0.823123933204152,0.028849862370318502,-0.5838016414952609
0.542010196791392,-0.9050822713333013,-0.0024578025350044663,-0.41110847699860176,-0.37289967103902244,0.3020267427547606
