Gx,Gy,Gz,Ax,Ay,Az
-7.638049999999997,5.118099000000001,-13.395374999999998,-10.408,-497.40799999999996,34.46600000000001
-3.7082925375292968,20.274069219037525,-6.267972558034367,2.186774175479025,3.2849933293580857,1.5102719780733849
-1.3658487070749188,3.614236268595456,-0.4138984580998404,1.0949940152115187,3.0063884998398103,0.41435545415553693
-4.390805127431582,-3.7637313619818373,-4.358151922592615,-1.3052471588918455,4.077827327144078,0.2653323468103248
2.077100482920736,-31.4174527580348,4.805854220289272,-2.4126932172340663,5.678077263898484,3.9671062040799474
-11.134902998350734,-149.1358114508569,18.326482764424952,-7.510960326976473,4.992287230888868,-2.650976997398449
5.909509952021459,34.01905643256961,13.437722544793171,7.293099566866486,7.411924484416857,0.1810860472171651
11.201515049253677,25.4902420273507,10.07170929630923,2.59416482644222,6.448319724207609,3.6967894412163833
8.848534260609304,13.561561847093193,0.6489934288154862,1.0452328911727218,7.709284775191456,4.9725816150872495
5.927912024969978,3.3940516543664216,8.950566732614583,3.8565856640962766,12.21578583992719,5.265718636154634
20.706434907961942,0.4622908389131055,0.5711099648006068,-2.7858780311487887,29.13885459505847,18.09748654184466
-47.24670023648827,5.074055490609645,0.34871248343821915,3.25344293513978,-17.585543207119382,-27.646073023662264
2.3792115620912133,-0.5017212741176924,10.997217714341868,4.467239225160447,-7.144108536919721,-4.436157875541227
-7.610816133193001,17.38221038109061,0.7367337608587783,6.931583917691762,-2.973424815498316,-7.225686343651496
-11.077863820637345,-1.3396833670349397,10.302272577819682,1.6491159210946578,1.442627476552028,-2.643664941694413
11.318135586052138,28.13646421473883,15.106396762697038,6.741057232623588,-5.672741052736596,0.8868885264158703
-6.016741048164339,-114.53282989722129,-80.51359562266815,-33.83207533010427,-1.2350490126667273,2.4046967048886123
-0.5795312604964877,-24.295576758664957,-13.95840165409792,-1.4997769415512923,0.03805601128153491,2.4834368233792254
-1.5600181421225638,-13.203368832777578,-3.0644114681776147,7.125288927308908,-7.891658300014692,1.926059525110249
8.202641406162535,3.5590051337538213,2.043967086300991,8.112242779141734,2.082501450398021,6.613584107847823
8.001750716389045,18.986457010887406,-5.560898274889098,5.728238928078907,-5.089987966858399,-0.41019763024259515
7.861603570518621,-13.864559659574498,-3.3695090726055077,-2.7408374487366096,-3.6525745500577447,33.53332779394829
-6.321004996378988,-9.298791674393634,0.6072913772558843,3.545377032863827,-5.763455098056349,-1.7048722698136858
-13.865415721898591,-14.534375039252676,-6.998306600042488,8.713783611143615,-3.868907325957181,-3.31564300074975
-2.8882585997728474,-20.514705325073372,2.4147081687160434,4.203554336271511,-7.550373696379736,-2.7170719934257335
-17.345471499976426,4.055783498480999,-0.2141489852817804,8.130392449952796,-0.4650293478053677,-5.606955328290751
-22.70266966074975,-48.132545213578986,-3.4385836518518786,5.89085783816153,-7.5254779360177615,-2.5863871348271914
-8.727327159227837,20.53968850588731,4.708921636376061,1.4309764517447294,4.259800956017369,-7.5576644206118
-3.0838921116872813,26.956191026869867,1.3006646962945005,2.8182394590501882,-1.3602794064041834,-3.572905183494757
-11.109925049506414,5.85705372534453,-7.179330299677967,3.565901580545006,4.1687110007544685,-1.284076402976555
-0.6586696045076064,-9.79125511936902,-4.979074323875643,0.5913002863151471,7.761299775950285,0.6887835217678928
-35.92319778531737,5.479510793911729,4.039584922777437,14.143216777922405,5.664906809476558,-4.69229778510788
49.656711739575634,5.253556323837483,-5.45755371803145,-6.635782253177565,-23.22398255217443,0.9494594510514778
27.038203891857805,9.021183302107401,-3.1084507811122846,-0.6653173706545683,-10.756322462936268,3.0882002464783533
10.012124709499947,-3.9877426839286567,-1.0088400420395596,-6.770885593705968,0.1927697894899123,5.641475696730673
-1.4159121560720611,-3.974872576051381,-7.622854185855635,-10.508140260598422,6.127278183928535,1.7337264132925532
-1.3965273320327407,0.9163054836652016,0.6641225203062124,0.4005551318427534,-2.6640521109417135,-0.41383953412487795
-13.431255207152212,-25.97847273535803,2.5588792608444337,-24.856271097842406,3.2338652327179447,2.119298196342039
2.24873155882306,-8.358203120857212,-4.484820726451977,-12.73554273147664,1.3777268353981356,-0.6434069486782925
6.246930267149274,6.40266714235145,-6.126077287495026,3.9356546166027746,-0.26461315832675636,1.7557665562693834
-4.746902658197371,0.25459991288763284,-0.8474154675277861,3.306685072834669,12.138258737799692,0.13602154510719366
-6.745852704581175,2.5162166289300947,-1.2854603885273348,-1.004909905492945,5.188384282252549,1.0632260265537539
-9.878702250490463,2.036447095141946,-9.725125377724831,-5.828226339452743,12.530254140507603,4.794424316715513
-2.961314007649954,-11.60677866620616,1.4838365321386704,-6.795196909295894,-4.609556523112651,-1.6778988825151386
0.14225923655706518,-4.040271834359045,3.165625193951335,1.0829386629307818,0.2687769382982559,-1.397415421026878
7.470234056170126,-3.935253046679509,-0.17519716424881615,2.736523811231785,-2.0288141215390896,-0.05411330479976184
-4.088831435006354,3.0477886008322685,1.0062473351066632,3.925071653152032,-0.5339442408613231,-0.6247564881435603
6.072606303801701,-20.039115614682967,16.953360899379774,-8.378324022850181,-1.9044130826324808,1.012359885577661
-6.500449280488352,12.070068267179888,-8.76533364646203,6.149222364040028,7.230881578529036,-1.6033576280860315
-8.3095335203367,6.818886501106236,-4.53116377362205,6.193012599323817,7.650142763713305,0.7774018815485758
4.745480340548835,2.9496996380559217,-3.105589214499541,2.1130526758410646,0.2993931361317279,-0.04090661037035981
2.426064964833247,-1.391035545097484,0.006888585728548335,-0.9254200699828528,-0.7246574710726202,1.2873633970199367
-4.6571500301377,4.8915758501787945,-2.727791658245377,3.786123513866559,10.923802710808149,-5.151290194891678
12.42881708854664,2.568377898091208,0.5495580665622026,0.8115051507528633,-22.052600239427807,7.744550852173743
6.147437042918478,0.8291493244001575,-3.7873306055205127,-3.296921514111382,-11.575304267211862,6.399919915007088
0.6945697089214666,-1.1646182035799102,3.258712581421416,-3.356646681734018,-1.307338788909383,2.2181889224961893
5.723761014155032,2.748639268517722,-5.817555238858249,-4.078233305290836,2.9507086962837086,-1.98260296636224
-1.2142112705006516,3.198121260926032,-4.891679608813295,3.658082429247162,-2.156243186403059,2.475441084954008
-1.3000862298364368,-11.108564118269157,3.415033361536491,-8.549995792651517,0.4368704816775466,0.23425962372913123
-3.9108063688798023,-1.5877132439469153,3.2618776743196785,-4.992966592893451,0.737117061726023,-0.19233387435802962
-1.1855699859535749,2.2287516005114383,-0.0950353856595294,0.09545394772736193,-0.32301305214719545,-0.8923103293449315
-1.5756950805772743,-2.0378144737001485,2.6178598424904105,1.110900763885362,2.192560678683389,-1.5678395551930762
3.5165463525951326,-0.6171628177449044,2.045462625257843,-0.5705576737536254,-1.4063563278942213,1.025528967969571
-21.092647196848407,0.8679764658534932,-1.7384387427752186,-1.2811904135908583,13.360407911636734,-4.887550509984975
-2.474789939671372,-2.312930088410149,1.1541540182765668,2.241965786252634,2.245355354942589,-0.07579750907588312
6.250879041569769,-6.366277585872584,5.204350569304072,1.508967714876321,-1.6203684873118767,1.9476557860512176
6.521064770263573,-1.0972374392320503,5.487595936552963,1.128136209799597,0.6074140898920922,1.2422732070087734
-1.2134927744069703,2.3215865933031994,-0.03749762629981013,-0.8452814836180149,-0.050373646398450045,-0.6763704422478306
3.0426684515035927,-0.8630580608539145,2.270295641685009,3.0850584182622356,-1.2705272379466266,-1.090187541211001
2.3512326873701554,-1.7057028340368157,-2.8672184826186893,0.8729507347370495,-3.6379343929409504,2.6385130538968156
3.6940032533432996,-0.5669566707489783,-1.6616318446547096,-0.29650662238820524,-1.2267193126591813,3.1768150054783044
3.6813956146293294,-0.6316161665207806,-1.2649973430747536,0.8947303743439334,-1.6374048089126179,0.8101353727610388
-0.08764717349657092,-2.466889586822876,1.4349554947581291,-1.1301772332528972,-0.09270196424335286,1.6006390715801007
13.623710499188737,-1.2157931812339389,2.094806525733867,-0.23071643423320037,-4.175169076841519,0.38791748761525713
-5.716368223218659,1.9054947856976563,-2.269878579689143,-1.1720500117765997,-1.5656534235821153,0.6995440445104066
-10.32367540442219,0.1660301758505649,-3.9874582367529228,-0.4596298358000167,1.5095735420655654,1.1428975541126762
-5.477393036527129,-1.2777684318176805,-2.2494688591419054,-1.2465701045085977,2.6958076919279614,0.8617339161355351
3.0040395933038435,-0.2776142551147114,1.3601153690951475,-1.0006209935108497,-0.47900223284461774,-2.3117628213826915
-1.0502592846083432,-1.4155003960341235,0.06745656524050525,0.6348980269760747,1.8678390697819078,-0.5992417669859023
-4.925075372020072,-0.8651214645385576,4.820711934455866,-2.3469271999111223,1.0787488776895975,-1.4462442374934923
-3.782666954848385,-0.8983933505310409,0.6895320493467245,-1.6915185564046578,1.1534664664152685,-0.09051078749965835
-3.384324964333868,0.5237656080433284,0.36729991027637754,0.7497832748045322,0.10627261383516373,0.770651990397264
-4.139297144992877,-0.597985637958474,0.052989415354596114,1.7540956255195634,1.4390186487732741,-0.2488811028992215
0.8109978315019908,-0.08936058218054088,1.2216465071316853,0.21918690260937052,0.1847015148972646,0.5317920419480859
2.1038292848701134,-3.217113213028774,0.8398304288949552,-0.02263196533275938,1.347339072680791,-0.045328962080005475
7.077471550748067,0.12806106105653914,1.359292138520054,-0.33626580277638496,-2.8779357064041307,-0.20416134185852847
3.1346220701604928,1.1552844991635414,-0.07435182729625002,-0.13349022646569886,-2.247781158325761,1.3368464259306174
0.579091619308223,0.5345473693577956,-1.2290526197575922,0.912337792749487,0.17225230611928855,1.8437427522961862
3.743106896745253,-0.031126419290875285,0.21834266749490489,-0.9125961591446958,-1.6064723317333023,0.8097285713062007
3.855703911430085,1.0664496656072544,0.0020039684073718256,0.28408820457857975,0.19966691784091845,-0.324124832101471
0.07018845338066415,0.8009385704193539,-0.5591241768995305,-0.14533085756176944,0.3047908666218222,0.5949559156821596
-1.3048496972761408,-0.1825529220011548,-1.0006397381036474,-0.9859578917984579,0.6281760449396145,1.8600997422109513
0.4691159665225145,0.9591598194558537,-1.0516171880872085,0.4152185843124765,-1.4620579108290503,-0.3062266572059383
-1.9851920176584699,-0.0692340903943523,0.801352982809524,0.00017066076964339372,0.45011493146836956,0.01634297842923141
1.0719386450729012,2.562482025261327,-0.1578953339350069,0.4742120673782162,-0.12807850507226115,-0.8436515788382876
-7.877087649274397,-2.2995531794066206,-0.9281623961753973,-0.4610165122531653,4.169093046435422,0.5870720340644847
-4.535281052757412,-1.607910718560905,-0.8359373734416072,-0.7249597162198664,0.8273332792293917,0.7259749517739075
-1.2080228330082248,-1.1652616005222232,0.5233033633391571,-0.9781218540793204,-0.3060312287967124,1.0572625708064414
1.003977049793006,-0.3831030180035586,-1.0448758341730198,0.23836172732708447,0.5580460569811958,-0.6277098192163206
1.0091393062660148,0.4541079971721208,-0.46507523263108974,0.17694359740420568,-1.3641467811958878,1.7803598124412578
0.6834207802108327,-1.8711062231600792,2.9837661031976337,0.40735864574651004,-1.3428117601683536,-0.10957594518427566
-0.5651238414126953,-1.3395526185511288,1.9669103542086064,-0.5247927757747068,0.2769441384708673,-0.778479790549701
-0.09538475005536995,-0.14835189915655977,-1.4588218054437363,0.12638248535549584,1.299159379194438,0.6361540436854152
1.1486407761569704,-0.09079158997086331,-0.6879368083775558,-0.268895400352972,-1.0399364511829545,-0.023986381623842333
2.2247698957652036,0.5450969221052082,0.6499381235547519,-0.19156713918853752,-1.3529181496447706,0.8333769233402996
0.4544593074697507,-0.21678648951371293,0.09872955643095863,0.21388780459877052,0.18986077614277974,0.14687302875531116
0.4242230029554621,0.6211795043236902,-0.025267974793208636,0.8448778604242493,0.6539773023036584,-1.5938352807886291
0.8115756343037136,1.2016924502756328,-0.047658806218889516,0.7728836851540415,-1.816566233047568,-0.986245904881118
-1.0965573644897377,0.6486635566677605,0.6090290450213064,0.1437665699401303,0.43440684822728204,1.1346862073447515
0.15210356249794404,0.8623627147851478,-0.8802375719174939,-0.5121884190927862,1.3604522875893563,-0.600192869453416
1.256031722776876,0.5786786571441582,-1.1248051288140575,-0.4282506887603542,-0.8182273416440824,1.7918790890277192
-0.07018678614151519,0.9352254801803173,-1.4386561657102523,0.8995677123995043,0.22871509391037548,0.29349713937054434
-0.13612761970934012,0.35677801290542444,-0.22511567378372782,-0.1699472320920951,0.17117415579173745,1.0669998885724747
-0.30122194215177994,-0.021770759772780146,-1.7675549883978114,-0.04159445093203812,0.036769088277778,-0.14585928640537582
-2.6026932620119627,-0.8541256336283227,0.0804435270599968,-0.09241835011527919,0.527289591722507,-0.006834613976477
1.4280578354645057,-0.06523188707030253,0.6399941591581262,-0.3201542260942435,-0.6267819123921957,0.45866644723687966
-2.091266014759574,-1.7952970570787654,-0.22434055491359708,-0.8111031313075024,0.880592121683679,1.831982156734147
-2.170539551496013,-1.7882027624414651,0.015810338608309937,-0.5969733341205432,1.050603706446545,0.45602762205388986
0.4603347536205967,-0.6041151760893897,0.8072344062039245,0.10585792982842446,0.24971502926168448,-0.49963527654437756
2.4058790271250743,-0.31450555658570434,1.0789899146378716,-0.06776531961342204,-1.280742412241219,0.574097319891626
-2.6962465768094988,-0.18131945909476607,0.7388891369380939,0.24213938872953736,0.4672822411502717,-0.5959247353887736
0.9716126058419665,-1.2186981403568453,1.530662041665842,-0.6431250728862016,-0.6559688714437015,1.1440261924289854
-0.37820974718567246,-0.499604661492248,-0.26517593213165747,-0.5193400818935623,0.23443784851837346,-0.15614199887836488
0.520531672333158,-0.9687672951406031,-0.950744044538566,0.15588258348253695,0.2872026962456815,1.4025880272107198
