Gx,Gy,Gz,Ax,Ay,Az
-12.337979000000002,-15.419017000000006,-1.674840999999999,33.494,-391.188,46.993999999999986
0.9467561340724067,-3.3701095863652606,0.5774316813958793,-2.2958242770805617,4.100584715566897,-3.394898016426849
-3.48383350661401,-14.513088111422345,2.214488097861339,-2.9157573416166853,4.22778979262742,-1.5545257151880911
1.996044851903927,-16.670610505404323,-3.3448811491090638,-1.8193323909158645,5.885760076434184,0.9745336687622539
12.69303280214139,-93.90197046907448,1.8475732848227189,-3.4483338576253226,-0.9398318293402037,0.5773652081981974
-6.4392218647404285,13.878647663978503,6.184189800027969,-1.1974088799253504,9.975663536802912,-3.5647475977925263
-6.846429560837943,3.072959336036026,8.652463025524867,-0.611995262974697,10.616592657355898,-1.905471835848401
-0.23654773160991244,-4.005963365269881,10.497635886181154,-1.0508766652202708,19.11283270010646,-4.749231916516317
-3.9088487563484318,-1.767190174936433,24.403242269912774,-3.0655597847882676,64.44562149672197,-18.685118505136153
17.199750607545177,2.614007166881806,-11.667406530589636,0.4914632623491184,-37.07219329276356,14.873805785386484
4.030225469950775,-8.423727213026998,4.707523982245464,-1.8049638948654583,-6.132543374012256,2.602121721195881
-0.3026528609202977,-13.332578856022302,28.19116441543396,-5.344819705698741,-1.5304607477555106,1.3730980476789172
0.21931575973610418,-21.73232459312967,29.98321622938087,-7.675529101059238,-3.6262703201171016,0.48608567925172214
6.576403981190572,50.551017455132566,-72.34452346258158,26.019686134347353,-5.482384607165121,8.24412384748692
7.790350766113867,3.135601005907298,-8.642491351848486,-2.6795579370641214,3.006595248028487,4.4500555094042085
6.98678633453544,-2.286237259711658,-2.376243829551128,-1.9494497215868702,0.1482581701759611,3.3277783181934506
-5.000585006410283,10.838989048963239,-6.335655353548576,1.0640378464918228,3.1941185795852043,7.684577241151593
-7.078423951339618,16.61405861196367,-6.538068770796738,17.098039932221685,-17.471862136501947,-18.767705128491407
3.563341096620398,-0.24477676973736773,-6.098304442207018,-3.699111550830892,7.597886747912456,3.660194977269854
7.455115791153196,8.89660041764372,-4.062380608781954,-1.9640540560026682,-0.13967812770538382,-2.538782312265533
-6.962614934054149,3.6082020631941343,5.129898141804106,2.547069082025481,4.830299964356675,-1.2011158522844851
-43.46661035568171,-6.174240532434194,69.40498674713251,12.451375747365322,0.2072354943446557,-4.247358191714982
12.983420911151383,-0.29065968755183846,-13.829542425093585,-10.61143915990906,2.231919075180497,0.7841260318786425
1.031805044610274,-1.627168032703855,4.821827235782331,-0.4733731637515759,4.554188352526461,2.7619248658173916
15.680721237579727,10.815768147365388,-3.2120143226817994,5.401071859148307,-8.642368875499383,-3.9052369951062635
30.26822249635581,4.021875722956308,-9.542103511851892,4.422657664888646,-24.471742509005306,1.7072720128208818
-20.128441132157654,1.0645022968848306,3.8921199782530396,-1.7494317314204677,7.87800683595729,-0.13063128271209345
-1.539813227262608,-5.072675474650713,-8.711881432201572,-7.1099733823110585,0.04888483191456494,2.69830910085866
12.106697107372602,2.635732193731216,-3.552565773605605,0.23945305108705342,2.611201266983701,1.4443005030598492
37.98504831937825,8.894731074674281,-35.327575087168995,-4.398004467361654,3.3545837157775047,3.6901156991907547
-38.60355204729271,-15.0689605761052,23.836680088005437,-3.17657840820382,3.081862970369917,-2.891982302508962
-7.529180537458637,-1.3247913275098349,-3.3507496488172084,-2.5561064563697395,8.731505791583672,-1.50731378150016
-9.318310485441991,-6.320222161273513,1.6579817030011774,-6.60976545922681,18.049805969088553,0.010245780312837516
-14.551220223314049,-5.221154195937795,1.3754081621449825,-2.67077596884898,11.230792482679584,-3.702748765129283
16.223663626898034,17.495592397991146,2.24298222237565,7.247855751502097,-27.17290753661133,5.775187218097297
-6.428453062267293,4.442220825763866,1.2781036160053196,3.327845968899926,7.371252946803711,-3.0360557918291664
-5.326755182023192,2.941946709384957,-2.8824318183443682,-0.8938081763071861,-1.024904793186693,0.2882746263738421
1.206311785339309,6.879361410950388,8.154389327424111,2.4846333980519635,0.3354809935440285,2.391700287891122
8.526331296881036,-18.485369211426487,2.2686073043030373,1.1431522965771563,-11.747029088263034,4.796325703769616
0.6231879255189372,-1.977266815218179,-5.8285508679200575,1.4519170329057598,0.6598709683827035,-0.005124909836549257
0.548386601942524,1.5523306102282994,-2.2416599009983047,3.3695458973812658,-4.165443886878443,1.4729992091050672
-3.139724988639374,-0.863839624888316,-1.262684830398454,0.8149378641942988,-1.4333269318233746,0.8268267628718291
-3.065041247809069,-5.9577759949450915,5.192565025472052,-2.5039777025225955,-2.391032536370096,-5.00267734512404
3.377896452750889,1.8132649002725474,-4.080593881171099,-1.7174802990424887,-4.147421035409546,2.365699107444867
-1.571266640291581,0.08490131872474863,-2.575298475126682,1.4449430303483966,-2.2181108928473483,-1.762450056192831
-3.727912156392901,1.8097455302412484,-0.7627597989184508,-0.6439975238900071,0.996245670012268,-1.311944014675153
-1.1581246542740067,14.449876813682256,2.4983822851978106,4.342223703944739,0.7487034585600508,-3.5053713899804735
-2.3892274348639564,-8.481665134547821,2.210178251692382,-3.1705571712074914,-1.1753732800780923,1.9004099076592016
6.52568542502054,5.406192860541862,-1.0970909304610486,3.0464866316105925,0.05870945465083677,0.15657536310516412
13.97501136214615,3.4244989008147817,1.0770285388034466,-1.2871115975880338,-0.1141893984309248,1.7193808389493888
10.643050073114049,1.2239230375596244,-0.2735650287599418,2.0233997238614707,-0.7377353876415362,4.430352663471191
-16.68434410823432,-4.1442935507009455,2.5649317551671227,-1.121827479834767,1.5997995153863873,-3.007746348969154
2.1175057727870996,0.33829875325474323,-2.595716067579079,0.7529507404359845,1.580742033446717,4.79266082982931
11.660935981205885,-1.4254862332606681,-0.9036746573579295,-4.3200640437688795,0.6072385177905607,-0.4666976406295702
-8.21870211774118,-4.496465978576442,-1.0197948974199742,0.4724726514199361,4.812819174023676,2.699026713082253
-13.44003117817777,1.6437901420933443,1.5795710438548392,1.7520035183122593,-2.8532938844710314,-2.6712593840092635
-6.506867701662362,-1.7507366039434757,-2.061976113441067,-1.5767430591493896,3.138141881030575,2.5144710264485033
-3.31004069120237,0.21624765228236897,2.8806157541746544,-1.0714648129393574,1.9211774242680737,-0.6187078198900404
-3.0358107418459106,-0.3087386488787039,2.3457219716511677,0.19303748079389443,-1.525104121288599,-1.0421848772549465
15.032390214716546,5.995878448088201,2.238772489962891,1.2858329210639334,-6.748759630069639,-0.9772512335756309
-9.243092293000792,1.942626549823889,0.18006990160027384,0.21149384156768614,3.266297249777594,-0.030593506048013586
-3.8046813965337307,-0.23027653243446977,2.8584022875355486,-0.5987475437235736,-0.8118224098768948,0.6404288811198098
11.730261386838883,2.451384257507825,-1.0339727860054873,-0.14874390149103767,-3.8074266093509697,-2.079572761872822
16.931385272598952,5.217135347673324,1.5410728988028504,-2.096466936665876,-4.36561153198342,2.1989139048118895
-3.268429969527157,-2.294545880257128,0.2960587123532932,3.792942444223573,0.4826657945254694,0.91788676427715
-4.6606136004774195,-0.08522689343978174,1.528413504810438,-2.501791630997104,1.4735138330819022,1.2669800211838058
2.595256694210966,0.6593765159897271,-0.9518733192123443,1.6259434447026866,1.926115974104634,-2.057806213008523
-2.737955768027307,-2.0198061480982057,-0.5800573389532099,-0.5618208393728513,2.9496467676409153,0.8785985333778527
0.4159659670095083,-0.581402754391438,0.8941864224673024,1.3758992506455017,-2.5997938274050547,1.500074481507021
-1.8013467268705494,0.11209419700967327,1.1350569475359342,-1.7418799828687526,2.5386569724784467,-0.40984611414740046
-7.76611736501758,-0.6687046124451391,-0.7863219345634741,0.903515543900453,-0.5678415498500642,0.5865842069971197
0.7512842437978433,0.25007100435493457,1.0295913272724926,-1.276363983897009,-0.9551919460403371,0.2770759958525002
2.9067002173822782,2.5520935943047474,-0.4103478403868061,-0.5398781135526126,-1.19456476389413,0.8761959395405516
1.9472460780845795,-1.5844113421856767,1.6334770556754172,-1.4974894030828851,-1.8403190081119096,-0.6924493814646612
0.6515705530759747,0.3505753679212186,1.2481686357143096,-0.3991909730320605,-2.001740534953235,0.7839208407120491
2.482644984129559,2.092548583749513,0.232443460250218,-0.4763512623231897,-0.5435224407889371,-0.6334472323879065
-0.5761193894804922,0.8893524630753916,0.8571055731949555,-0.18105822411702033,1.3585864404810786,-0.44032133899294945
8.109196844510102,2.8278209217320556,0.2660361811517654,0.4506208528096577,-3.958484552370618,0.5843574481952196
5.380532305822828,3.3229521034810623,-0.8926063753340284,1.7387617843046552,-0.7787873049589219,1.028835665965048
-5.289927583586572,-0.2779477165086265,-0.35308578963311893,0.13675408249334872,1.7210161907557735,1.1782344034378238
-8.069085783252126,-4.637305255435978,2.193701221048822,-1.3220130203067937,3.497148937841497,-0.23964827866173644
0.624450767268105,1.2646077609242634,-0.3552377973794791,0.0417678721585758,-1.3878696639720627,0.5410672197408247
1.8593711938982789,-3.136481780828391,-0.1448198785323323,-0.2557408675234232,0.04768556590899442,0.596069511536554
-5.543867485902835,-2.5639972630547505,0.9175531706311701,-0.26827610822387576,1.407941609037658,1.9849267120973713
-3.576394313590652,-2.2859447026499917,0.83185487910104,-1.4927476439475902,0.43278542835371503,-0.6730713389031222
-2.134493783248629,0.6313591036805539,0.6894734468669969,-0.9382445757794247,0.6328600961162353,1.2457968513852975
2.887969449692356,0.675480764807017,0.8692285802161763,-0.3073961838156434,-1.8445054032533803,-0.6021290555556911
6.292838618287,0.534802841748991,-0.5372390000961229,0.1780471807912489,-1.686384753049027,-0.6265151965103877
3.6030654303892256,1.6789212474714041,0.6487164449565295,0.5380937008173021,-1.5734817810406052,-0.398801473200668
-3.1713910161986814,1.9913699285888042,0.003360970737848412,0.015584049199675654,1.666477989362785,1.1881326072714544
0.4549015186086951,1.3872518102177316,-0.8069963865299117,1.5823031351079386,-1.888682614501032,-0.6237614956853984
6.80229279549524,3.843288790203196,-0.4763026881110966,0.6770535098402484,-1.5640898308955198,-0.7701337644482861
0.6487920519818753,-0.8494723082167841,-0.19515080040936253,0.10426512630214944,-0.053700004296483,0.7471750634718693
-2.2034517761842642,-1.98905263295338,1.0041817490692206,-0.34236413923730913,1.430239402809315,1.4220891710731733
-5.478635174401973,-1.3100731751115704,0.21003076802103499,-1.0928038523852752,0.9724446281897404,0.17679747957884653
-5.046400882070353,-0.6258793272049523,0.33112931343672436,-1.1774592729217952,2.19795099123614,0.7651859367101443
1.2500140897188652,-2.5148601217152944,0.6492725493941309,-0.43012224710372116,-0.8139241224919335,-0.11834582487908199
7.365367347310447,1.1739934550798303,0.8820648751207907,0.8075705540220894,-2.4436607341321435,0.727295241162939
