Gx,Gy,Gz,Ax,Ay,Az
-10.411812999999999,-0.6616599999999954,-5.691487000000001,-17.121999999999996,-421.03999999999996,-4.882000000000001
-3.331733283288576,8.167525168215782,-1.0328511171200898,3.8569663952334903,2.9810155999969825,-0.4928133640317671
-0.9960165457983917,18.168655259489736,-2.199357374799511,0.9760103215338337,3.3024703632873917,-0.9901615580783025
-3.6271870492468423,14.524187957805,-2.546725038195635,4.762854279098599,4.190131686320541,1.379396399764593
21.331232064966365,114.87907518937097,-15.01870944790729,10.319226095431674,1.6530384771395332,-0.33325201941416893
-13.066797697972174,-25.755639155838633,-4.137548506810402,-3.075369535169981,5.328341928228283,0.33114396293595194
-2.099145870679726,-11.720847959728188,-6.539037320607184,0.023711400537261507,7.562841769801873,1.2066062346413338
-11.274296263086041,3.1455281562391004,-5.001908506109491,-1.9752987456995124,13.914763116704195,0.890314637860957
-17.151743270974542,18.83170987835604,-9.541670790388013,4.785873954229296,39.87882524520147,11.40111700369088
7.8009252307013695,-4.434530057960291,-6.24157573186287,-2.5447248683475614,-15.489226663179643,-13.289202338656576
-4.8021050188717,-3.974002550890904,-9.760258923954849,0.01896207628963764,-8.077221238218053,-1.49104872401844
-1.1022633848186199,-9.331400537068921,-14.439689440876222,-0.5008617305809177,-5.604141842033138,-3.587801414590044
-2.256482000177394,13.300835049955907,-30.490064376602753,-0.9294337506778667,-2.8559276808122025,-2.5818070743084345
12.693670779732695,11.755398474123627,48.222107097432826,2.0061082308337976,-6.774315085503684,2.4717379716829306
-3.4744939708501796,-8.584295462395499,9.636457788723465,-0.6931454694338333,-1.6877111349524119,-1.9878196854402426
-0.5566410694772459,-8.08827895945751,3.189982001516228,-0.7451986861499061,-8.088126442813918,-1.5673698393699844
0.2398768215003224,-4.41330027213381,-3.312658011765403,0.33438074785677924,1.112410038088812,-3.9663859131152295
-26.400700728702226,-11.382096820116875,6.191172423421264,0.6906905177866207,4.614741139449758,22.304110515515337
-0.357586215676158,8.218092305103077,3.1265139246272957,-0.4351768943492116,-2.0475387867070136,-2.9762645572563753
-1.696474064188851,3.457629136582006,1.9494488481674361,3.1350007908523696,-0.877623540646961,1.6813510260559306
-10.261979296407654,-6.000063679234331,-8.761455884421473,1.547779537998885,2.1242276320524374,-1.9118558407575827
-5.7887206238623,-24.970406652257324,-14.042504994215701,-12.967049128147895,-0.8147749338014206,-3.9756330775613553
7.078161689446331,9.98439946679014,1.1792809496960748,4.592843868374193,-2.824939948761498,-1.0952221116449774
-2.0152150066979067,8.988104880312028,6.350146571931732,9.265262597852084,-2.981942121145442,-4.334151302727946
19.901334178989735,11.58899665725311,1.4339596040762737,6.117775214228189,-7.408462087362176,-2.5069559598466022
0.6034625484118545,1.1866051534914743,-4.348792098656494,7.588962680671139,-15.276669801692906,-15.997049391923278
4.585183701232852,-13.18720360589156,4.362278118307017,-3.6370997746973286,7.886613505768537,7.517537121009903
-4.641640040087836,4.081240114390736,0.8704814371973502,0.6759547285629424,3.1879289318437065,3.9370505915583207
12.836949916050195,8.482370899531759,7.1585695028926395,11.793142381776983,0.2302641605003901,4.7553110089833925
7.1316012837124765,-15.102636474030328,3.4724002005600405,0.7305769000812276,-6.3535747718041,2.46780141000931
-1.4109397186956603,-3.9112395398996846,4.381250486170775,-8.186852001110937,1.669599289724339,3.3977507369816586
6.988714130457654,4.929548381989603,-6.770996088596198,-7.046070480766575,4.753549038897612,3.8914718481481896
8.885012980521543,-8.51564914604926,5.363088633196181,-2.9880377858570912,-3.6900955833776306,1.4027915435068836
13.809380972960561,7.997424277953683,3.5537860293983345,2.9923157383509826,-9.133195022138455,5.456390771481484
-31.759173667826026,0.16379000744946515,-4.939938688800794,1.3361734227062412,21.37488861650727,-9.166013929400078
-1.9658514180253195,6.723464700505945,-9.245336779377345,0.8980643955678174,2.885777588984796,-4.5129925884366395
-3.5627253636768206,2.308127558090728,-4.247686615594755,-4.186770438039933,4.824540080744526,0.19353958403576377
2.6928987521970864,-6.447063102558043,4.791931950553413,2.0952311737194393,-2.7217576569437285,-2.843624368423545
-17.3615654819162,-6.977805959867702,-10.612744208326388,-11.190008478676457,1.9801581949342861,1.1498399752738282
-1.4819059293866639,-6.576691008870016,4.114894687381562,1.3841956972127236,-2.7871109822053297,-1.0551857337998594
1.8244714172743555,-0.2771714088560153,5.9531523689176575,4.424516257735931,-1.79825271139481,0.31067159644527226
11.515713201783838,-4.996593626498062,3.7867148300474227,-2.828974938318853,-9.369997528244033,3.616225703142335
38.590014694984326,-4.035712780640048,6.017557984576798,7.345815486488676,-30.376066265158347,6.884016794598255
-9.729869936983588,0.9129410884966329,2.264526274489244,2.744826236327971,2.888452362791065,1.920896664417423
-1.0930118633487576,-1.0944721514448401,1.0972325065901096,1.9245582891315332,7.7684511292167215,-3.694786190521042
0.7054236031950691,0.6668544082027741,4.661578891305002,4.669002227436164,7.266053510980026,-0.09372995088090627
-1.7694542319958297,-3.90181311814363,10.252423679846016,4.304670120749004,-2.3245702287955505,-2.1430391386037466
-1.6228111240048115,10.529942394540454,-13.719632624078079,1.8019464811790482,8.370364781792418,-1.0795004988823704
-15.167568216215328,-3.764592608720311,-5.437622507846546,-9.795725825367594,10.79598041906657,-1.7203613101604904
-20.614740075851493,2.4688502233035474,-0.43546891076063643,-1.891947659336461,14.699969868794883,-2.149344693103759
-7.127698699913552,4.1813859794866435,0.18919164765979202,2.5725546061210633,0.3061392467127786,0.9797013038436282
14.729286409802535,0.3751934555200944,-8.380498493340145,-3.1210126194061325,0.39361728089433967,-1.736524108269124
12.2402726726813,-0.3983900651734349,-2.7873892545101144,-0.10672303141958003,-10.578588581802409,5.105244922970247
-1.3308159668218151,0.5342775111569626,-5.525230510016321,-2.9460423943679217,-1.9511973790776782,-0.3389794984326133
5.314298869284787,-1.4385163914642578,2.431773272814873,3.0689698210731002,-1.5183301442140242,-1.402559040581006
6.857376545868879,-5.410806024666716,1.9083226504799113,-5.008855634145438,-5.936780336065409,2.4456156178280004
6.963323785451409,-3.4714254808262526,2.0390592291533496,5.660714525189217,-6.783919726442541,0.32420238090099085
2.8268985312007966,1.75578852808027,-0.8976867035422823,0.487927439946808,-0.9660686798956646,0.054470308169773274
-7.256056313433931,-0.15922923298451153,0.4686730449668003,1.750310802581261,5.270992077886982,-1.5204107875374997
-5.440787872864099,-5.177992760130399,4.998875373318269,1.7253865155298245,-9.365363959335202,1.410959379806852
-7.514872874359246,1.1068852608020225,2.0819020226210108,0.5744353721180464,6.994081610119778,-0.645562958715361
4.896730648178286,0.45477384024335826,-1.1363598707318658,0.9983957861098354,2.442273602020209,-0.358567137616874
-2.395311342893534,1.7614020103291388,-4.1252499404090095,-0.3932993534043727,1.5097937470716853,1.0527432934467535
-2.6468112098081105,1.3899571166371898,0.37966137875384875,4.093894805033601,0.611101358142507,-0.2547456694758588
-2.468383854769045,0.8651425698690042,-1.6759865319099707,-2.5332143852772417,4.445658064353985,-0.4595977913243578
1.5562235914765978,-0.48483962339081044,-0.039937992536535426,-1.3461707137518473,-1.336251864452744,1.0378423243878854
3.7834361117460906,2.519510604303432,-1.5185341401301642,0.17858727949129205,2.319476541089315,0.528691512456221
-0.9308775192511682,-3.226608566731713,-1.1348625963704597,0.18141299756785595,1.3026430199879573,-0.07251897079722269
4.744199900742403,-1.5541362421233131,0.08791374462128171,-1.7911645776845062,-3.3825842841873768,0.5478931555370646
-1.849800385617926,-0.5706733463957385,2.933088426868175,1.993850512539225,-4.842047914095085,0.4175654548732984
-0.5138503581900837,-2.5811616234507815,0.25165472358815855,-0.6522930789437265,0.4366849361595214,-1.2799037486618312
4.221852524737706,1.5803487389243094,-1.0142335534037656,0.34205750270605145,-1.6950138737054072,0.6259753467407168
1.1021646044884958,-1.2988332716593844,2.220820962134989,2.0229147782112724,-2.156020217699816,0.6653571655215361
-1.2390540734321827,1.6377918413567483,-0.8619381969493403,2.5011116656803543,0.9547457877867611,-1.458660446377302
0.09857767153713146,-0.11641767165923006,-0.8955173358759502,-0.11092766696151955,-1.1969273703049785,-0.084908958236326
-1.344920868469722,-1.4130680313530815,0.8012951266623528,-0.8847873188831996,2.96880234502446,0.21242400911315257
-3.521203440347495,2.1161518006461524,-0.8086513451676562,0.2531680261454429,1.3923096273571682,1.049414325678433
0.44378204685225714,3.561010570142136,-1.5514364493693644,0.290128112744342,2.6094749037223073,1.01200006899543
2.275427421430664,-1.4981744933215548,0.715883214458847,1.3182035734389193,-2.91636444861143,1.3125242047050143
-3.1936465789351702,-0.06219466823998432,-2.2541400342378295,-1.002083092687593,-0.5428945693111011,1.1122940760261477
0.09797448312037868,1.7806620265313706,-2.6498825829650823,0.4779272884383805,1.2537080110388765,-1.057582997279413
1.688221457666351,-1.8533430131189532,1.66255272512841,-0.6312631855279094,-1.0746519325701704,1.4395199371525171
0.609666476924168,-1.487987693057791,0.7269422662622564,1.4117350949283445,-1.4322693444780294,-0.6462165229437704
1.530707555413476,-0.7129580988945958,-0.39488163126859155,1.2961058845575417,-1.3240352468820964,-0.2852457729020955
0.9774121100549685,-0.5596850951853927,-0.8233464799783243,-0.7426685249262346,0.9130477935337379,-0.1847287222908024
-1.4394223570503675,-1.1243745905481004,0.4195412835499621,0.19783397546626902,-0.183363430331889,-1.396411536623002
-1.3875452543572495,0.29987113282785793,1.8536184117622874,0.5243364630371047,0.3123599155417547,-0.18825980355647168
2.0029652088198118,-1.551607588666051,2.1672776078129785,0.3809994323627325,-0.5619651497634607,-0.059137153638161
0.26431233427872425,-0.28721563507761416,-1.13544045793328,0.2876072325540208,-1.1582828569423547,0.6958704984594934
-1.372303690550427,0.47731789475114855,-0.018911040818153424,-0.05787205487599474,0.8395532272396904,-0.6121924291499445
1.5475084177911445,0.2776554314560792,-2.5124880682361033,0.14399631591798417,0.44601269657952514,1.4516628431192247
0.16657484047798338,-1.0789914905258857,0.48323056148527876,-0.32129394211674434,-0.8253830300122584,0.4328525708130435
-0.09823882413075224,0.9757049918777642,0.6709248625859615,1.1396073698351923,0.2873791453230724,-0.10195117561650055
-0.03136334794027843,0.9078472091139481,-1.6035395336172857,0.6391026560010484,0.3824706993857687,1.1964280942613683
0.12025213755805224,-1.5230487644372341,-1.6486542543309488,-0.5514780530522335,1.3367940912396783,-0.1763379311418929
-0.27582436285392564,0.5270506439576739,0.5637722054308678,0.08440491884997581,-0.7292737969003611,-0.001693380147690382
-2.008942684902927,-1.1487620582500673,0.6076672491035057,0.4703525431330951,-0.636136890149063,-0.03649169456299184
-0.24344812950403422,-0.056120484498912604,-0.47747696853734023,0.6293044298312318,-0.40050416619328727,0.37395808588015184
-0.9904828067939228,-0.22526320338290465,1.2778628793090303,-0.26913311416114,0.3248636484042281,0.028408418334206723
2.2201642924220732,0.19992425624228835,-0.7601742227524889,1.1871076230721689,-0.6322607434353664,0.6015125834413466
0.48212830479341007,-0.42420530687777164,0.11416443970449233,-0.05564530166202297,-0.7832449279909504,0.029308872965612853
0.4359126142278038,-0.8374312557580852,0.11573021177980619,0.9808784386381193,-0.3595815663730007,-1.134393747776133
-0.39264695554305606,-0.3305434549418831,1.2370880036537444,1.0289473847917425,-0.8864745508288632,0.846559629664895
-0.3738983740062091,-0.8999496008392253,-1.0430128213530407,-0.9734011444139068,0.2783324353224701,0.413086269707816
2.3196159967516974,0.0756713145070113,0.13231520584397666,0.7281605373346755,0.4650832526742871,-0.3210129150115343
