Gx,Gy,Gz,Ax,Ay,Az
2.585627,1.6055449999999993,-15.253367,-18.52,-591.042,11.186
-2.033012104594907,3.710882683460231,-16.1008525430926,-2.4185024371464308,0.9012602105857246,-0.6137231508708916
-2.031638029812262,8.537237508173014,-11.002671964943213,-4.464576641965351,1.1965691559026048,2.828139261537171
5.502273738804293,-6.860650973470888,-0.27000348467934954,-3.051431558703805,1.1283240319432224,-0.009850522559717911
9.410543342509206,-20.476739327934382,0.5844932693557902,-5.021184720281719,0.4402100292710047,-3.7289658380150956
-22.700564686397804,-184.28970047600706,17.424246744841874,-4.87662776775632,-1.6377830261319062,-5.2638685198372075
3.073387470736875,29.141988716688,16.229309247097124,0.8750044987956428,-0.7027394026925773,-2.8838337089523733
4.633974563371796,11.632743267541965,14.605971728262542,2.7190314406488607,-0.5192454165894042,-4.118804244877197
-5.2626605126110135,8.241907756054843,4.823534573377122,2.101579738412962,-1.1615005166291283,-3.1718068345116253
-0.2915405429187244,2.283240862006404,-1.7543629929498181,2.8494234911612772,5.747117138461286,-10.911147764639074
-12.564822601407034,7.293709429200437,0.019490965836611807,7.8833389993306495,76.75480310802993,-25.029007000700297
8.348532021880096,17.79619925477155,3.5316726698878425,-0.4127400546075073,-18.997464678757122,-1.4984690133568974
4.067934791964535,0.5624333783447725,4.904148528209269,-0.5117309879513392,-2.61083689665211,-1.9692534301087674
-3.435730112887483,-6.893125056509938,-6.207755161717275,-3.9799393583117584,-4.396328499224845,0.27866551362369496
2.7548139521240502,2.3543881864588614,-9.334661180003627,1.0050739761068854,-4.640103978892376,2.6237481121859463
15.15675062390182,7.616632317100853,38.79041051760321,12.861804262267256,0.18595848177005053,7.082753724863549
-4.835710841309878,11.019494038621525,-47.130597211824394,-0.25272312180339274,-0.5219561240127103,-1.0140044961939865
0.4804597412430805,-3.973764561537351,-5.103000651005397,0.2224024965183049,-3.4249493999530536,2.857055661107922
7.687950311828259,10.227306026074851,-11.49757154019193,-2.0042040670664587,-2.601513868144682,1.5516224036881896
2.254075827450452,13.747278865833767,-6.666085130013286,-0.6385769067941642,-15.87548842071222,9.463948835163933
-31.622252439992664,13.258282242695426,-5.509790975396384,4.911042793634057,-18.52817453644767,14.833500990645945
20.22843750645553,-0.7107907396956303,1.990074550923739,-5.226725063972194,-4.378015116111626,-1.2830676358675932
-1.7579024261204408,12.395048809395137,-4.3595546857971605,3.8723085436069633,1.4475728212183034,-1.8282919395812511
6.412826628065014,19.154430307193664,6.303794165365785,6.681411666570115,-0.7062830428908817,-3.2347575418329373
-4.4290192114504405,6.287206051536398,-6.157997471336455,15.134087844611212,1.1661871011928961,-3.8582193466894785
-10.067654158330832,4.277971376285579,-22.547127786177253,19.4375779414666,2.8498308098773757,-5.629966645985671
7.770811710527906,10.464855469925356,30.728135992930362,-2.7755726771375246,-4.777937603368419,1.6397966074019108
2.566150716996001,0.550126278959075,0.8115979045618478,0.5724191152647711,-0.2884875775355358,-1.1238042160081283
-2.436343183014404,-5.652875362814857,5.828195758418191,-1.1592954547720848,0.7386724196134931,-0.3514202598667996
1.9800087754782725,-0.45643087560667095,-3.85250280260653,-4.794082131881764,1.724462937651592,-6.799715632640303
6.532593028858968,10.639301681533478,3.9581651622508462,2.508111089229609,4.177331106013153,-4.7102103654208864
-6.385149877351161,-4.865111443114327,-17.179088598921837,-3.8330511616549634,2.3162308225267445,-0.823418749325028
4.115813896018476,-6.4695763474173456,-0.8670169931210664,-6.980141955344075,-4.130805666227144,2.5137006215964934
-1.3867870311594515,-11.766983557589864,-8.071593207522188,-9.193682144233382,0.2200213758632974,2.366972022184608
0.4704736354734562,-3.255816958458199,0.36706162433327555,-8.263324649826492,1.1377954464466504,0.174282501372081
-2.852044547379221,4.583833358175861,-8.28032692256572,-3.8159087661038837,0.5023279548844837,-2.072043471416279
-0.7156160570204928,-9.186116015329173,-9.607495629808247,-11.280931577039095,2.6859397632204938,2.6260401069672934
2.725208936707704,1.674515733594103,3.741921362829223,3.080070776701496,1.938719406507003,-0.9173852599211699
1.4293838743947032,4.006131395018825,2.833824322314406,0.0951884887532436,2.9680762423732707,-3.8620039951062615
-4.641164635802689,1.5114964563253208,0.7311085648713265,4.174884749658915,-3.2761579134472463,2.260409602662061
-0.2273225927143805,-4.6340234569346,-1.3651443843945639,-3.5738066726447713,-2.7879423134347556,1.0590647147483248
5.618595788641256,5.972818065476308,5.969256438066546,1.0443409066692295,11.635310983387772,-6.537562819513862
-2.3621078653551506,5.575774224386279,2.2810960534816282,3.4360265925914093,0.3577400354880522,0.20557248138057635
2.9139299111156367,6.275824664734572,7.693900075646604,12.39563796426853,2.040909023225047,-3.1913654901726654
1.1773559249946175,-9.907433081390838,1.5015120349142352,1.650571948916649,-4.399110872227615,1.2436573054911015
0.20822480376985092,-4.300179529449095,2.6077816610644655,-4.322744995321238,-1.8432772407397744,1.7558219856465478
1.6462886862106252,20.113527668676138,2.1406185402826265,14.013026600679915,-2.3714954554354755,-2.09349519096775
-0.23531918784634398,-3.791265316103484,-0.3315055406165839,-4.850514405355872,-5.062262285747384,4.162415731177813
-6.627306931490604,-2.6683178427654886,0.3215057334986997,-0.9750475996744653,-2.0584109439332283,5.965548669440501
2.3100750044046157,-2.1841445367292636,1.275143929884833,-3.533276695868425,6.521735309399188,-0.24380314206990894
-0.9981070144010089,1.8656187224959302,1.0475151730656584,0.29067465947582316,1.9214593697353495,0.7037231701760865
-14.373939582560931,-6.941557658864254,0.33491880426694987,-1.5497996328162298,-9.721637220302313,6.159665473620054
6.405188173067451,2.982352930628908,0.41797253776545684,-2.809508838530077,4.353910847780498,-3.870926446479256
0.3934208070959413,-4.91948554781974,-4.2641494856417275,-7.663961650811414,-1.6588789788704172,1.5176807086224722
2.5737605810105486,2.8234373536796618,-5.414599066696832,0.15503249124873886,1.6877669325518525,-3.506496765938229
1.7305529217017388,-2.19527802443728,-0.3612269646377728,0.3991253329869391,0.5464300499975747,-0.562230843860247
0.19090799141649306,-8.317222124920736,0.727957378650669,-7.994752164214717,4.282585339401038,1.449731445404762
0.5694055128894124,12.693596048430285,5.248805042013052,6.01680213951124,9.414896347484712,-5.68088903155613
6.900072142644893,3.2704222190325027,-0.7826977869028366,0.4818811881412795,3.439994933366977,-6.1321999840907395
-0.9242687611564406,0.014820838638192502,0.3565286492521633,4.9968659864067675,-8.34438391597015,0.21021035575711283
2.694861827034428,-0.5347096256643249,-1.525412628160098,0.05270900878386131,1.6155900267971708,-0.934374251240246
8.252186370118057,4.765876364347582,-3.404081571102214,-1.9303584650625476,7.794954533942969,-3.667069297618222
-12.371866440627063,1.7661360997646565,-0.4038375312237864,4.28921959883023,4.687598450101751,5.541367363826277
1.5729049669955733,5.217822417488694,2.8751588575079903,6.2101264543543016,2.2611730128421623,-1.9815189080808047
-4.822518287747168,0.8975650806421811,5.162344531195765,0.3757531472829453,0.5929528626625684,1.7439379872373155
0.96013643979581,1.1493079466412568,-1.5315769585603247,1.6305027600203799,-4.9451519590079815,-2.5193434527981378
-1.4925905472020156,1.8194722379606028,-1.734717399152329,2.4996048564179807,-2.2912513789896547,-1.4492893035013616
-2.65676866151062,-7.625323781226917,-4.354773835135806,-7.760242035770533,-7.0911244231339206,2.51309919646603
-6.603168036574987,1.3530235306882175,2.0977749421146408,1.610221281555979,1.3554039478193998,3.216696775320602
4.041694043192954,1.196155433839696,-0.9451681738106962,-2.384254358663102,2.4654922854858494,-0.3390494868740408
-4.26664013974147,1.024842561579839,3.773381297699775,3.483118829179749,1.9175224242620903,0.49040080861287594
-3.7815585482221046,-1.3481387883452747,3.0992569403603065,1.4085697191236572,-2.017040049435795,0.4224969956354041
9.247427874181534,-1.8394091468189306,0.20622642839060212,-1.151114334820532,-7.399922862373744,-3.1723886233591614
-1.8453013711044193,-2.782352997099547,-1.622281205832043,-4.3246153559421865,0.814504971518272,2.62805895288637
3.8483234345631034,0.6854772617896687,-1.3493116497288886,1.5362715963819582,-1.3425667501933485,-0.856957063669382
-2.073281480768347,-1.4520444833503152,1.9006217711759317,-2.637237350218419,4.174181249006612,3.7550397886036557
-0.8950916478528987,-2.265225371777357,1.557097305626319,-2.0851035975568353,3.7495905101419806,0.9716313621357354
2.421425105793788,2.9033871718889723,2.955395813477418,5.186103391112596,2.5895649277282238,-1.6867919790024808
4.742719514217972,-2.4494749894448153,-2.1852537158328404,-2.619462332022835,-2.562480968353726,-2.8958229286563517
-3.3320919296837164,0.11437456404630653,0.8230067288429503,1.3885841603324636,-0.42149744277103784,-0.7305403054165258
2.901379585811534,-1.6182940642222876,-2.415673159334208,-3.796781695579381,-1.0920594949320894,-0.1622582850756081
0.7845545944707955,0.15163048151457467,-1.6083444448850512,-1.6417987778091818,1.1710606076692025,0.03421025958628188
-7.368689687602362,0.09171081728508046,1.2053871267816074,0.43197172611927215,5.118053654843796,1.2627080953518215
3.3449492645991006,1.1198806508662216,0.7649449928188155,2.556534542170823,-1.18691161313164,-3.1980409863558443
-1.8501863428290393,-0.2550356684324546,0.6630095000189531,-2.71000544980778,0.8575648771279281,0.37016684779237097
2.961994802674802,0.6192671009714008,0.3696703807735977,2.923772583449171,-3.290772860232713,-4.0797157245795574
-0.07311911959689077,0.5621997170481121,-0.701120626472236,-0.9535994190610282,-1.8328482227985115,-0.8175930277627673
-0.807027558898433,2.044313556954004,-2.6837037474212604,-2.8919805200898434,-0.8120699028713156,1.150936808447783
-2.935282537254963,-0.8883568974776059,2.0652633835890515,1.8026343224743278,2.633342762580673,2.0082034192117817
2.9249598859903534,0.15696141761585558,-0.3233977871131981,-0.9275768713009602,-0.06966298914139468,0.20278423737223594
-1.9526307685547852,-0.5899855207372884,3.37644274059729,2.194972893845505,0.2015874439022982,-0.10987598223600226
1.8638759203260715,0.4937290048373222,0.548289603970332,1.5799960373162039,-0.9695194199001134,-0.13944532557542377
3.7296347342489096,-0.24310454129715175,-0.07329122372731334,0.12141022562049075,-0.30031268659318455,-0.05989299306403317
-3.2606152931221812,-0.9811535107690914,-0.5141328253615569,-0.48325771444969856,-0.3255031387052269,1.9286396570246658
0.7057260629746078,-0.4922894664470443,0.12274330139910994,1.334751318660015,0.6790909475094551,0.4588624841963216
-3.3274723601051,-0.5778332116824951,-1.6529049142225412,-1.0336369009769497,0.8791170614780315,2.9567397845722168
0.02064427853149109,-1.1658096485282397,0.6035034731272049,2.2807395941453263,0.8181217564682384,0.030262385417092363
1.1731139799377832,-1.2238787221967975,1.04837001871624,1.489888345781113,-0.017745376008276637,-0.9671430126876444
0.9269016188502608,0.829663173806253,-1.2754921232543355,-2.3935118906821193,-1.4148522386286757,-1.3151163503696992
-1.1291954999999987,-0.7456825000000005,-0.7989480000000023,0.12299999999999978,-0.367999999999999,0.17999999999999883
0.5853042912124704,0.9166707276571304,-2.2230296972208166,-2.0673435385413272,-0.09338682592795677,-0.14127982836914232
-1.837946332098804,-0.9210372896224923,-0.20487193573379248,0.033514028080685376,-0.18416683143080065,-0.33425798126779904
-0.9076047440740878,-0.04554342596154548,0.03636858556357403,0.6506693625901656,-0.4379197736454131,-0.5196529511629362
3.223441768412192,-0.26977348105960175,0.8020332173651781,1.0478187395335654,-0.18932620097488295,-1.3618249605571344
0.43809001951313764,0.46843910595557325,0.4308028932193092,-1.1250022228166017,-0.7773490547605224,-0.33214294010680256
2.370046398247543,-0.6777894883046245,1.5299728962275507,0.7146389921465888,-0.3575865069834221,-1.1392122573061285
-0.4644787223280078,1.1236949446501385,-1.3524079711706882,-1.4559514349669525,0.043676940867532044,-0.27316040339622827
-1.0142742296904612,0.10957793748614253,0.21685786113892913,0.12200597382956024,0.1549775059368984,0.5835161630072401
-1.7834743286697852,-2.7553004354933153,0.5895797419743813,0.995833117070887,0.797482562380992,1.2369268924255732
1.40214377661811,-0.20912514097540616,0.35274464928383703,-0.05537965071004741,-0.07672004359630691,-0.23512484887602053
-0.1176061331335268,-2.719621128375982,0.6974433516060594,0.07832020105611581,-0.582288198992831,0.5275666326846046
0.7498855874559432,0.20078783491234914,0.4634602051492138,-0.34706840461849664,-0.4650414886815819,0.17176051967823358
-0.25526266044309115,-0.6229121281765789,0.28815621644421646,-1.033060186675363,-0.15212050558658075,1.1180008411523121
-0.9400687873033231,-0.5392626097981684,1.2001523834159566,-0.6208604453661328,0.19332667779218687,0.23268401994364596
-0.6144153759368367,-0.6182427162459235,0.4407120457405588,0.17248247037145167,0.04221055830095993,0.14922398729150815
0.17261656348461907,-0.04489976248379568,0.301297728655178,0.44334266255444776,-0.1962666121404643,0.04779007567476251
-0.2658291248859055,-1.9530617099596461,-0.0483984341057464,0.5808897351315776,-0.14933213037605966,0.8243140251141708
0.8015909498882365,0.49833197290727266,0.2629883660663259,-0.6212197850729596,0.11609319298781878,-0.7526105426064048
1.2535081910878958,3.3048227264628998,-0.9545067353386293,-0.3383448059012262,-1.3536289618603528,-0.36056194719771695
-0.21126716175683502,-0.8730309069126797,0.26612976464709354,-0.14890061509200647,0.891642415160549,-0.13260846059015474
-0.7288022357035103,3.0365893221432545,-0.1872884986449423,-0.2541730645280549,0.3529672708350503,-0.0822594132610758
-0.9843022063403453,-1.2633846608601662,0.3860616061717532,-0.6676854861215515,0.6240195128743616,-0.7173556111002872
-0.683672681208623,-0.21581444120590892,-0.3067693444250435,0.6384412714477079,0.6982384723067722,-0.7444993457310678
-0.29576458133381256,-0.6743961936001402,0.40458480020086723,-0.15620916850399652,0.19960426052587812,0.7754040471190464
0.7829500749374505,0.6726018371054283,-0.7039330202282817,-0.06352926642268189,-0.34382553977447883,-0.5932529978295704
0.26277698080848744,-1.0713998447644468,0.26171501643712275,0.3141857651738994,-0.4805588912677402,0.6287948407032613
0.04484150691584565,1.1610866958438546,0.040761282322478554,-0.5111235162651482,0.20700438185202832,-1.3211969113307904
-1.4020664554305655,-1.706273288234509,-0.03753568215225747,0.4160844878936213,0.35982596672090617,-0.08715855767088238
-0.4944506453916855,-0.9523140236498313,-0.27139913748346134,0.20534585912748116,0.3664385758691169,-0.3628912011801073
0.6922168369764444,0.47447578534526913,-0.2720001947633317,0.36860084923142455,-0.5780231551516929,-0.4148796884151982
1.426642417591053,-2.37309315400001,0.29636644758383524,0.3011486648017764,-0.48483615195825847,-0.489739208033838
0.05350787680263536,1.1492076093155248,0.37109675469786263,1.0165785709127855,-0.6858594271115506,0.5550549045258206
0.8549964605276992,0.299506857715607,0.8793535566864259,-0.25150874330542283,-1.0218528629290355,0.18292055614196928
0.5778628581096079,0.347973831415414,0.43355515062590955,0.5997408097840765,-0.2707303203625018,-0.8221731953144211
-0.7646026805087178,-0.5379245875119402,-0.57212105255879,0.2808098636807659,0.4478747243960415,0.6408019291441586
0.5677608312973845,1.0007230905950473,-0.8466558955870307,0.7398231994639516,0.0636479065814981,-0.7337759599142712
-1.1477599200987374,-0.973132029835071,0.9243529076273005,-0.31587392072416187,3.280297398033927e-05,1.7820777414012772
0.5298901431375989,1.134528019783002,-0.19135010056293578,-0.19986143874169604,-0.11133379198271975,-0.07746776040565456
0.830866531567445,0.8638630986927714,-0.9981608908254357,0.4320107709127421,-0.10325742993462139,0.8508346731862975
-0.3362486894469441,-1.1771715295165817,0.16664663366008603,-0.09566723576212688,0.14881784941659437,-0.051359239622271624
-1.3314385110672864,1.081872929462157,0.5362783259576938,0.1379725183852215,0.21533729676997537,-0.11792466053222422
0.968940601562998,-1.2837117840331895,0.16759350993735855,-1.0952656048952263,0.22614879103078156,-0.7390965170469381
-1.0315391592662086,-1.443635514482159,-0.05040610572231563,0.2065262911206216,0.720268330611683,0.37776813316035596
-0.16451630830512387,-0.9339360268430723,0.4176533104405519,-0.4804804635857509,-0.11907236547661976,0.7704888094460778
1.6178588141781551,-0.04172603114736628,0.5836244452279822,-0.24442520665029877,-0.7359372785121252,-0.45783569561079096
-0.6544119957913628,-0.589260759025307,0.6421267421635304,-0.3917744250007674,0.154165465781949,-0.13356172097254282
1.2250311071970632,0.8334708443974915,-0.9829413437859897,0.09374396937545493,0.09749969076088805,-2.0243084724655396
-0.5107836104314172,-0.9857935080368092,0.4123514398782897,-0.4293053895273977,-0.34475922151358795,0.02917447010671992
