Gx,Gy,Gz,Ax,Ay,Az
-4.534667999999999,1.4651210000000003,-3.2182589999999998,61.158,-491.266,34.496
-5.276519538781562,8.428549812917872,-4.383415340149388,-1.1612442804619532,-0.522289267804013,-2.5958593189624684
-1.8723839762984826,2.3126456255280337,-8.979378562234011,-2.2564815684721466,-0.9222356926278694,3.4148842924959744
-0.9686461074133889,-5.86654238153858,-9.136085826208507,-4.249222983921015,0.7304051033625145,4.211006811101002
8.21923820040227,-12.293723717291263,-26.16988794360397,-9.38217909888249,0.38581498590838814,3.782919637783845
3.2974972275173644,-28.7514523854919,43.01544131381838,11.29532189183088,-1.3433345582532035,-2.2643139723240213
6.037486804069779,-1.4207716054009565,6.598471541676048,-0.41683720066973073,2.3143387057742375,-0.5140118566866683
-2.041567969744328,20.51486792225063,9.229541646825254,1.069316352393232,2.0917175310736544,-1.7103103956212866
12.526994859086425,-1.6913190814896257,5.3226224908957995,-0.8092283622537084,7.52813032401838,-1.23997190043022
34.490016747303514,42.47286636960022,10.012225489798832,-1.6791089429050077,70.7451075240813,-22.344559414529268
3.700298399263517,-7.1482435127820425,2.2081983639338074,2.0352299193428465,-15.86667451721726,6.31881423723737
5.977543871469921,-17.56810015843628,9.427962968744543,0.11340853775951665,-3.6277284069205065,-1.9608079309257778
0.4085483003519552,-24.989718985138534,15.97579305073579,-0.8387827826242517,-4.180860828221718,3.817040633578493
-3.586937079465845,-37.3267745868655,24.797083450821937,-0.1637283157913848,5.001849945960131,0.8300018616823941
9.450185722945813,46.82953301758735,-69.92507077929048,7.845200945500744,1.4566039649052371,-1.9642567508399673
5.764023284640384,6.6018981068883384,-3.6140693902831442,1.0798985044320697,-2.5354286700602455,0.1826452087820739
-0.007060852190320155,-1.3788061629239567,-13.162282447297065,-3.3430024186252396,-2.840776287893832,-0.2463273845722389
-1.200680620442637,-2.089783820035449,4.092393488815089,-2.8126969158486492,-1.042921770589814,-0.9892850628898708
3.604109233280342,-15.241174778209878,1.01098230236766,-1.7080735069317488,-11.40023377668865,7.767442269829871
-13.6875151750531,-5.895353028335244,-4.367998359790957,1.1092742971491418,-3.3678999796501365,-3.3239203204817813
-2.7251657887679945,0.7080835044319045,-1.124622344963548,-1.8807666265255385,-0.9822642365805672,0.40629122839704535
5.524653088255575,-10.150913580791546,-3.3293880111484118,-3.2172303763950847,-4.201587169583216,-1.2559149863202006
-9.744103711052148,4.446774029022782,-4.853435719020125,-3.6904651407066207,3.525891352336635,2.184027953090976
9.001333955365691,18.465732799867936,-14.559065563680287,11.598803541204308,7.010592702333181,5.033343497102981
-0.7715384751862175,-2.681003301540969,-3.492238075818637,-5.4976074514067115,-2.7115311388655208,-1.262050084440499
10.41812921404158,0.3989261128438777,0.2944769798776088,6.2491955747111545,0.39660014199817795,2.9156492244093872
-6.799452463961672,-17.003276169490004,-7.5895874086687725,-6.576476485799248,4.017807413395633,0.36234523067921764
-8.997080927042148,11.816763670873453,-4.265190564565364,11.01311082457466,-1.9120523724685832,-1.6905842598137353
5.589556929458208,-3.5932526532003326,4.932352113361155,-6.4299659966413945,6.751251605384974,-0.646043802942119
-0.70233435623915,2.7710190547686597,-4.247185955708382,-4.30416880085096,-3.545413306394984,-1.5243259826611864
-4.026610363984388,5.495081197464998,-4.109905128558363,1.852711351321049,2.2083293094060266,0.5602644510170132
6.211171544826005,15.61857409229405,1.3102945899048066,9.973791718422378,-3.079449586107949,0.3799523871927972
-9.158666597516898,46.754571071052766,16.02471194754155,18.0830343412225,7.46542494833097,5.843074196816313
8.227941920754379,0.11376805053914651,-3.9489123714672267,-8.56817639182847,-4.003820102821724,1.6574089651333819
11.618254802092805,6.5980163523712925,0.13247464912294404,-3.1288686545682314,-4.450178137906093,0.48721557984854513
15.830676854309404,1.327735260520344,5.159792687442201,2.6868165963315223,-5.102459599710532,3.130426913525347
1.7307448881435104,-6.3810805745595935,-12.483244147107774,-9.887952120623877,0.09525841086661213,1.6658620321812356
-20.868446906344587,0.8302875997128538,-1.4359379235773608,6.358303626985966,14.538483071935662,-7.430933375210738
-1.8283831154012533,-5.679911551717957,4.426033033040827,-1.7236691825646133,0.8010960941172172,0.657083497976611
-4.939767667108514,-7.728315148413318,-4.455836380095562,-4.691649027948467,3.113781684136283,-2.901656532754904
-5.352857884192681,-17.82241081463809,-0.04952401957365682,-18.04337967017585,2.549545220531082,-4.805606590269354
-8.521015702971404,-16.538072011677873,-7.129573428270866,-19.073003621122737,8.834225905881949,-9.765786582653384
-9.349064032256617,9.153380873526896,7.793714641598144,16.950328998807297,0.8936155177348108,0.10910675223267075
-9.514320425871318,2.8186217457998475,-2.3237782813034116,-0.9854681846568383,1.9920842532619145,-0.968210149759859
-8.922635112172891,1.5591815260610256,-5.3601796495174145,-1.594246421163936,2.2722550940267454,-2.5491343735883465
3.073545937430512,3.3138015615596315,3.5291369946500257,7.305407211045289,-4.195718482608129,1.2891596695991134
23.780375024541193,9.818259337187744,-6.967022082088815,-0.49514056760043124,-14.193899076673073,13.488181857008469
-3.4676891743122993,3.9070853312126568,0.20775910028745326,6.72931103680948,1.9479796766742965,-0.4277940455868146
0.136007027655344,4.827269718168761,5.34094849134484,3.9734510258958333,0.7646436310767661,3.166718817690121
8.125608398666476,1.9066128537266125,9.54353550908288,13.186503060075157,1.2660943802169262,4.068527546337928
-0.28534512089362285,1.5753674080167146,7.783795608810983,8.627665216804226,-3.0609547497813265,5.314196423079826
9.074782579593819,-5.1763761803115536,-2.421301898765514,-16.0215116259568,-2.4435250739916867,-2.8462596176843307
0.5171544137919806,-0.9037412849172324,2.4334070781788832,1.408025073173556,1.5801753663588864,-1.1694554437955391
-1.377663131988141,0.5619892018881103,3.838603768900859,-0.07006154148069044,-0.8775700099128556,0.021210479778728697
-9.733604354427133,-2.837926089668753,3.1848425659953814,-2.875659493677879,1.275419793235659,-3.8544595841078357
-3.3700999730665067,-4.244522805638917,2.767374318852162,0.9653259551445403,-0.04211833052759195,-9.376612708748187
1.9915998094517935,2.631174767238515,-2.1053664412233637,-3.4071416454102748,-3.925683927136057,2.5552944356720264
3.8500004152247262,0.24737353206305213,-0.6824348118630568,0.9524158201542017,-4.436101694374825,0.043487048994688804
-5.162975408524165,1.7673396875909868,-4.5837511779802345,-2.5119812946981885,0.552774670764612,-0.855550316916413
0.3793866579843046,-2.5055116596879614,-0.9405376412784967,-0.9518500742039389,1.0856641733375474,-1.1786945364183405
-2.9767402188242604,0.6208939680054124,1.8944955953909886,4.910505461968859,-0.016586544740628817,2.2460280393390613
4.5266769602389285,1.3283928423516986,1.3317919335446007,-2.203864354874563,-1.8285487872472768,2.1109266383727086
1.1748092691401144,2.0014855596452588,-1.38320997979778,1.1578848209984578,-0.6174131858164004,0.48617253341763744
9.378205160107653,2.018461560097457,0.43373524244905814,2.700665822949592,-1.4258977607288097,2.1543921727042217
-10.932691359440858,1.5598807935676158,-1.320381610176967,-0.02963079770567867,5.415291071885271,2.9671239507600737
4.9930682817914365,-2.441460555299768,4.83939010796922,1.3938812908563771,-1.4477508402165435,-2.6179135087353043
0.544883096155321,2.6724626719736353,-0.2620131204319991,-2.4566854950988257,1.1979922703662247,-1.1650255180345046
0.3985169680651426,-0.2474841400255624,1.0616685328765212,0.8720223612019279,-1.6218411036479066,0.5385119801718328
0.8767442536856048,1.2328171586811647,-0.9402456453146316,-0.18633713320643608,-0.23780448758644468,1.037112562010301
0.7701136071938193,-1.0001215032714579,1.2897523284395835,-1.1678210518031278,0.5669766648435018,-1.9954206632180695
-3.966935483328622,-1.7797063064055378,-0.13602170997619245,-0.5450747618769403,3.245748176317877,-1.4340441426028434
-0.6574239402352902,3.2169979225278915,0.7619340376314749,-0.8341895660637266,-0.2009440237933522,1.6886640465578555
-4.621362670196948,-0.04343366883988253,-0.34858984792599235,-1.2829824276295485,0.8105492429946266,0.7101884190717962
3.471849800492379,0.9109525725621792,-2.9218095171912024,1.093640556951501,-2.8301300995814995,0.6543221649536571
-3.3751452135182793,1.1760986259735602,-0.2788045032680656,0.3169856017046833,0.7569274698557917,0.2716086426242522
0.991439427761516,-1.5885096067858289,1.0053781509777913,0.4645214986572638,-1.0653165819882053,0.13480104002874493
0.8200315729296439,0.6469446844621638,0.5164973488924717,-2.024060419588151,-0.33881013985853414,-0.6700219031751633
-1.1887176632431944,-0.25818594414892027,0.3508269843768026,0.37890506356568154,-0.06411375955275755,-0.4883859019697173
-1.615349858108913,-0.7213265592937264,-1.6457425796406895,0.1248695708206744,0.1404943587583195,0.9800454706110003
-0.9726793254130761,0.5781648112538711,1.6871982727260642,-0.8247247227594119,-0.3281299283602377,0.6870474897833816
1.10531483684812,-1.2108020440701548,0.08561744496082535,1.2848510128130937,0.117080307849041,-1.2859337134354458
2.77004617006145,0.4520030147350096,-0.6655341241352539,0.63202132185571,-1.1882832331126059,-0.00016500976579347792
2.9532762384114175,1.6350196682988285,-0.6531627145351755,0.2517852455326879,-1.4503550768813416,0.20389205629160712
0.3070345467871536,-0.7547518436256533,1.1117942529862992,1.0847401343124474,0.4053723858897027,0.7202810922301162
1.8156561446858963,1.4928824773385259,-0.35100210457849634,0.7776999976354171,-0.2591531795820752,0.19322413333651633
0.4147813780568292,-1.0787315741580392,1.2209700277779603,0.9819023167504755,0.09798536035851058,-0.1944762227156387
1.5950399412926521,1.728497639114038,0.23490323559124557,-1.0575801841138412,-0.8355417233355584,0.5579228194393469
0.3144859414857212,2.1404384925581574,-0.12315932017344855,-1.3208502350402418,-0.22286222314357573,-0.5110883831352454
-0.49702597238208956,-1.2385732096650435,-2.5286143347616523,1.5711150036600308,1.0445073940167773,-0.8678430278219775
-2.91487610449132,0.5860161919187356,0.9116681783476832,-1.062211224591008,0.5883677767210355,0.3758106875295007
-1.0588331047510189,0.24720270681874013,1.0026072838371631,-0.5436885059848953,0.9375264679386328,0.15025441154259855
1.7920468567648158,0.35901974845996065,0.7889264138654413,-1.0044629455832432,-0.5183959591475716,-0.020761901773197255
1.8366091564006526,2.165448411607764,-1.8038513980621345,0.8654428264719551,-1.5811026810842255,0.16326727189889167
-0.3984099652637934,0.08307533008882828,-1.203799136219694,0.6430376078874981,-0.2299801072337886,0.06533319637176072
1.061878294452107,1.1283747955328918,-0.8344000975854029,-0.4902575029003984,-0.7279720051167058,0.5250753022595518
-1.399935014534457,0.40348290625753225,1.7881666092910335,-0.04999755963890601,0.4740848908428992,-0.05546234956357976
-0.23693238029146424,0.6279475615874457,0.8671587286784226,0.2495880127946366,1.022279225656866,0.11515784904709131
2.9248733182573243,2.744351463767707,0.9368505199853876,-1.6098910286059125,-1.338827335703837,-0.00724168365670852
1.9572350876527356,-1.577425033100858,-2.264217642544387,1.5761863067567976,-0.304616704450723,0.6299162642453905
-1.3576783688898364,0.8282224134555312,-1.1732359638597496,-0.21331766039546196,0.1358137820402367,-0.7616243915894272
-1.9128025127992458,-0.19085842789052754,0.6854245740404159,0.5263392112903784,1.7310650807233268,-0.6174726666657573
0.988332476567979,-0.5371211348609031,0.96136778009225,-0.3271952543834735,0.541927931329464,-0.22945179694873308
-0.6002068820687275,0.7476449245744227,-0.5779488488130328,0.09151033078481774,-0.6596548836206289,0.7411196494306695
-1.2733192715874504,0.8663624548759697,-0.42035164607437864,0.6110848247423748,0.5179137542611651,0.3495277336285468
1.9276765345428009,1.5230117431299188,-0.32013113456348175,0.7059405229552371,-0.6411681851868707,0.059354295615990094
0.5781918916396105,0.7259276324611885,-0.2361629608595246,0.3319229750138277,-0.8307880268031577,0.5199199052353457
-3.9939486760358753,0.001507000549753057,-0.5019187255885171,0.3356345490589915,1.8287257030686372,-0.7095182675153963
0.8158222725316602,2.3631555558955633,0.19916162804958243,-0.7396922056641824,-0.8937201309008148,-0.074291086382131
-0.2413055837518835,0.0048320780517896456,0.6632878141454076,0.35798083395733615,0.2995038722325121,0.8009617896040606
0.7225119896700067,0.6237132792807334,-1.4195464921768157,-0.04094114211232805,-1.7578188270933446,0.8329466576798772
-0.38600220897242943,-0.5275464270559891,-0.600338929996652,-0.8413565133665029,0.22493857449769772,-0.4725980279429578
0.26967313412619065,0.3052728855967113,0.17836507061136453,-0.5163759289281764,0.21556784583813224,0.06911957730827373
2.014566083343977,0.2732022479041394,-0.6504927147065024,0.5152800013572301,-0.6858275186852234,0.4290801880803294
0.11363010913642224,-0.9090826609477413,-1.4937871513319085,-0.4133520045342738,-0.7316106256030646,1.060468614479152
0.16757306606833516,-0.2027698792638698,-0.939276495126815,-0.0637754389068575,-0.21366834186895545,0.6736014916105326
2.093846778035874,0.7058580884024981,0.7415167239659198,-0.2960474066333815,-1.1953593612578317,1.037621007334915
-0.8548457417087556,0.3637340026128586,-0.2578563302739767,-0.02803560586759757,1.1398146458511422,-0.3892807122138924
1.2813013116065854,0.23534184853983042,0.2290486133509403,0.0051199837630538925,-0.7657571632916966,-0.054436580437740245
0.08218372129023954,0.11500386371215154,0.8312774603240383,-0.2622710752014762,1.1184785890045439,-0.25070640570817687
-0.13658971003940895,-0.74913365762947,0.7905688766119026,0.270502221585295,-0.5612077019235944,0.9631278246198101
-0.9098557975976941,0.5890921340693529,0.19354544990132577,-0.10779214681881566,0.014714229552167057,-0.5328041721781387
-0.49786649516268633,0.12816203531061077,0.15129356173951247,-0.3728327503230817,0.3691136349044277,0.0007365409305721826
0.6606985954765413,-0.007114384044873301,0.8477711033984114,0.7105113406569781,0.3376319474352427,0.1024365020024996
