Gx,Gy,Gz,Ax,Ay,Az
-10.06344,-2.534979999999999,1.8044710000000004,11.124,-487.138,80.49000000000001
-5.661105209756264,2.3389655685827684,-0.18411552515144192,0.6826875875535761,-1.505421169724212,1.5390779948501785
0.8915382119519801,-4.171948809370319,2.220375713799342,0.6927794000183881,-2.1624373225253124,0.017575655727203543
-6.42269866168052,-9.750048584483856,4.809265909551916,0.55004939808466,-2.0756122108695028,0.7429774273028216
0.7190239812003645,-6.952918653401069,4.244237873670235,0.9216733936647863,-1.1270942782141418,1.8628750809567651
-7.123558473600917,28.798939903299026,-57.961226095800534,2.8281718119412167,-3.234319667771483,-1.203853787160467
-1.3140091747690508,-0.6178005566643309,-3.821664408553386,0.01849326768113163,-2.778216261251401,1.0127322962505285
-2.367954554266328,10.059351042356381,-4.940296377035609,-0.2428846695362526,-4.642872670143026,1.4267929629383844
1.4482248498857504,0.38399266670768106,-5.084220425345675,1.6308612633121369,-6.6965794559662415,2.1005977578243002
0.5449525059727294,3.2833509603742623,-0.5870696092895753,1.115155611762805,-12.164435590744366,4.446697043286259
-1.1328875743880191,-3.008041123718087,2.9608315850894193,-0.9000351667185579,37.86577837645177,-40.371630697753744
-0.22134630503804753,1.0491332561411788,-6.538876088052383,-0.5311877722283642,1.8024505589586166,-3.399709508961358
-5.033001785084682,1.8292971521766348,-2.058802394025541,0.6053153644813984,-0.12031616475275793,-1.5725631594383391
-2.2100438968983225,-0.66250338141988,-1.913881829937356,0.552519834279425,-0.03269394308959639,-3.207747089234503
-3.605213139793914,0.18592818214613738,-25.53303224419428,-0.6363271665576578,-1.944661255399539,-3.0879670956468805
1.6210752558728179,27.36718859223999,75.83352021449666,8.726286518133815,6.5042856785398495,0.03638556829565076
0.5944504173194398,0.728108786708632,7.270989516567276,1.0551519900349489,1.5229133727869224,-3.7226173965397074
1.7654979763097325,-5.594755661923076,4.382348337740362,-1.2987255103220288,-3.715382277084771,-1.5666907861821766
-1.5000453189322138,-2.2333372492691677,9.203367781943804,-3.29711151608635,2.1055229662806423,-0.11840568365503623
-5.91367790260415,-2.17247993099145,4.120659536657847,-0.43993672427261377,-0.24428907022989144,-4.756347996381259
20.04082440490283,11.565083815986977,2.3752231678468956,6.741654121558373,0.5629938100551808,15.010194543079434
7.88400775581151,-2.016940049773679,7.6827073875074445,2.928733551221332,-0.9181344776847186,2.6101102463075123
0.05773896728629335,-6.91722353951182,7.3098005991418775,0.6716077758533321,0.8967906758585543,-0.5653493717755891
2.788638420137175,-2.991554139548221,3.2095427406469894,-0.0922595275361747,2.3306993629835944,-0.8951594484431746
2.962149045592403,0.9716684475951574,17.13278963628379,0.8535628656388881,-0.42369781189253786,-0.1443523081209257
-3.7395662595943,-11.678827237794632,-15.716099016135033,-5.074613245902363,1.4156155331303415,2.054056513557313
0.9938696322716214,-9.035231357676171,-3.5027660225169317,-5.683373964023195,-0.9444176475428114,1.227101673309002
3.0347733551074483,2.213477775857725,-1.9613146092904696,1.2596352492595146,2.764924181362485,1.5663101721658035
0.44556416646958413,3.769926969340119,0.4029500700872204,8.302277179335727,4.892368259675495,3.4903005643282543
2.2614910111516138,-6.072683758071449,0.5015620077876193,-2.73110000144159,1.5485458607803908,2.494781992909077
2.6435243776016963,-9.125288660100257,2.7619701195122945,-4.90094304124819,-5.0767166901183245,-5.894935490646041
1.4533317638813745,-0.004797745153530819,-3.9419662690046833,-0.881619677784583,-3.7598001586869776,-2.6733135651009503
0.9160064303246775,5.947813385820392,-4.137294995631685,7.908683230462943,1.0885978200944755,0.5287646290514418
-3.4998320581641376,0.4025844686443486,-0.05903951976742869,3.1829164310936933,2.953669276282192,-0.3875102089777752
3.0653661186351,0.13298524134749257,-1.5815540269113713,3.546754831390751,-3.012247018555378,0.08166963227868251
-1.123410796514537,-2.8923286772935857,5.5487271958299145,-4.364852186238074,-1.3951862979915024,-1.1952482621227587
-1.8303418773065494,1.6028388234305893,5.914781029205681,7.057105930515215,1.618778782311455,0.4492641142075451
-9.56304871493483,2.482464876341527,2.328458946660342,3.401744240187653,3.4873239389592348,-0.9225277242346297
-2.0027751625731756,-7.319429362686428,-1.7830435163058191,-8.085865706532472,-0.4474868541723338,-2.851374649962178
-4.5023394715538565,-0.06359226428101428,3.597826004090475,7.55723281191972,4.310771401225619,-0.11787006822328472
6.193261546313226,-0.027022951236815196,-1.5487244190926235,-3.5509155676330306,-4.5780668551363775,-0.8862580142862766
0.0439758663261649,-3.1293580596779798,3.0474636772263066,0.1499021880447583,2.912091471530164,-1.3290234442872182
-1.0273517260992575,-2.734143000199785,-3.3728120212816144,-5.434881589481934,-0.3123657484567759,-0.6422845665352369
1.2753168840474898,-1.3239443909105608,-0.30478042194128996,-3.2879396247376436,-1.807878429144865,0.1950177422062055
-0.39601743343123186,-5.928648131066895,1.4738160494910995,-2.4886143342289633,3.9776148494049193,-0.17491551822527301
0.43375440394992437,3.4720225913149942,-1.4521890960658173,1.2427796307301668,-0.994630070510794,-1.0621640754880908
0.8765302635377801,0.6987868773969228,-4.085244674543696,-3.565663758509924,0.30251561601284815,-0.8012277905751329
1.3814173638255927,1.4507049992270724,-4.63046833982999,-2.094773036726484,-0.672216714671666,0.7508603002022121
2.142507298485585,0.13860994759214407,3.13056762505492,1.292787149535466,-0.08865786471054538,-0.6716465753229608
2.1516580822279012,1.4831944158377168,-5.370068610719004,0.6910619148200217,-2.52731810686104,-3.34065454239671
-3.5985946562834474,-2.2679935093884205,1.6681113801296221,-1.5230147247698103,0.7737907037180385,1.7533929908921424
-0.8424895336618115,-0.15016175692349853,-0.2042725909194053,-2.3577031198598197,-3.058450417305636,1.1280497928485858
0.37361656002775145,0.2748729828605786,3.651391966834854,1.6551186714616972,-1.765006400482178,-1.1203248906700756
1.3615929010261323,-0.4549743626146232,3.2836284681155217,0.45186335115587906,0.5937304056886179,0.3640084534781707
1.6429787079074987,0.47949893577182573,3.8121890646964713,1.0008429114395692,-5.4335218883990315,1.3917884134344098
-1.6802365237646875,-0.3245833878576194,-4.233198354719625,-1.7088300972309527,3.2354345626478596,-1.6817536513204128
-1.411958825927644,-0.12169888860936867,0.2937141725373893,0.41133345947906186,0.8728398351053968,-0.9871085049814481
-0.17111756378049248,-0.716920313887117,3.347935405454542,0.4431721425165236,1.7693367633417107,-1.1309241021365506
-1.5995169701683098,-0.8023699785720817,0.7928084297227249,0.1955467044081738,-0.05058537897933357,1.3412537300070877
2.8265172404782843,-0.5038317866340032,2.424299302814477,1.8812843343888703,6.36427176404436,2.687888251121696
0.7788223001078961,0.7143485566546035,-1.123035819107887,-0.4175791118301415,-3.1495307549073734,-1.6222959641655446
1.9118999611227054,0.9928115994877915,-1.968502107866287,1.0368002463995991,0.4028822119401765,-1.0288749366761654
-0.7364848100990713,1.0581901779563965,-0.9822359746787194,-1.6598489220885617,3.25559671104986,0.1856813600760001
0.24572572935632753,0.23512556256192885,-1.3643876841783258,0.6380176102066821,-1.2390824239103342,-1.7359317606666769
1.9073106998630527,2.3430605377668714,-4.220155936883595,2.792371197440473,5.553003134472889,-3.9325498822587
-0.06200006467530628,-1.9460492639349543,1.1431720439453539,-0.8121009261292431,-1.7045879583329642,0.18559647896128173
-0.25025534483844303,-0.36732371344001646,0.6066413757446676,1.0698974367809764,0.9100882446731903,1.2425844469287468
-0.185206032592106,0.31676495037468766,0.0018922249152732995,-1.09933407866509,-1.512549121677083,-1.1848921744350611
0.3672056180459858,0.7403849700595274,-1.2562821992850384,-1.631462898318602,-0.6210355008391701,-0.8693663184577671
-2.9233930206351877,1.2702660205656655,1.6332560205096214,0.11069973650702858,-4.438313693297665,-0.4078798404000571
0.927654708269098,-0.6829042942430991,-0.6213228465128844,0.06322160069968863,0.8216468892785439,-0.1460726004948597
0.2238067754243388,-0.2516427579788617,0.06868990439776168,0.8004339783553649,1.340456915614881,-1.7935726082097279
0.050069041116843405,-0.021587249934882147,-0.6896712407545798,-0.02072804733740785,-2.7399776985270847,0.020285472946605765
0.3845989710186062,0.4975114599898689,0.9800715253989443,-1.1573088021456417,-1.1370373141564372,-0.11794104574999464
-5.812854200299332,0.17569234868134853,-0.07052259208058553,-2.1059117089558494,0.5035719446291282,1.0201385454909466
-0.12314598282734102,0.6552346936687992,1.5354083078677605,0.42159803730489165,-0.087522645444992,0.07007664373666822
1.4791840560326215,-0.379076317258344,0.3650789265507739,-0.7011142493918409,-1.456876376985126,-0.6879523849026676
-0.9445436291291984,-0.3842851609486607,-0.7279321295573071,0.6864258433796449,0.7492646790927115,0.1765331368470464
1.7605210422643027,-0.06961362853878816,0.4361648433747622,0.8529453629761966,-0.5144856012478256,-0.5653124552419785
1.836302546480025,-0.6497991225147142,-3.066422622412282,-1.224797511240709,1.1359681565935045,-0.8132813553348455
-1.556734740268373,0.3297183476105834,-0.407415324844812,-0.013724897003809466,0.44740901657996207,-1.5603874832537725
-2.6553517438628464,0.059170973015929884,-0.1365680920307133,-0.4049193481257167,-0.2246260574273764,-0.009557873805957517
-1.3386424805373318,0.6633155437213619,0.10405005306165438,-0.4493384610096246,1.0141015630618853,-0.3780166316126726
0.3972717480006934,-0.5166972169648937,-0.14706633305513805,1.1335842954069208,1.3623134103471362,-0.9029863047887601
-1.0783950600493877,0.011405484857257675,2.0841612988195655,-0.41061548428331474,-2.0593784552449477,2.4476884091905013
-1.535441556285822,-0.3076271189106463,-1.1956794885180586,-0.29493293907149876,0.6163506119724431,0.057898972685467065
-2.4103581662685,-0.9938251466662237,-0.32372981251964095,-0.8522117637096089,0.177583774066562,0.2487853043226691
-0.1636660277975938,0.41286278112064834,0.6059329033723047,-1.2351142234643306,-1.1736859826271873,0.377301831379494
-3.097885937507787,-0.4897245504167298,0.40862215806867414,0.12855863886199792,1.6416465829076965,-0.08043439022191767
-0.4725630033456507,-0.3829903428862938,0.6460405463862958,0.8059063839464093,0.02514903389348727,-1.4545078673407628
-1.5834833004346633,-0.45128292008239346,-0.20016621920642863,-0.02854475118391972,-0.23214391409177565,1.327100202723893
0.5612895904974586,-0.3842233750461246,0.15541730974030776,-0.2798780404191885,-1.1777572561204308,0.6726902452371603
0.29698931788584826,-0.3708840132840341,-0.678415284973213,0.6928408714328138,-0.19255603065771454,-0.34489353373433795
-0.40189492121265114,-0.48300757499298463,-1.0891149239078646,-0.21825438222295213,-0.8230561351240907,-0.10147870118658683
3.270297957835204,2.261868475577397,-0.8259387004340057,-0.6597037224782731,-0.05171879755133202,-1.087768424665132
1.1765798689925155,-0.6550530638713778,0.32907180615220444,-0.16574325626996642,-0.924278523549691,-0.9292367640476374
0.3898878590157744,0.42087281612200866,0.02793618100321113,0.4667616021095802,0.15463110639398325,-1.093946321207592
0.42430022571391784,0.23012568057025384,0.3122503894982509,0.4590200230495848,0.6374406216470053,-1.0765927733318468
0.2675886794812079,-0.41569928818577945,-1.2052947996531365,0.006326972502389894,-1.467806386470354,-0.7225463691267204
-1.712514172862095,0.9259566001849548,0.06019038702622517,-0.0037274019419836213,0.28778401439767176,0.6558484630592217
0.36850847245381024,0.14336800903205216,0.8832422749013418,0.027829325400036742,-0.301435375268956,-0.460546015080493
0.18248976887173463,0.3127887719443374,0.34180204011232895,-0.029031139170434345,0.5994498681605545,-0.933377746178725
1.4471843445984114,0.6920609420281623,1.5042176825971496,-1.251761361939003,-0.7888923297185162,-0.2854289375927883
-0.11174136587943903,-0.20606644585857692,0.4081537851587552,-0.7149718860461368,-0.6305748711311102,-0.22848489965457547
-2.508602607141186,-0.8986701176314769,0.6420868219891072,1.050937796948227,1.4335734550063006,-0.269591668594845
-0.4977385902191316,-0.11226766364065266,0.11825960019309745,-0.016012414686966757,0.19867242612221717,-0.3504973180550821
0.9630657267125255,0.08713238165816806,0.33974777559579356,-0.2844698933894664,-0.8867141910135868,0.012746341536607753
-0.7930894260439805,0.2484634275216343,-0.00960549475503375,-0.053531590812973595,-0.09061182561960779,0.11614896643060862
0.6538690338009037,-0.29111151133360935,0.05938765306098513,0.20227867312452263,1.2062325519204955,-0.2938528240829724
0.9495076983285241,0.3246218523881954,-0.36877998760820674,-0.5483663103804202,-0.9143151301153709,-0.421456225653724
1.200927874109035,0.6235420392469911,0.46592675623292856,-0.6659341406935649,-0.07973107432032839,-0.8615615607659088
-1.0880567557801255,0.3618749809198959,0.270021370482571,-0.07152743257635122,0.6402014572441368,-0.03698887930444439
-0.7824072971282967,0.2165816708663813,0.4435213320602871,0.4504820339830409,1.2038356100867698,-0.8647062388238862
1.0343754337682514,0.7829734699885567,0.070907621405067,-0.22564973518692427,1.0392035554404135,-0.9274889692000369
0.20235588831104578,0.09134216726250666,-0.23749924416082102,-0.34979259190515927,-0.5151788286851109,-0.059946798251407585
0.5342493932094321,1.056234713255202,-0.15328072464514694,-0.33626585616297233,-0.032053198624388324,-0.01934738100175115
-0.11465634846516126,0.7970205927483525,-0.08342745864112883,-0.14782295786788194,0.20137565090533205,-0.08380613961669947
2.461681381778857,0.3852734235810048,-0.41686295961766784,-0.6711574685310777,-0.6738001200627889,-0.08272722910530442
-0.4887814889380597,0.5616734587876349,0.09623361450262352,-0.7282661589119219,-0.20531161998637681,-0.40298739533644545
-1.3503681482527221,-0.2880732164244386,0.34430681419687054,0.14861599701602712,0.7384818854769062,-0.5823394302373237
-0.7555384279442485,0.6677180380078936,-0.31450352290503525,-0.09357196090356434,-0.253342251825982,-0.11767234879663102
-0.47594681057337207,-0.5730805011766575,0.009833833650134016,0.2072669769768839,-0.6629982426559069,0.2526517244223988
-1.3246311843459844,-0.32082355467310975,-0.9536695146774706,-0.009359479249175837,-0.9736848635343209,0.24247460271440058
