Gx,Gy,Gz,Ax,Ay,Az
0.7053970000000005,-10.587755999999997,2.2233339999999995,-5.718,-360.024,14.393999999999998
0.9529289906172459,-3.697652052834762,4.370939668248263,-1.9562263843429557,5.825573893010112,2.620834278285253
0.17665642399932333,-23.194135851134718,9.33091419989323,-0.9083284040656926,6.006803705488755,-0.10687413714979663
2.6094893911727173,-27.857421086051808,13.524261793066753,-1.8511040055537435,5.594244381830074,-2.156628957573603
1.8749711505394058,-78.59264328148078,32.8059652518716,-9.336456558461963,5.393034598948145,-3.0152810445429106
4.576610235697931,-2.5318365314058093,-0.9416027903858094,2.827384044047286,7.869764083613546,0.02321953535964888
-3.1410878312396577,15.467741232647354,6.525110009349568,0.1259805136951177,9.180233115119924,2.1979994937985716
-3.805168676982353,1.7075929307023265,6.426736360435609,-3.6353093973757105,18.451300949609667,-5.8866460039755975
-8.738366730308128,13.452456745192173,7.872733143256816,-1.8830509903490864,76.86649978481056,-9.65414634616045
-4.511576114037772,-9.947807379050467,7.9482177303501,-6.5645706387416904,-23.68693140989668,1.248044052104932
2.863296273981113,-16.496430614619722,11.941296261657346,-8.56252353900481,-3.9035439078988388,5.84916903696345
0.12031795462647032,-23.821694919892884,11.44707217180304,-9.728066335130588,5.0977269069439455,1.8351328721471076
-2.127067502993329,-34.89881781120698,40.57962956730626,-28.04887028261105,7.88942799602968,3.964537190224342
13.4119380463925,45.63309454933584,-21.490889503929882,23.061205111688817,-1.9276504316630954,2.8666267923173865
16.093626383990735,-0.7422197574179497,-7.045865278174255,0.6136802447726192,8.439476618586912,3.2550501383617423
17.417839021158354,-33.47186753102576,-11.886548673229422,3.4802877511628996,6.986786312877646,11.843552427727333
21.374328355580417,-20.698743791751117,-5.82566854930736,2.3711110916740434,11.012827117430959,15.286919188366253
-24.68914421791402,39.661600933297564,6.0630319452823365,4.126891285306302,-27.38149238901051,-18.38336012975929
-8.183548334245666,13.362327785521902,3.753807641538909,5.164775664921223,-7.7386543666052425,-7.231784196570038
-2.4690358299269,7.501115005336757,-10.82285234431571,6.349133790486197,-8.166673898805966,-1.3333277423383523
-2.203513240352409,-8.159063378939225,-4.657444505351276,1.2698564777584882,-6.960330049257275,-5.418693842127638
-0.5364975415581235,14.732764777694971,5.563287104697803,1.8369190787337404,-2.2995895205809926,0.7259734869912773
-4.224418330278582,10.027998669926793,9.350260862653922,4.823682865550595,-3.603680871821011,-0.8135789619886371
-3.318549566651238,21.53478157163387,-0.785719877539208,7.165647598607068,-3.3350138803612532,-5.373835252470251
-4.767998117868308,17.38938339976895,4.648668665598253,4.29278297386539,1.9314932520733767,-0.7736279330775361
2.497507266789439,-13.332844685490185,-7.384659766507287,-9.98254256874052,0.14837334929260226,8.898886311518371
0.5252912908177081,2.4359561823933116,-2.229577890487626,1.3421514105515269,-2.0960440178412294,4.085390878366673
9.029589072250996,4.845009069993528,5.233148029312667,-1.6436458924184523,-6.315423712844658,0.005991638978251154
-4.62774272404891,5.966378256529694,-0.744579294558976,3.4944677326383715,-1.303646281482586,0.8945863258539906
-1.0464719798784374,-9.744973909935462,-9.58075120830499,-20.96351626939836,3.651687283806907,-4.087027524282167
1.935685757142966,-2.7432487400960612,-3.9689407379001005,-6.576053252698493,-2.2914931126395097,0.09205214465013073
-5.020507645855237,-0.014043753582257124,-2.990602864736295,-7.406006653850021,1.2945613675969183,4.283152008937175
-0.6629015063806327,4.475135290520307,-3.20911525971711,3.8354720086865157,-2.5108402041528293,-4.7325201488612345
-16.938763095394094,20.36549623733778,1.45674881655459,12.649711217641784,14.623329168500948,-9.474773200440854
-2.6691273778450153,-1.6463156919880926,-1.7174439302177622,-1.5821345658050807,0.16696773500823503,-1.4790353391187698
-6.306881779535469,-11.064293474509093,1.5031780622855813,-3.0943987050002404,2.4562759602855246,0.8379978973727255
7.064728087634666,-2.9116067870090765,-0.043309547822032946,2.7003857240627447,-6.59942856593816,0.4844774176602052
-0.7574334432861161,-1.1054772601207628,1.8325887327118493,11.33577091577483,-1.2374936869223827,2.0965145360125006
1.348283393626971,-0.11179586361859573,0.3045874942861434,-0.8703974225724231,-0.8829339015076509,-1.632087672468674
7.639712548116903,2.0145167843658043,1.643632096648607,0.24847704362199552,-5.13013970817941,-1.9747708855911867
3.2465077416792676,-0.19697733526650696,-2.423517060185095,-5.265114343883536,-4.757092746648675,7.966408011595491
10.314534082431393,-3.263681907400723,-5.6559927353951105,-6.345722880008176,-15.284249021274976,12.673699100137103
-5.428599515925434,6.748956837862162,1.0529210870206223,2.6380101796962183,8.810588780869411,-4.851931193216324
-1.5487905926316876,11.196606246320952,-6.920779347542035,1.0782893305666237,3.285749488891866,-2.5390465614415954
-9.731397995625061,5.457883600061766,-2.479009176031826,-5.887902712340598,5.406063111624289,-3.6682525577498115
-2.583073333925485,7.366946709421919,-5.176824488539175,-6.0905644864592485,4.728287829488325,-3.2856715558298246
-0.16473181562168238,-3.3321305818863056,6.68221434429009,3.939176360493455,-2.3677982702178797,0.9954447470948037
-6.14262367073244,-4.118875951118396,4.473915061778656,-0.6442808730189289,0.44806777400543113,-0.4635655319563967
-3.3443960965942714,1.9427414610990694,2.5084877733624684,0.2627144418362479,3.7229462156453588,-7.093997144553812
-2.4842755052773646,0.6543435206083472,3.330213237377124,1.4071754722840075,3.286063373725181,-6.780097978640221
3.467234101473025,0.361254257076967,-4.440125253106906,-1.8479071940482414,-5.998094420869308,9.519547646707235
2.3043919850732584,-2.392569198119509,1.8213598101941588,0.6479567018793583,-0.2645188654726478,2.0793491425985398
6.992833536439875,-4.501919518584828,2.155401871786793,3.0992304043568586,1.5311883591426532,1.9892601831009877
-0.9000052675189136,-0.9153346206848423,0.6490804039915308,1.8180857567519584,-2.795817988849171,1.6175282366900783
-0.26138049221646886,5.031157603855756,-10.59039933333287,-1.4828784092369625,3.190695879719576,-2.5508853197359818
2.10152340302377,0.4028266591460731,-1.5056485695871442,0.9942338902717791,2.5372494624227926,0.24322243764932594
0.2081829117442569,-3.506538309980253,0.33919578339137496,-0.5769615049743286,-3.366690631013286,3.667207890918876
-2.0578185567736336,1.01488368095314,-0.2715199006838227,-1.7786574936090274,0.8327273303432078,1.5474806551954645
-4.512986395111258,1.7238704012343122,4.789017341358897,1.0513718616543728,-4.0074184949657,-7.58691646789546
-4.502484682674347,2.42755197641876,-0.7668483104139708,0.20209003079853058,-1.396209229782845,-0.5665965972909897
-3.0064387416570133,1.5565949752741879,-0.6964746956848031,-2.2709501776674283,-3.069004871027611,-0.3684929429326945
2.5373879279575235,0.9715989829194887,-0.1547637851166936,-0.7524492703704483,2.1409063117367095,0.7941373131170402
3.602139229057793,-0.5365181859950051,5.498689800493601,0.06596036487423723,-1.9239743737084156,4.118351752756526
-0.3443006665871958,2.447905515696963,-1.411387915348774,0.17303225523820198,-1.7265598030286424,-0.8258590875668657
4.900808464911047,4.36792512337204,-0.9476736210490215,0.685232216843178,1.0106565755388863,-3.423821699307818
0.38373360605896795,-1.1814807861309922,-1.5203299547769658,0.8060985880563585,-0.34942335128942714,2.098307710600975
3.5251919999519297,-1.3761762988543471,-2.7544584142878747,-1.138126280429799,4.299823294287532,3.994792803321453
2.0812545810205743,1.2051410078891545,1.2506525831121313,-1.0081703936956385,-0.34492903998265395,-1.1228447966537074
1.4090052348051156,0.36765262474023486,1.5284137711155874,0.7013345780425488,0.6819512106523649,-0.9764226297680619
-5.427663160076959,-0.04824753251575535,0.14874344055482253,-0.21006403982340976,-1.2635009942317748,1.0118854000576583
-3.547713803385302,0.677049563357675,-1.8457647085189817,-0.9069111747976344,0.11974977927623243,-1.7607351396404858
0.13694567915343858,-0.34057161373971023,0.6905668733165192,-0.14668675513223445,0.8851728583861118,0.9455986331210667
-5.368025150988433,-0.26955212355414343,0.6714674854111469,-0.6565857752554689,1.5791349875220546,2.1007330119426446
2.049889110991316,2.1392907110587704,0.4333681513391102,-0.4399294751818616,-0.5652378248277314,-2.744132367441666
-1.6332259010093257,1.835649680822906,0.18638827783206985,1.3472994711583466,-0.576855420398606,-1.3077114019751939
0.8887108333844181,-0.872526581577294,-0.8512808292937838,-0.4988988604527414,-1.3229679850013745,1.3276629097421249
0.8855713324747367,-0.12799569262413102,-0.4639984361142281,-0.80398500633189,-1.2598104295189425,0.18388591897340567
6.087152713155177,1.008887542895426,1.1332223666396972,0.06720382090637364,-0.9733696814021218,-1.3639200319486882
1.635483460557361,-0.409877008956847,-0.06152399869926145,-0.3561160797287957,-0.1224811698190929,1.4504955815009506
1.1190611509279207,0.3842632663618145,0.1678296661120375,-0.2871472838239311,-0.859604589329286,0.4523842952245017
4.016184878527173,0.7592942214894157,0.7830694101518191,0.066139994494533,-2.04442659264457,-0.6434087654835476
-4.393288446333829,1.0828026824518333,0.3199025395306541,0.26851996794283495,-0.38379759791626367,2.6786035615509483
0.6336225433477312,0.655644269072928,-0.35705194300425513,-0.6379192608208785,0.4231426067636116,0.8856420261404807
-2.51358245040984,1.3527487793137905,0.8310593459818094,0.7117494182432726,3.439841264037312,-1.701903925311873
-3.174436253766302,0.8211127328691233,0.9438327811999405,0.07548030535805456,1.8630416487919859,0.3481624490483938
-4.516273602819724,0.3388772835727095,-1.132782856742465,-0.9180349421257705,1.0524675082893358,0.6753512313254697
0.7883828970805127,1.7500676807023097,1.003797709715831,0.20538025455916173,-0.7694203374271639,-0.861373865326353
-3.441943252231038,-0.17583169103143736,0.061167937390794756,-1.0464922797507104,-0.09760242415893128,0.5244571577406152
-0.5795674224009255,-0.33566011725410605,-0.6679676834795951,-0.8604283392875702,1.0004495182577426,0.37834339397527217
4.987823391621976,-2.3694946811156923,-0.2704701636610017,-1.1367696042276947,0.6988152797791923,-3.131906731725181
0.20197444431203057,0.7157300795692735,0.4820626902371435,0.014256487182649682,-1.1332677612654705,0.4859048508436801
