Gx,Gy,Gz,Ax,Ay,Az
-4.813791,4.037057000000001,-4.023809000000001,15.486,-466.65600000000006,3.8440000000000003
6.960946175638058,7.660427275494045,1.4422671542854748,-1.7292797399404132,0.3897275243356504,3.648365190828636
-8.091132103503178,16.874385744895857,3.7677805140604317,0.7502904626279385,0.1389718396480163,3.042107781899442
16.295689276050076,-4.41643016282942,5.078267362633563,3.6938689154177338,0.134504605032978,5.9307293052570875
15.038295013209781,7.776841553119551,4.132552763101325,2.9556589958999804,-0.021004249687517795,0.9386770631433752
13.52423419565775,100.70873458823253,-69.3926270674106,-6.815945451698416,0.6124722845351145,-1.166305687013183
6.965107225010737,7.586394135030281,-1.124867121249979,-2.3836065752060236,0.9428797188090766,0.14353208926808064
8.46285281007277,11.409112485076596,-8.104547947419414,1.0286899937354461,5.0771339846932175,3.0252621131999877
14.42471159117245,19.689879824912033,-1.3821131235228954,-3.169780546148169,0.40007265045248624,2.1668118877635365
9.218060147343733,10.24484962632775,-3.6049111281598645,-0.3014241462409415,22.763885419843948,-4.943601807213143
-31.325741295787154,-24.46660895762519,-5.192154452020104,-3.150640388201823,-34.54415957768342,6.631307158842441
-21.38246142627039,2.0636487183484835,-1.1129727330561425,-5.545079060009398,-1.8785256560006474,-6.512208625309963
4.153356562392718,-24.493919607421507,-6.033112905034662,-5.597227044809383,-3.342463906612398,-0.6191508830042434
-9.452149132211812,24.8415133509421,1.151159948708572,-0.3669667237734153,0.025828746737629582,1.5064929514338998
0.3607019378764777,5.703095752045648,31.159906009191246,2.7746118386299234,-6.108521014684955,2.2284484311754253
-8.878793115348167,-5.212903730530865,-24.827738674979017,2.3123995209286963,-7.552754606101134,0.6035308487535129
2.2835780690155865,-2.173934246166011,-1.7159614730036805,-4.863685762396623,-6.329341638053155,4.011303769927901
-6.600760176195123,-11.632507686471268,-0.8631629769686735,-1.5493827566850236,-8.63369065000299,4.2931986813734415
-0.1533829646048669,2.9335052271471964,1.5378384618768117,-0.2299608523108953,-11.707154449744852,7.610774101251736
-12.299350645435812,-22.385929778932077,-8.988948193949012,-11.26432870325859,-8.320620534583613,2.877083013388865
3.8795354505071886,-1.2581785470990066,-11.623118261767269,0.9144301358393703,4.979169202499598,0.35710496967380434
10.344138503222347,-6.983600853397116,-5.497424661094156,-8.490772994147768,3.961431947677048,-5.023187783546442
-7.6958562727553215,-13.8527991975532,-11.055415212128572,0.7711246089127346,2.7865340598779778,-1.357981128384023
-1.433166950433586,6.100580926310053,-2.78213132962016,-8.617096287216988,4.298606359460241,-2.9355107709659745
2.1473349028938804,-25.626393546065508,-9.343678787874094,5.266833623721785,1.2626236971666458,3.5791278086437286
-6.189610275604263,10.17094531191618,12.425771954252106,-11.983842487585967,-0.1235589536881605,-3.7605057231424737
5.208687208559847,20.489363667123087,10.642210848797603,-4.968440713534932,-3.5606706417685423,-0.3669454159268175
1.7507702088551405,20.774702315577766,4.317504197842458,14.435653011754212,-2.4934415195680697,2.496957091133318
3.270269923449993,2.715344096253558,-1.0548260007419121,3.6753024442628037,-1.5105726444692094,0.5896997650773517
4.335225425505925,2.2973307059724815,0.972506575893856,-7.576431553814352,12.708144527520904,16.934687911482325
-4.22968317457209,-3.7018670477746802,-0.38510365103630395,-4.800286124102137,3.0564112852569156,0.3896914338549551
2.3935473624192607,7.477630609538932,2.4664042841651357,-3.034759854597531,-4.470451968929252,-3.922112785770735
-0.5071434714308145,-14.701707408872617,-4.618785134632524,-17.096353420949807,-2.046599952817112,-2.1270324088905816
-6.701997535838548,10.121953738667951,-2.225207508313286,13.764546229091277,4.893448079501405,-3.076310371855132
-2.0410452558132106,42.817703056413066,-1.8415164097595338,14.60662178125915,-1.4121308271835349,1.8028688216681603
-4.609957031731822,2.8444204541857445,4.784107575734744,3.3324846094979144,1.0886971349979417,0.8708767835078874
-2.1763748821468596,-19.870266999195508,-0.11804059066245065,-6.331717330680839,-1.672316682673363,-1.9432670024850853
-1.2459160679747763,-7.346408316716676,7.928665314587789,-4.434139999603641,-2.1443797869987065,-0.6698624432792473
-5.015361314686571,-0.2563664213543788,0.887514423218716,2.9880150935511494,-0.27026796569941364,-11.689756800269148
12.300470257317999,-0.5068223194818233,1.661201009057844,-4.77245688283309,-5.314046904295958,9.158843466433453
-3.6490899204612157,-11.24033134449817,-2.8881514765612923,-9.944183874862093,-0.930422879912463,3.4839391379115074
-5.48920980007361,-8.71518934488735,3.9426942149215374,-3.603719604887887,3.5791717004567247,-2.307798117312438
1.1788999885858196,0.07235919626195197,-0.7096326642816052,-11.432124441007732,-1.8470626309113407,1.42429579660352
6.364052535338702,0.6798133050079622,-4.183857855917432,5.693519445683557,-8.456325203082416,-1.2337602794434397
-3.2022415148512504,7.8116311755105485,3.5395325200430285,5.083499367390392,-3.4519398520994806,-1.4181753718081669
-4.384702893020238,0.3261477074197665,0.35338042173192097,-0.6530364081803155,-1.989060262551508,4.524060646164538
0.7124616915524489,-1.3770492707668929,2.75549512387417,1.0126876508336853,-1.8407890570162042,2.5815719027923754
-4.970852427898544,-5.641850207420227,1.055022045489106,1.7736495575370883,-2.8138929876429875,3.0664076676383067
-6.180854047669304,-0.49358414116314364,0.041810917310463935,1.2211808694120707,3.8883391804529577,-11.631637210568723
4.439750473284311,1.1447708249053692,1.9892983148030685,0.003169508185377312,7.414120282741974,0.8478214435560989
6.222401609011323,2.0496860642797303,0.4313117034978967,-3.228134563019471,-1.4374926023419103,6.271164106996337
0.5240554453058048,1.259402776678007,-1.4858131115737438,4.16407754005135,-3.896400321446473,-1.4481394503501868
0.37652768456276875,1.9474573101951664,1.5536500240096816,-7.058320856035198,-0.009766593298936033,-0.8810364184058239
1.3705944861911117,-2.139961114374069,-4.740339513993054,-1.2675254891636447,2.4199569844302338,1.5062837426528086
-0.9841221482803721,-5.496370360571304,5.815339877882018,0.16030383617277533,0.03049506914234401,-1.4338849294685052
2.004016780908871,-0.39080361289262555,7.4620237155953735,4.355956201554861,-5.9313379842074205,2.3497645968903287
2.593319176977796,-0.6543854539332958,-0.8652069867635044,1.3978166557967182,0.0848379492265442,1.8938810120244787
-6.672141918944549,0.6290604686847607,-0.7630131251973018,1.720079130097842,1.2593601984622709,3.7548931351804384
0.4461884452004381,-2.9779409155452106,-1.291186176705959,1.702997919376003,-1.0470485247551378,-3.094971841315139
-3.9982153295347205,2.2307679634877804,-1.9620493990521948,1.6096875938426347,4.284002772368699,-3.4783113868502555
-0.7794085870866352,-0.12141491410903815,-0.002160212742188139,-1.9378334571797386,2.6673875083628644,2.646983319126292
2.050340268543934,-0.042271449872280265,2.1792371821562977,1.1844865205552788,-1.9581668029108223,0.3249408303014052
1.5993687539104209,0.6746702233255972,-1.7255437973323167,-0.10717521495597171,-1.1158775758324424,-1.9285969133807026
1.1239702794572546,0.12944506798344027,-1.5330555247004807,0.08037286770073637,1.88451389775476,0.7851668912781824
-1.9624214118912549,4.972202888713523,-2.330338856303073,-0.36919557989410867,2.0904115758511335,1.5871899058391912
-0.5587727853498947,2.5221209087113126,2.9287801293694846,3.1077172781671387,0.7283137885227315,1.6983931585025502
3.623528000691725,0.8906641186845698,0.2694292735230315,-0.4321731077199712,-2.268017146012268,1.9047348320837523
-1.1494252629066173,-3.276021422077974,-2.836097085766792,0.36411088516100315,0.23127332833255276,1.0267004382534597
1.789291653251429,0.9220315506539644,0.8680641841926424,2.9715262113686354,0.6953264140955775,1.8363415015080815
-1.0712065765297356,0.43650414254437203,-0.7885022504481256,0.6546542423723909,1.3914644938336944,-0.36482520213459757
-0.2813707797737144,-1.4899080940674514,0.15486359527876747,-2.6098380854894945,-1.2868990063309886,-0.24312804639974095
-1.0520092697903083,-4.0276545669960955,-1.361545213631227,-2.3107631562570514,-0.7396469663843552,0.6803594017900825
1.6225551799409645,3.644117483532974,2.4987389477099935,3.095705809364025,-2.3086161122642443,0.06592499929304818
0.9713804603376381,1.1812922416374803,0.9888282547433425,1.6269302865357935,1.0274296199779132,-0.7741717804491888
-0.04204349811438707,5.224383755162608,0.5427619178736638,-0.33678095570981625,0.11381018825334632,0.20664735367087905
-1.012329099347303,3.168041801805561,-2.679859814142342,3.311280974313254,-0.3218053186763562,1.5455313514178066
-1.880838218658308,-3.040510465658895,0.5364366283271487,-1.0027479110945903,-1.6293607716163654,2.4869506535543224
-2.021558111411204,-2.5038038200352855,-0.6939065947563652,-1.0492932083004756,-0.4488610965217168,-0.027178864079237752
1.9727605861028628,-0.19126813395252829,3.137119219702941,1.7104168765056427,-0.02574549340181298,-0.33014847420416316
0.21307419644609737,-0.4920017444473421,0.6865523729405321,2.4798960456418113,2.6469951064182546,-0.4202319408719102
-1.7895990805046158,-1.8458353719784473,-0.8844731491020656,-0.7622344249895934,-1.8084828189472404,-1.4360941156790872
-0.47452392070710414,-4.8830786505523776,1.9493503654070583,-2.5344272947351207,-1.044246907382156,0.5827168945468643
-2.4305554730511774,-0.6572462228924862,-2.074984955966735,0.012258528112772948,0.08477333252303655,1.7903488371645668
2.6207654151286355,-0.6746873871442693,0.008079686701086441,0.5888728770726062,0.4134008045977138,-0.5748379696471062
2.1838499749479743,0.2084100450143176,0.11154942488718089,-1.7589350928779877,-0.8306472494200643,-0.6658951702174937
1.9323330356811792,1.9533662774364102,-2.7989769203800328,2.1420630460820216,0.6427787698968437,0.010764465992016192
-0.13117410774913363,3.3558276890827607,-0.57728990081066,0.5927622735322231,-0.8704761781286254,2.501100768767389
-0.6478171829557835,-2.1847234726784173,0.06343059618770597,-1.0068026745758085,0.11880399925424528,0.8307722470265875
-0.6991798772956025,-0.8702383701514154,1.054929697422403,0.7373600427210367,-0.34759430474359354,-0.9703124157683285
0.796602544308763,0.1418735531682469,1.224114541270424,2.659789592914491,0.42331339814403846,0.5228105668192407
1.1212603023424004,0.19662859037206604,2.477643307564807,-2.453173677230207,-1.0572538018025766,-0.03574604699570558
-0.9994844615825599,-3.426383917618753,0.3936368306305022,-1.199046285329871,-0.7862114123580632,-0.14319870934944814
-1.4260569461574288,-2.533930187473808,-0.9620632726034193,-0.4753231323012346,-0.3900870643237321,1.1348792269599524
-1.397143666666588,-0.8886869236649757,-2.455849334353235,-0.8454185092855666,-0.7334081701757765,1.3054593195527389
0.5343368505599873,1.96893162573452,0.651723322881559,-0.6600135770101242,0.3270846583816849,-0.1399468625293503
3.6606904717944158,1.373345910215545,-1.8361295149633463,2.7671463532354186,-0.10743308573001381,-1.4511761151561722
-1.6314437626640579,1.4510400267760513,-3.1100925419402907,0.4245525935784023,-0.5923372035374703,0.6695967125772588
0.19719090760748464,0.9774530441809957,-2.495446272824479,0.2616489674456206,-1.4327190163985004,1.4517470789611642
0.6726966030378446,-1.1297468107756785,1.2198050951840536,-0.6790839324267068,-0.4342036719494485,-0.21798578150267878
1.744740418441174,-1.2029702289139927,1.1546294776262318,0.9854348565616262,0.542481134867643,-1.2845481167518258
0.15729456514510565,-1.1705251819331868,-0.08889951599287516,0.06656269185840219,0.6590768299076046,-0.2790962215654528
1.027758474331136,-2.551671893135832,1.4381313989692066,-1.1831179282305881,0.5054390933454519,0.2592451838346215
0.26631872014421687,-1.301289340271566,1.465951550013213,-1.2912709243106653,-0.121796697917741,-0.09018088373617786
-2.1171862101090033,-0.2722397613389381,-1.1654772035331882,0.7434075198440142,-0.09507696189367443,0.7890645060886123
-2.0888221424812556,-0.46638985035455094,0.07029498760439856,-1.0730566649744806,-0.2085761289016433,1.2025001785853742
2.8857344242499967,-1.6206098881833928,-1.5266260617049623,-0.47770219074842823,0.1513302616891978,-0.3539345898338607
1.736630078252988,0.9982871943622513,-1.3626639956133042,-0.9828113020539702,-2.055800007090497,0.14314219044457632
0.3733139945339685,1.0578527879454933,-1.4999550609767112,2.766302809579763,-2.033783950087407,0.7856855681086841
-1.2769969665131848,-1.3096394180453044,0.19320353002989332,0.2211518749650333,0.19238716832693453,-0.19814078527550572
1.7234247524704431,-1.3813509000912596,-1.518207404045894,1.4051199499724172,-0.8663166365452399,-0.06234004176342539
0.45606488636390585,-0.19705031340022414,0.31185908693453346,-0.6764678654775866,-0.6567293969765481,0.7004101565996586
2.1775671933699305,-3.0411866185320293,0.6222980890014476,0.27285703371384984,0.9155737656817878,0.36203532996419563
-0.605940245073651,-2.033835046054426,0.4186047935371524,-0.8387041307455889,-0.08513452166291435,-0.6770484750686568
-2.3373120971625045,0.8675840212084549,-0.9392951473525291,-0.5674521010396125,0.10950310124266441,0.10033181282351061
-2.504256531494918,-0.04530051947047098,0.28554374990621395,-2.0103118589200024,-0.382698761757548,-0.2282238848313627
