Gx,Gy,Gz,Ax,Ay,Az
-9.152004,1.022993000000001,-5.951857,-25.72,-399.11,96.254
4.466784471626115,13.406670095741859,-0.269599579994218,0.3676840342280738,-1.3633107604642571,-2.5003466757989488
-13.289722541124416,3.9855865363521534,3.0425725416706837,-1.6156887022157593,0.33329426569067117,2.54353565658608
4.758489226610662,-8.46288111881849,-4.017772142217922,3.218747481548952,-1.3632853597715715,0.5430109410574838
2.7709356034959356,20.909294166719206,-1.6448054217192158,-2.6698835717224814,-1.5199933739636549,1.8481039317933061
-9.87855392051284,-79.04857517417207,26.11974255469536,-3.3876329419355793,0.5537739284138933,3.04347899181184
-0.6487448455209379,-7.237309528604094,2.857201295585391,-2.8660143047997186,-3.0937125207593184,2.700004413032797
-6.565310261312477,-34.86649382869099,2.9893238409072254,-0.3420024147188517,-0.15375755212951692,0.6410241849542692
-0.8782994403380565,-7.954847778361741,2.0955145407423945,-0.4256900053782699,2.24925108370991,0.21766382968461467
-0.22528548581178365,-10.049982622415097,6.4151439841450895,-0.6149685326450332,1.3945005099702183,1.2138748421928074
-24.944956527293733,17.277426737024143,-1.672275605906638,4.1268815315064185,48.06139152785276,-55.722400487371644
10.360813105368928,9.97439011620676,5.480171449234662,3.9821869114713238,2.57593632979092,-3.4291711261852944
-1.7342259560078341,8.331841354191669,-3.0799332830832347,2.0588436502586074,3.6873116523696696,-2.96742635961973
4.55447652841077,11.365521512808112,2.2696158188778996,1.9223472856321835,-1.1021508841053822,-1.2784470964988133
-7.169509629028481,-8.268383453688026,2.4859930330997515,-4.460061185249767,11.835497077567883,-1.1616451917628319
2.8368439275416324,-90.99850329918536,-46.703357377670436,-20.31430348363885,0.4803429757303963,0.2683553303207905
3.5766942790439016,8.515958429466613,7.275938674820323,-2.401105198430089,-2.0769399722496975,-3.395268145444285
2.9069916907950057,-5.430787935435166,-2.724649691520427,-2.9023984036366572,-6.557447117872573,2.01773661242941
-3.2700782541242877,7.705131488917617,2.9567000432646675,-0.1384832027489003,8.080057360891445,-5.1465129338332005
8.663883023673941,-8.816370870341935,-11.454385718504177,3.092491713120759,-5.535000408263385,6.461696938348238
-15.813475073984826,-9.382191390036725,-8.320866619051383,-10.128367065740612,-12.186269444184546,1.9758507776554222
7.276777753424355,1.0929329694453842,-7.42584616071977,-2.832731650093823,0.7630478061272316,9.522573131476818
-7.462120520902433,-6.756975662401417,0.8929601943435861,1.7644999580119238,-3.4336456775366453,-2.7106487044281096
-6.724292019845537,1.5248148628464637,0.3691464024295621,-4.943818376020212,-0.2829171584499721,3.066223798067685
-10.382939098533015,-8.459454825083217,2.9453469115024076,1.9688543815461095,-1.3924042391425178,-2.2906405446020575
-2.229726455110267,8.587234692279482,20.470723856893336,30.27389723483413,-4.529958223574561,-2.7378300740115726
-3.8329613405496987,-9.225835219830227,-4.507115390540034,-1.792420939336861,0.2245605609646002,1.3120818681437902
-2.19141855638436,24.192566873976517,-0.46218640145546985,13.592538852520372,3.5670147428273107,-1.1745306034572458
-4.520186994394836,-0.7291804137609288,1.4176954568297742,8.749443043177827,-2.1050010001842705,2.3172162663743836
3.3116499963297854,9.38507955495576,1.6862612998676778,0.4057791467882924,-6.887256071362098,-5.615018131466734
10.87492654192329,-0.4984237883217666,-0.15195147883687254,2.897150404682125,10.156465882222784,14.249053110325168
12.144620617511784,-0.9335106672100963,7.342861158583609,-0.08073266494214693,-11.03192301342532,-5.954127831100592
3.274489600936932,-3.2763342112902714,-2.2801998261293646,-1.5882177596215223,2.1619402523466245,3.115414852502541
8.42539184262955,3.4724706676029946,6.580605634386744,7.798197955606337,-2.3024172756668047,1.355942433221956
3.619888511277059,6.7126503497506995,-6.054700176994909,1.053707384827216,0.8573627318054977,4.708158521215096
-5.69515366846787,-14.47882536658754,-14.96760312845196,-26.147719388011677,-2.197990376353829,4.885701432315686
4.2858708855044805,4.790213903415844,-3.1633002092746043,-8.250075889249064,-6.851626385058125,6.337613103629765
-4.462923178344859,-5.583635687107204,6.51564096454976,0.8780575227789458,0.06609227878752955,-1.5384778738915732
8.062185465328948,-3.5863348422751,-3.3331186813234295,-9.25555107946154,-5.621367850106649,5.323045025943793
-7.740905471440335,-4.341452497767683,1.7209203221093043,-4.147225883886108,2.8766356196336584,-2.156028363676856
4.6364388356624335,-2.3960298740255044,-0.2137123306011317,-2.4841006551373743,7.223353972624265,-14.974440394716474
-14.019460298955707,-0.46091032311194324,-2.1148032999743314,-4.751229226677328,3.6981426529741936,-3.917176676097158
-2.561362474530898,0.3823637205633763,-2.7208603442829045,0.02890016286377506,-0.7785502973937899,2.92262155703615
-10.416972874903907,-3.8581685276752626,-0.4358195509009971,-10.32586547180526,5.176828582716666,-4.505899029973663
7.5909612487726825,-4.071661429957039,7.901168280529081,2.5684725179968932,-0.914937746488008,-3.106239215987555
9.897327296212366,10.566216374980549,-7.05645975863443,15.518049369140536,0.6603828559027025,-4.016070801962486
15.412815290659115,-1.4085421900427293,0.24978470721342738,8.218865851187488,-1.0461289009488723,-4.5515664642654015
-0.7421643570575736,1.7415238909584028,-3.96606578875455,-2.930073204269781,2.5376147543320196,-2.9983932841550156
6.470281633584437,0.45856886561415766,-3.297382227431104,4.372674445519153,1.6559288902047273,-6.358483078022952
-6.033798579667581,1.2806649357824451,1.1012814795924468,-0.9831687566361782,0.19365256514623047,7.997935317753955
-21.78989094085972,4.131923748805583,-4.476231650371744,3.6110700103818667,2.000219229500353,2.305045771307027
6.173744017135024,-3.353806143345056,4.678315124232949,0.9780315355991561,-6.467586857005397,9.976364180515493
6.524374645258387,0.6177910836587146,-3.993249857459045,3.228643281969517,0.6898157229338742,-4.755006475225652
2.4563705156839157,1.7801684211811453,-4.022218791647074,3.830837297764364,-3.6345305896308457,2.4234393449303435
-11.155316936695218,1.7868441837146865,-1.7230220573220325,-3.792505971658411,5.275812877746688,-1.2014498819126733
-9.545924252163031,-1.8144500115503455,6.121854847097374,-3.4617659386080857,-1.0884691712732946,1.4443193157261307
-13.991224962587346,1.961203593558594,1.7072507147316562,-5.348643188811296,4.669091746716635,1.7703474475244276
-2.0082495795916344,-1.4223976198671975,-1.0448639819107322,1.0251211909179565,-2.6868211144031635,3.0825745830807767
-12.611134175507114,-0.0555381401414895,2.276544943934346,-2.050059509139114,0.23093458969437222,-0.32646872134850446
11.356620322372947,-1.3051603001031742,0.18879614277763773,1.589379707945252,-2.5490329542980823,-3.505530123997992
-1.0512971526126107,-1.0872192767030031,6.824803066231505,-2.6905636453446014,-0.028842211707849286,4.636289733260273
9.734856682609335,1.7469925403652256,-3.2104721928455184,0.8806287264485211,1.342482270194675,-3.1774950107471422
-9.029749687032094,-0.3593808557763767,1.488476649646394,-3.382429789213992,2.8164777909129306,-0.9050346131488709
4.0641797002860605,0.4594206161599743,2.813667346232647,1.2414169353182105,0.0974599868523911,0.4583170543883426
-2.9186952425340253,-2.3644509723417215,-0.5532028171582946,1.1743342145362932,-1.0250805235598794,1.5475834326841902
4.709637060651664,0.9554470276027596,-0.5978719777719061,0.14988961849305538,0.0882536572657654,3.1518690460965546
4.116213113275699,-2.4714341513244165,-1.9626495840875844,2.386016654239114,-2.343857531514409,0.12557432021437656
3.328485243343083,0.6578120598929029,0.47063470802099483,0.8099225898931943,0.6877821291813606,-1.589893270388567
3.763984818664074,0.025401315559271165,0.6815318032444833,1.0034859570821602,0.14919399216546986,2.9005596700025813
-3.9334152910117224,1.2375748360411134,0.15422555862787934,-0.6652103456199567,1.1525586939725718,0.3246833631088868
3.6550816863200932,1.9893362787108289,-1.6693921862774477,-0.16605849899394753,-0.10865573659083078,-1.2675030628067754
-8.724756032189635,-0.26436827438100163,0.12316893393080997,0.19770262840180464,0.6167086187632513,-0.27924129254092733
0.5433711471726617,-0.4754141575592863,1.3566710945417675,0.859228387324207,-1.6172895376406342,2.2306912478842476
-0.4932102572804573,0.029273826140610026,-0.9239581010630333,-1.4925495412439684,0.06838269277042786,-1.170219818454098
4.090301816404644,1.9404615270916956,0.22932601832132216,-0.3922473685189344,-0.3539806378845686,-0.4969157238374385
0.04014969508844901,-0.05046327323918742,-1.271433156535592,-0.3448063757799331,0.9259410950006506,-3.199298743238979
2.7619397399135845,0.4867899168695047,-0.25840218767374346,-0.09771195426566504,0.021171312972957546,-0.5382739275729256
-5.519506204556223,0.5285404126354418,0.6741309243293445,-2.0508721272729358,2.4760922902741855,0.09432521306856745
5.263436111841205,-1.7975511448998402,-1.107067925423193,0.24384468498868883,-1.3611118325822693,-2.0585134165391787
-0.7197646697157452,-0.046823474523689734,0.7453125170156315,-0.3388407821424302,-0.41784868543088094,0.3636338703658214
-5.348452195261322,-0.8328344786403461,-1.7532995520129906,1.060531794242392,1.7608472348450483,0.5630166962184315
1.6135199304186512,1.0649221934688495,-0.5979037868201627,0.20014279241373423,-0.04397368876502128,1.5903664379111753
4.910159361390177,-0.8814154547989842,-0.8228982003249691,-0.28010362546803685,0.5246003688897717,-1.4225385708194482
-2.8146500497125437,-0.7866689276243755,-1.3004515614871186,1.0643440682077254,1.0567037929905645,0.597309476760284
-0.32873834827190684,0.22414212717716975,0.8701368453104148,-0.094539095314668,0.5546890715864694,0.3373078317646183
-3.990851118083272,0.5914851547219612,-0.6993361370804654,0.8577497838772841,0.6455508738215677,1.0467655666589766
-2.6159796282531462,1.0618903956053478,-0.5880032436529271,0.3273070391749398,0.8534447176495716,0.7524478449936931
-1.0856271691513593,-0.18598547403876878,-1.170055470135224,1.146789984836806,-1.1606237853983594,0.4294107217398835
-5.408967375093965,0.7699284916331391,0.1832727661536994,0.1401662431934851,1.3296005496760042,0.5398246930940255
1.7288320880804136,-0.6361262023573885,-0.8801410990154298,0.7922323189688986,-0.8323803121987889,-0.675733535785662
-1.3551645222763535,2.023908051162362,1.06320378226859,-0.8011598866870153,-0.49312410969171094,1.0281614435683968
1.861357036054649,-1.102887621232973,0.2012636501410751,0.2843671029110876,-1.1426845940224606,-0.42724202109926696
-6.567221378811315,0.06460043411894234,0.8076294973426117,0.08985092545400203,1.7310124649693752,-0.6034973011016771
0.17347913461090325,2.2945364934563717,1.1750237486698034,-0.6349722368123218,-1.1995208084193278,0.6643130443473255
-2.1721857073763706,0.8568731304152556,-0.9711196631823059,0.1586917681507236,-0.6257090198141594,-0.23284875563971918
1.352255494765748,0.6423763470775186,0.5117345360325672,-0.5463004858091068,-1.5522803552906963,0.6021365435963046
-0.7622717778465524,-0.9692588049260459,-0.5008112443276167,-0.21130935337958,-0.5216445481241787,-0.8715499238173167
1.3510303733064375,-0.43526993550675575,0.8589211197208764,-1.1127670205910074,-1.0948264238371237,-0.10014847965007889
-0.2508062136893239,1.4159306819461017,0.09293184745826893,0.009200462203318494,0.010527117983824441,0.24487137128598413
-0.5738695816445816,0.36757398557699694,0.1601717608016786,-0.24041430022782773,0.5676278412617795,0.8174732073445959
0.47210394047885984,0.9141430363288354,-0.6989917754262287,0.12213944631989393,0.08295254653646622,-0.3337493404062061
