Gx,Gy,Gz,Ax,Ay,Az
-7.09789,-0.1489560000000001,-4.504364999999999,21.804,-476.1700000000001,23.354
-3.4931907271096705,0.8191553316589185,-6.628432482752687,0.09984444477901737,0.7874175999627643,-0.8937556532524054
-1.126547675982876,18.258265774884535,-3.302020756938682,-0.6224906092637498,-0.19083943839831274,1.3260570812963577
4.921331439159977,-6.905620062589016,-5.894054873474593,0.5540029836356137,1.2592624075226149,-1.8222790640380548
9.580785045772705,71.0518545169945,-48.67771849189471,18.55444832168373,0.22653652230580268,-0.14364772548800075
-1.5673413011849018,-8.894053257032185,3.456008645714434,-1.3326150007728161,3.211963795126329,0.2128242595509111
6.643797512245838,4.703846874046955,-2.4121279411572254,-0.6657258166868164,4.2785191809007665,1.4213126640983738
10.775170574392899,10.671281881630335,6.414841326959632,-4.240943377269302,3.17816782209132,3.9656306086544078
16.771932761308186,41.671322899599446,6.562282343381228,7.827192425145565,69.84006291970124,-22.694049457928045
-4.793262225027808,2.34353122002471,-1.7703151738698693,-3.2837401300997717,-3.774790363643147,7.132633758773558
5.55118744051677,20.026621204536056,-8.584363001358145,0.756205510241519,-6.4451280727647635,1.2111789912467488
-3.9148809476048654,14.315047428182002,-14.958054453060793,2.3190045064297573,-7.199759794786422,1.7789052295806806
1.795644037033833,71.27564060208942,-2.2404312948411795,5.630032596343337,-5.01335144130687,-2.3072716708039414
0.4490252572222804,-20.81778975242821,-4.1202804705473435,-5.175485323965211,-3.6228444062491953,0.35323427077732433
6.04959773163956,6.932285751321071,0.23140110249656953,-2.448836204125217,-4.895045118405228,-3.5837050077839985
-2.475549995022307,-19.180165768719267,-0.5025356768162044,-6.26541777682603,-6.193191485842863,-0.46849672150895527
-4.06510502479747,5.741792746265286,-0.4611813058540972,-8.332446615871476,-22.923857073793815,13.096048952267678
-10.552586425112468,-4.214582533753032,-2.1123518839976825,-4.450240836994743,4.062127983900137,-4.356914285233602
5.0361994646452475,12.934567759152113,0.5911869249537139,-1.807273479332253,5.166140623817133,0.7716563723687831
0.3894164370954316,12.474750281255957,-1.248939514097187,-1.308236624746944,0.33176790578384674,-1.376204655648833
-4.8906248657956395,-20.337897002301652,3.917361307452227,-26.530987822268024,4.909090579503172,-1.241928678941665
6.167978031860874,11.808927391132137,0.5888293742406578,12.670251192691484,-0.6231479980125006,2.5489881487379304
1.527336675569781,-5.117451216727565,1.9141377120637935,8.761987880424556,0.04417322631831741,4.2499157466780755
10.87185194119831,-3.439430907602594,-1.9714069446155584,3.0857406581064195,3.6433746032644043,5.170325607664149
-0.03143710357360918,-17.82732905537715,-0.669643722335674,-6.320410996064816,-4.729368551782066,-7.3472793972598165
4.827344415176457,-9.013889783606736,0.4086037889066424,-1.489386571948788,3.301944357942706,3.6997942642732666
5.400751268158253,-6.917518419051758,5.336091743506338,1.653386198377826,-3.371571669491805,-1.5906129653889969
-6.968947057279796,-11.918748181169088,-1.45864495911803,-0.8492074615623174,1.0177323800013374,-0.5648994049443681
14.253644183119787,3.3419683737752295,4.893080860348493,9.040250433030698,-6.341482830058775,0.39600503988522207
-6.632540951730773,-3.165262193315332,0.4214040361241438,-2.055687218515983,-0.4021232913503735,1.1300631661986942
0.5295609782908461,0.2249462159784006,-4.743336134033592,-4.951589530071808,0.5662236441360109,-1.880841495851154
-1.037056544890854,4.959439963523918,-2.1464946390713293,2.447780426870818,-3.671698554095652,-0.3990246562658895
-13.961011467253126,7.116617626779814,-3.080040586164373,-2.6161336484177897,9.401865768592739,2.3430408258527375
9.39013765858604,1.9575822047287297,-0.2137285281035547,6.873922029980632,-3.230217030569066,-1.1174067061044293
-5.85170663429305,-10.231832152820903,-0.035434652737190486,-2.2253587728636792,1.004435307303682,-0.7619951164592917
7.0371917617674935,1.31366984838112,-1.0290198239597608,1.695926291579019,0.6047677391790488,1.4536641694870194
-9.870020520675803,1.4404746607315775,-4.218563591352545,-6.124408205500114,6.358515918785493,-2.4173186076554174
8.348720830664503,-9.005354983225711,2.91814835887287,0.030161305812399564,2.6354908498636953,-3.8693608355402436
2.973977050445671,-6.8344881724517155,6.677128682890064,-0.45508066103584044,-3.233686892448725,-0.21554272493953375
0.7663994737702102,-6.435785181230934,1.6055956359914125,-0.4746984284369933,4.156012872809324,-1.469651545005425
11.933677437246923,-4.104456077562929,1.6824899463715774,-0.10635863548447522,-8.3454204052057,5.411325021835305
-6.760940638151607,0.0468819653292514,-1.1273312841077292,-2.064061719660233,-1.487423783669057,-0.17457584264711667
-4.944698752392112,2.174213376176993,-2.824007886414141,0.2338794135591553,0.29831123848707364,1.4404852284199579
-1.5585466596880426,-1.794305642511449,3.1108143603062484,1.680049448497761,-2.1644038641730017,1.7694067274312415
-2.933408784931303,0.1641581807425374,7.216859423522793,4.33667481279851,-3.672729592411988,4.64058848392053
4.170642244760969,-0.7103155943676858,-4.102252868185486,-3.4661028122303232,-3.4095423412090113,2.582754752388214
-4.9713986224847755,-0.7566820368999991,-1.97317947419707,-4.5520818852310745,-0.03682860696451762,-0.1581774886730415
1.7768273103921968,1.2607873190722816,1.7157386233667382,-0.41654374233748404,-1.0767947032086644,-0.4762477835046941
-7.100895371807285,0.23075350515018656,4.960595565437753,0.5017120700198427,11.192405842092722,-5.7285434974723906
4.220026073340953,-3.1075585350024264,2.748226150494395,0.39066070965330046,-1.632397407538239,1.2655619109895107
1.2848473774502613,-0.6482551074933669,-0.823285322829855,-0.6400109462363867,-0.4632439636799338,0.8800872222744449
0.5954154962620111,-1.906515083026964,-2.4442316280518765,-1.5523001287041707,3.1337909301882863,-1.3591695473402634
3.8707616268250975,-1.8210905384588485,-5.247580735002891,-0.7285983949782108,4.529636168274887,-2.8689310833192216
-3.9908003983710496,-0.3094325480537914,1.7603065004121676,1.1931006699516087,-2.006656105308907,0.33290701761267805
1.452972003444805,2.1893889160726347,1.0843976298618574,4.925170481529767,-1.4001820701972043,1.275457376599006
2.191560324865457,-1.724890745555585,-2.915064239404507,-0.6903560330485163,-2.4414918731641797,1.0254301084899573
4.048922953079199,-0.511728028868278,-3.9949452991872207,0.6704265943764165,-6.935868980486357,4.144893614825525
-4.997674328065021,-2.479171706530331,-0.9173097286009613,-3.1971546115798746,5.21208403638555,-2.1383084821030933
0.011895111160474592,0.015053938025895164,2.204027810015991,0.7836599469340424,2.9041424040845785,-2.684034583994593
-3.618750146602486,2.4897802111892076,2.311713587000077,1.5654227632412585,-1.3508469496956936,1.3884487222286201
0.29138223369622707,2.6436802730010918,1.313564093088383,2.0034844059801644,-5.8644121590380625,2.9339732527512794
3.500846065645941,-1.768241843448003,-2.8720258814650554,-2.187409519013606,-0.6645662657579243,0.898746013551996
-1.1695950440795508,-1.0817000628487539,-2.3872835513239665,-3.3016589913803527,3.2500283126566796,-1.0866485389751017
-4.149466539085649,0.5878067272865772,1.6499847441703737,0.11852700925573512,1.732573599546952,0.23595491586770478
1.8460069302426336,0.9065447170160024,-0.11110890415129271,-0.3178865071866248,-1.290407068458779,-0.7995834915405541
2.1093535431472725,0.33866186202065407,2.365440117801715,2.041323270779716,-4.371954379242355,1.6603211036746712
2.2127349116078943,-1.4505685926785086,-1.8213539310971083,-1.032749446906378,-4.885305051240181,3.6593625213488172
-0.28072886933425334,-0.9681967817527524,-1.9022522866215208,-0.2209026314625966,5.139892104845797,-0.960245181075916
1.8439416862532187,-1.2998362388326141,-0.8057375431153659,-0.17109040177358814,-0.15184858730180828,-0.5215699301427961
-5.992995495128288,0.003347312487663956,1.8981068810641437,0.9085366657128113,3.636483325115921,-2.7942609232548925
2.615496440338017,2.9431803458947234,1.138683872214755,2.8739420963136797,-5.252246945005421,2.2184889113088473
-2.6809929450013525,0.3826486201737964,-0.5710290078110243,0.7415975725482178,3.55574690181252,-1.6813532635708741
-2.3116343917040068,-1.2718404408876154,1.085346972056033,-0.04651665492372059,4.225695279508753,-1.0579757271117423
-1.4908071223041555,-1.3844499615184631,-1.732125323839667,-3.147652087114605,2.9478296769216072,-0.75979304126194
-0.006751842697534816,1.3337707745867977,-0.9075823057814811,0.38007686133753515,0.819470477366897,-0.20354541770900003
-5.050373402550438,0.8064327588233166,-0.346536031232188,1.0548476927438553,-0.0949152668088582,-0.18592057810352758
-2.7134796012376725,0.5806277271909899,1.3899097785868149,0.4557166225751157,2.5630540951658247,-0.6338468806466633
3.789687,0.2929385,-2.0399734999999994,-0.5049999999999997,-4.42,3.93
0.40392902392129537,-1.3693396723744027,-0.8983384272601693,-1.5742798287910582,2.8979374385597914,-1.3053168956639158
-2.8885782677551757,1.312280237697681,-2.7744968063312396,0.6022840461208128,-1.2514275158476214,3.20791650941678
-1.650548719757142,0.8521064456818976,-0.17223431463591155,-0.33245861084344597,-2.883896406356664,1.747553623163453
3.1641868997744913,1.5220338232012423,0.6968092983506375,2.3524261541480795,-2.919638021954337,1.605134092541223
2.218316387804566,0.19152336916602763,0.8766805391997483,-0.24950881602314184,-0.8377808687672452,0.05040435338658211
2.3345729821982095,0.757455345434059,-0.8826157795531686,0.14476331957094712,0.003575428040901718,2.2165011661839307
-0.5455346502226985,-0.7511601285342213,-0.7320574581148338,-0.7210648856187905,-1.236995415841534,0.8827935574742769
1.2984453479432896,-1.4292432674873459,0.879406890884088,-0.055428940732090023,2.1741465342873743,-2.1305800985549523
-4.821460057471004,1.7279206520288009,0.8650404831318305,1.5251415055943336,-0.7617692171492441,0.02069181007398583
4.373304573995897,-0.6186023033664034,0.654693619260153,0.78270077369931,-0.6876671979231981,-0.9467183428310603
1.0397302426408412,0.4716213748133938,-1.4043090794251756,-0.06955786255105495,1.8821952106910738,0.07435811239794199
-2.475003937687144,-1.6393376419793968,-0.5213525683387978,-1.9176537320567104,2.2755117951971555,-0.7569576543531535
-5.151135826770382,1.1371193335628464,-1.2245850270087895,-0.19108692557971318,1.677398188777475,0.5015649213583837
-0.6337106337763445,-0.34379678119492374,-0.2827284445008399,0.39931699307357077,-1.0919304585751206,-1.3601513841975752
3.488673279880149,0.40120272907835225,0.5830055660817608,-0.19042671183351534,-0.5521320888134171,0.43619185323248666
-2.5876365855937005,0.40298181906724206,-0.06918464531292554,-0.3882930861376561,-1.5526804796849198,1.7166647094024483
2.6089463372067474,-1.288070289343286,-0.9745497585869567,-0.8377983626864415,0.20599646512691855,1.5087434389217593
-1.268251825127265,-0.286949814982808,-1.3527355079356358,-0.6972224191321088,0.7606457547512289,-0.14955507576239213
-1.0657429099841362,-1.3334631986870855,-0.3631768638877766,0.6026763726491474,-0.7943029239461079,-0.014270563079232135
-1.1895400849521574,1.8146669929814903,0.2882884797127422,1.0552555630556726,-1.7232816926252517,1.1621044173577924
4.460905010712009,-0.06282138058479969,0.9355174236524931,0.5644626848655312,-1.615660022925446,-0.10474630149939834
-1.7245811656385275,0.2037915202521507,-0.49026232597939445,-0.9290900121381792,1.3962509889996115,1.3103820753451476
-2.6498843888908254,0.18326105169831253,-0.9065486527135366,-0.21927331365190625,0.34459200345481483,0.8576794250995241
1.0146529724037718,0.23064760679719337,-0.4026156461517323,-0.5803808759726491,0.34890875685324296,0.008999581801659218
-1.2035910577273543,-0.3886319516808967,0.4800286666215826,0.6196822061865395,-0.3022331065538859,-1.5814008142245781
-0.3412094532831649,0.8838027583108202,0.3925057745948557,-0.07816194472619142,-0.8774110460168949,1.721153784425192
0.1979268781578749,0.9707909674966563,-0.49628473909861126,-0.33985287739746156,-0.28540500591921847,0.7872306610189258
1.0477784151033158,-1.2810588279738484,-0.22949660954040152,-0.8654157863964632,0.16986834033302445,0.3703658132632228
-1.7856754897842797,-1.2132333871978052,-1.2650802457991777,-0.23906391010855366,1.2841255013554131,-0.15417754777531212
1.151312442188418,0.5783954773624758,-0.28641351191495357,1.097539600932003,-1.263906609559731,0.05701541263947041
2.5385254359521356,0.1784327078017265,-0.16579521664993624,0.5259762312864474,-1.2314708845638194,0.6832528963107454
-1.5595277726323895,0.8580522248540887,0.250699548848234,-0.22768579781218334,-0.10523505417425238,1.0141407750857705
0.531958168519732,-0.10941003083085354,-0.181410765309578,-0.7863489850080644,-0.17683211169641266,1.5099147722154078
0.010998267778592918,-0.016455938017662985,-0.759680900821827,0.39952809947400403,0.7236505251256515,-1.4428910637576018
1.6601859781171737,0.18997124403563626,0.18015437116525512,-0.1830186593352583,-0.893594733042403,0.9268460633633684
-1.1989599555756647,0.9127496079010735,-0.504561333693744,1.1160217879879326,0.14085609559208967,-0.011977368542657407
1.5149275118781973,1.2198955012321793,0.09578580117893576,0.04260113702381618,-2.195274483798249,1.2091120363042682
-0.5741054682995561,-0.3051460650762783,-0.1825128201601255,-0.8532052385851621,1.2750517413992064,-0.45594367491827986
