Gx,Gy,Gz,Ax,Ay,Az
-8.314385,31.774804999999997,6.814907999999999,-2.06,-712.634,-131.282
-12.943799811420575,44.29020641905181,14.708568045920236,1.2568515244056524,-1.604336739301409,4.789173308944802
18.407863992131652,22.406105732626326,-0.8075536921962195,5.087849785985585,-0.6475806532191275,-1.2462862645586072
18.602363971545856,32.82859530021821,7.8348035026727825,2.259767976187731,-0.9019797387456625,2.9744270985525163
-0.5686435598962667,15.651515329877174,13.704785677649113,1.912921955196882,-0.6826330599576202,-4.88374130463544
6.9419209501720776,29.954164897539556,6.402424580520295,1.7684310526189129,-1.5461203065152547,4.133916372377778
-16.260546833809332,2.828373362302332,22.699736192225377,1.1346622969608295,-1.045899478255195,-2.678781347811376
8.511947706445751,28.219930096487595,-54.49529531197584,13.016706673283325,-4.25529560231262,2.2595407398728544
-11.043278730753608,19.11517205256967,-1.600518841721753,0.023736653113241357,0.6918291749563759,2.783303617200172
-0.7072857017114575,35.771433440728416,13.316675716543006,-0.5791588106942163,0.6849584939406295,-6.8851256450132094
28.66087727198806,4.157937390292205,1.6839940217582243,0.47130258746453446,-2.2689731880221924,-1.508793579889979
-3.843410653291845,12.931047368474584,1.2348133197050193,1.2888370905480449,0.5767826312028821,-4.077167068315491
-5.988815546053175,10.778534167215735,7.853320085281762,-2.8512493909340675,14.694678780343965,-1.8848877611220083
-15.616926432624364,9.409029253166146,7.083413026273116,-2.5194572567579705,6.511683217857013,-0.808441578821858
6.781554857051761,23.790018680514738,-7.377958674890882,0.2620578319369954,80.63561159211619,13.521633010793364
15.06841336262829,-1.1799181710974662,3.4727925913677224,-0.11142524576832394,-19.66076285099456,-3.929049943610785
4.051510096128175,13.053715153756123,5.904078569185831,-0.7939952440447112,-12.661812725799173,-2.7449614238710844
-11.050914192099782,-14.222301342412738,-11.152823247971632,1.3592916992951274,0.5029307732601991,2.6074330742112712
10.801363206301911,-2.99472272295069,-14.891096928121668,6.8828307463940535,-3.2879653452346496,2.5266363475524036
1.0926570080889304,10.141523424052712,-8.916342600667864,4.726223237356625,-2.0200535736091103,0.499413017242469
10.282726660604318,-8.714751336008417,-5.314298878558263,4.115772348849312,-1.6993439314296463,2.4515305401537115
6.743860049280862,23.347215323135778,-22.34381177082583,13.491081712049269,-6.460632192314948,1.0498789330103568
-2.886795621307904,-0.34795630699765767,12.048993787882948,-9.482497918367272,1.7324419338924053,-3.3961585501287956
-8.108320742163997,1.5131565303786572,17.76731067475904,-10.590998419102988,-4.290783006013605,-3.200296805435565
-2.707495610044408,-17.04646911038024,-1.7224078201357753,-1.1553415305332944,5.684306036055624,2.6293976254324596
5.591431769642602,-7.576645564570481,-0.6286413763338214,2.6555378092728357,-6.4490182699777225,-0.4311884704223026
9.144574795321859,-5.387465855642385,1.1044821475486484,0.2387873864798873,-7.992486232777068,-0.7388597179185917
1.6308800800162606,-5.332807306742634,-3.365207971591735,4.959049612833279,-2.509122649169945,-0.46915289556390705
14.538974537697714,3.7427726450438517,-1.9426275331314806,1.4376525520001762,-23.321614666075078,-8.104543045132278
0.8297528423229343,-8.212218021453298,-1.4244619829582041,-2.34724637532062,8.14040294370894,8.018822349346376
-5.454641904512808,-7.340787114136836,4.445039959981749,-8.047496097900748,9.028042957221864,2.6899984802530064
4.809913250289656,-6.542559835524994,0.7490610115355205,-0.4003857536966172,2.7032032614342527,-0.2843556729582186
-1.6332835903233742,9.399026082543504,5.350240248379148,-0.29891513863866426,5.15758989354331,1.0655998371936168
-8.458851811395235,10.226800152173526,5.538044933754918,-1.1835012976715236,5.2781354516559205,-4.7068038481642445
0.42446730816492906,0.019464725827203266,1.5191875187697828,-2.9188706681855345,-0.7685538308380763,-1.4943455018357321
-3.9630573674792178,17.412208001508382,5.318193467924468,5.15550081763567,-1.912797512838253,0.34051945549750096
0.4657308563144742,-14.349225377955594,-4.904373192228997,-11.731263247476566,1.3039138668766204,2.546029416289474
1.5398097563751163,-20.6331567373482,-2.413758866545538,-9.190529275683602,9.492970690473681,-0.006675494185054198
6.795984144614515,-7.810723823720008,-4.262575060935593,2.09933243812264,2.1708692546649413,3.3291672933977807
-4.242143918770193,6.783119442977229,-0.9316381084722157,3.828635663394516,5.356154865456091,0.8859290614054206
4.495122937580067,2.1541413398841933,-2.259878963922937,1.4188718084367338,2.640503671528235,8.266628670574882
-6.064927722411279,-0.9550069733728046,0.40511650980367153,-1.3623257043953925,4.950144619772809,-3.6530427805189087
-5.46407881958017,5.649722687127269,2.3204907283997525,5.328366972363056,15.712625195648755,11.360762079559578
-6.815475250020298,1.9638334218603861,-0.7625600057392131,-0.9173603910212018,-13.178415370348372,-13.71685229724616
-0.4374018328510777,-6.985444415788107,-3.761713411587654,3.6106302909892727,-13.374347762529968,-6.204114092935292
-3.2518438901341478,-5.594421772664948,-4.1580293741056025,4.308009399656841,-1.6579213759642157,5.492983700929045
-0.05207553286902744,-5.968549189648248,-1.8822293884223784,0.21813331408550185,-3.589070112839548,1.929615399748366
6.187485660001615,-10.068118461068437,-3.8306255264102713,1.3973250632044398,2.6739059665894507,3.5679598293183767
0.6571161768211887,-3.3941595866844296,0.006550056680464045,-0.327485973211396,-3.5108262966640402,2.2782138488617587
-3.2579987666338575,-6.174578889777013,-1.0008777539226097,-6.0864121308400865,1.9313385351062227,-0.25100975722786545
4.591900874425897,-0.42784182976216,0.5546489808833139,8.953505055117553,-6.886978793600164,-0.5774393823154129
4.936313149644542,1.132230421964189,-1.162634309336624,8.867610710852542,-7.491207041002263,3.096915160666571
-0.3200727274361839,1.2158759708314435,3.2443603084739188,-0.9099458058648819,-0.398572918498629,-5.007813755167772
1.7205409748713052,-1.9944207376347398,-2.219633239389668,-3.452168946192987,-1.6770919503075026,0.1778946696261875
1.3876821169982356,-5.384616216480133,1.2012470524694367,-1.543736556932944,0.10583584081244729,-6.78067798431347
2.1110742603494863,-3.266515256556209,-3.8595860006425826,1.4981679805146007,-0.09764920122646514,8.282031357449533
9.841102119557142,-0.9819787652072469,-0.8834158331615859,-3.4373063893826794,-5.958028786507421,-1.7802068844477124
-8.869972759447544,4.963469215704203,1.6842854546248982,3.290890111456987,8.02527607103642,7.4168018730242125
-7.452786689064521,3.3760696100909118,2.186048641333862,5.687717697967118,5.751880759296482,5.853393796054046
4.085229944397789,-0.9502560242884655,-0.09679710162765276,-3.72122322664716,-2.561885920190316,-2.622396198857116
-0.4791670536184343,2.5544503717871905,-0.04137405333228372,4.468466223644132,4.428080427350523,-2.3504316663497886
-0.1575129810008462,-0.67199061943134,1.272215820723203,-7.047845316419311,-1.5216581259603545,1.997985446188379
1.6486243125526838,-2.3836802070207392,0.5544263091897157,6.9122569955841895,3.131221144559608,-0.6597759223785731
3.1202780508206045,0.4529499734119051,1.3096299884352776,0.025211553680041465,1.5307337683071591,0.37681459534391476
-6.156829981097023,2.706718991046251,0.7587114434430496,2.892201664414023,4.4766101979346224,-1.7884541201376236
-6.823533694651646,-0.555418117167068,-0.08651383039768512,4.480283119387614,3.99305671846589,-2.891830418593356
3.5827331847725388,-2.952970140582136,-1.3167718665450252,0.11045653251807813,-0.4748856319196837,3.4992717628453245
3.036223748649233,0.9120270405449344,2.435565100297472,1.3339372600461994,-2.2791818550202487,1.9854909752740313
-5.624137952277161,2.391067872460091,2.161542399973956,0.7896488022946624,0.8539607594939121,-0.1483928182021918
4.238914623994434,-2.3592659376876473,-1.7244194839027718,0.4985863893568191,-5.950083863974082,-5.192921792910523
1.2125559792768732,-3.188484145340741,-0.11554107858762386,0.0045201420723297026,-0.3430407009875207,-0.6640934520236288
14.186568373577899,-6.365370638640551,0.2995179362692875,-2.29884504313879,-1.5651561827657408,2.0713370712847285
1.7566600332647075,-1.5037318041791872,2.2679496519406044,-0.06862090988197161,-1.1458516982443507,-2.279336620355151
-5.915375316932572,1.4294558753563795,-0.443896676992508,3.3243625754925574,-1.0511765711652974,-1.1577925542110818
-6.019326902139495,5.131467756178024,-0.6479899595942009,-2.300813148104211,-1.7892467509647902,0.8668433595298775
1.9299163507669292,-6.068700235814642,-2.8868462937972206,1.807942265139698,1.3853908563936053,0.8372127037694557
-4.245442655280208,3.299495938724031,1.082582495648091,-2.72463490411397,-1.3365184083843444,-0.30343120104308724
1.5869504678531814,-3.733095385207112,-1.3782704836107484,-1.6240033267722258,-1.3189906746403044,2.151890309782316
4.494183454452122,-3.850069262023211,1.0651641190344971,-0.8007956608754694,-0.8921284707746598,3.0874082439768205
3.068595192003537,-0.7568796435808213,0.5084574055350741,-1.1876321706390816,-1.1436819997690149,0.8582134788936728
-3.5716717396528237,-0.7523937674895074,-0.5911418677680065,0.5732112934269324,-1.114963240243529,-2.6808277362301824
-0.6615176054068892,-0.25399791403003114,0.08138734391400615,2.5265413135714283,3.6100025517406,-2.367313739069556
4.815655179545396,-4.498779852576199,-2.1816281881373767,-0.19840594856385055,-1.9593834907137189,3.412607251852695
-4.759139913966507,0.7526072432558415,-0.5622378969446483,-0.9514659918804722,4.117946697209686,-1.2521167874821595
-2.517105765682238,-1.30426327784626,0.14989040368691692,0.447434709095765,-0.12601107518899013,0.13988743965180644
-0.35672803357239213,0.6816375095358571,-1.656382629218509,1.088165018526122,-6.366082086304559,-0.8462216920104634
-1.171763413934896,-0.6875700440968683,-0.5579714021379301,0.7361409474645246,1.3502683100866355,2.2386689620474662
3.795173688792245,0.2981543875407371,0.9073812947841176,2.0113440332777683,4.187894993539517,2.5972099345003725
7.498657897367522,-4.155089173719773,0.1452668778509063,-0.6736545116506707,-0.07895573018744928,1.8662359322229451
-1.926397942842794,2.452071870095423,0.9119016876617951,0.33845346973586576,-2.4303265500633926,-3.0573271277122593
2.990831288922984,-3.8343792422102574,-1.034821520605084,0.22146032897721554,-1.3432185622910595,-0.5497582802068822
-0.9572173429995321,0.38530331741464585,0.43535154749728316,2.174798989621198,1.0279257290088664,1.2742651127100522
-2.462913816795343,0.5472477659866907,-0.4975791175407329,0.338662434046192,1.8247290323169414,-2.5243244354887753
-2.001880628144177,-0.8201966220766965,-0.5364214601663093,-0.31640094289182424,1.3845017977581506,0.7384201147994858
1.6322319425316154,0.2685422084504939,1.5632156053529143,2.0061931205806722,-0.3871854060653398,0.44733826576208124
-1.4662779786767415,-1.2507467401327395,-1.4872151625174181,-0.9081968628072661,-2.7565602044603184,2.736062777930873
-5.120356040361719,0.9395113758739813,0.14428060786878522,0.12007197481587273,3.203798071283792,-1.8083199649002313
5.860439269091052,-4.590325139102848,-1.657429225458726,0.7312475660040807,-2.4747892327046435,3.332498277741949
0.17789267667742137,1.9342856259140493,-0.13894063506861706,1.8728019980636772,2.3729601460122733,-0.6795625638510574
-1.694210554314505,-2.1311588458740878,0.3103519737940274,-0.665128033491364,2.8115229982457586,-1.450886530741853
0.8354256654361254,-3.0132232216544104,-0.8802708471060828,0.3876113204349023,-3.6459733923433593,0.37862850017761135
-2.0314425294356795,-4.292486875888212,0.026163970667718126,-1.2075572072138296,-2.1244916862401455,-2.862520366579595
-5.428507889017784,0.12222800043787885,-0.7656173118645418,1.7833312731790367,0.6933969020729531,-1.5710457644930553
0.013235867963298453,-3.049337408535833,-1.1149066521593118,-0.006656062716255309,1.8542223483554836,3.278212452946831
1.4293409270915172,-0.4316910869511099,-0.7520028020949971,1.1796199696886664,-1.7296646745115514,2.7321220769703123
0.12126387111818882,-0.8563489140978178,-0.3861664378179533,-0.9861954121504124,-1.537415674884763,-1.248472886938626
2.08601705539354,-4.453239370175924,-0.6786149406710991,-1.2586831199645618,-3.235844593636649,3.281970665853001
1.4661648893648473,0.2760569559276318,-0.8368161730968833,0.34126897678331014,-1.1611513687384676,1.0467884750086607
0.023552161591749193,-3.4912746020366234,-0.4531701132798174,-1.3860453983788925,1.146855619191102,0.10988114917014857
0.07416667476675753,2.5920768743950195,1.202850649684922,0.9104096724443356,2.293431516181794,-1.873255736625677
5.372070665688085,-2.8860644204190677,-0.7070476786988514,0.38324919547494496,-4.216426956581575,1.5980558180211273
-3.8400608770299036,3.6634502601892964,0.3362876968563744,0.9203968109189795,3.983569127823276,-2.582192367019804
1.8207383256050487,-1.8805421537698737,-0.08876699928039564,-1.2464486157498118,-2.042922425861687,1.433147819533168
0.348618402983341,-2.1976427386207353,0.13889830189577154,0.415922760486234,-1.4680229162801381,3.1934217401556113
-1.166625171982715,-0.42031772369473075,-0.5476628439058291,0.5382260289240938,3.4795364212514155,-0.4304986076696299
-0.39204936510974775,-1.0943630607405253,-0.33016213342927087,0.3339883865272337,0.0043920798834002905,2.348199545520645
6.577638875723708,-1.3646300237357467,0.07154991276865691,-0.27681864473495715,-1.8512898034654142,0.9173662484829137
-2.710446571242957,0.9358823065834823,0.310547568422915,0.38141433116889084,0.2754943467887304,-0.9642480901953672
1.3868299549245546,0.46998265062233013,0.807362823693536,-0.14354807125095911,0.7383025127909097,-2.546437167028587
-1.5700552174431295,-2.253629540616235,-0.5623893723713177,0.36826735345819117,0.7277135672843661,1.9084254259624722
-3.2208041140146495,0.8168133666213033,-0.9828469197876422,1.9316062051914002,2.234394897179051,-2.139963279063643
-1.2385466397416187,-0.09148939238430753,-1.0092554388608423,0.7573597487218421,-0.8744920105569987,-1.230190018977313
-2.2794630964080067,-0.6233955494669284,-0.731853501185203,1.2470855420783096,0.2600614515995376,1.589224152042266
2.733541611432398,-6.188181243870453,-1.0715796804591982,-0.9510018960569424,-2.515511684800151,2.145135458816918
-5.63067424944777,2.0168783779257167,0.01674039546465289,0.6066590604890951,3.76389829257749,-1.3671258988406956
5.08859623250126,-4.621188226216523,-1.0507568655691741,-0.521045025073582,-4.230628751455423,2.908210884849966
-1.6698247289278396,0.6024354645134302,-0.34033144856027925,1.2295987989884718,0.6188968660012799,-1.6709344399776223
1.9255431182854186,1.0138435945507713,-0.7455486217257686,0.6393498888770293,1.4820084366485329,-2.801000442395887
1.5312930319691207,-2.2032304816854635,-0.14535428975462067,-0.15764968802440427,-3.1124198350999577,0.7723273358941666
1.165798153286652,2.4205603703528027,-0.7684528433787521,0.8593420264323846,-1.0444176382589645,-0.6722584130624145
-6.1378695752299866,-3.4875868527895806,-0.4270852962166587,-0.38629938360680965,1.8493160110438784,2.209805325371476
3.6584014482155327,-2.431090590024903,-0.22381603104564057,0.5405005639249416,-0.8464734029684164,1.2277942715569652
-1.0656103852861198,-1.8522506168811776,-0.9781220018976045,-0.44371395794879587,-0.10121401909546224,1.500311390905671
0.6717353153949439,0.3410961480865913,0.31953042652240726,1.0830967723397067,-1.037576774833333,-0.26023076437935844
5.680012520321734,-2.445398546612042,0.9162732069032766,-0.537955597940238,-3.1482357600309894,2.4670303496149844
-0.11207935218297865,-2.4120964809735432,0.5367559797677233,-0.3927172883380294,0.8507835952574917,1.2329106840972628
1.4999820276141111,-0.07640214933477768,0.5057667045557827,0.1279008998918144,0.29876067326892963,-0.8310621605157553
-3.5254663994568762,1.4953562441333923,-0.597297870982386,0.4932397481969179,1.627330418579037,-1.6660525317897283
4.22464139952537,-2.9226389756968905,-0.5987860580541782,0.1547476387159204,-3.155255639597878,3.2720226377268418
-5.047631415796271,-0.37078456375004304,-0.32305856615467904,0.628191493157169,3.5236600270581384,-1.5698151733371717
1.0725632759366346,-1.6254869057842578,-0.1851862919350012,-0.40541861030197013,0.09131277331715004,2.3215739861342266
-0.20371536080696995,-4.594540522294871,0.44191088039338033,0.306545354055311,-2.0960150974336,2.9910097259249517
-3.1765809187511804,-0.4554748039763592,0.27357461306706143,0.5953326626013886,3.2136886091651498,-1.8754683265311605
0.031113415391768096,-3.661832904624756,0.2287364974950783,0.04258494140932512,0.02711760950211528,0.49716375723798195
3.995694469691073,2.1049185104953745,-0.6959014968180653,0.7397634201421284,-0.2345826219505558,-3.011482430817951
-5.230328698524906,-1.3418252337420828,-0.3583556578342808,0.2505199900643412,1.8578515490437,-0.7945916218890458
1.4416130490490582,-0.3845114044042026,-0.21353292671844915,0.8364664662691894,-0.5871936499807872,0.6132282197401178
1.0963435793572969,-2.028112174294562,0.019089840142831216,-0.2641588501562099,0.35857788333371987,0.9316010881427532
-6.716996407061714,-0.760082772348563,-0.8645216448004189,0.5136478293905,2.105875650435648,-0.9259728742681335
-0.05122357898781538,-0.45118653213232496,-0.5224319004309943,0.8524647630778492,0.009837913019673489,0.16762056448278867
-1.200020496586315,-1.882027662460325,-0.08774487811824888,0.8310069776017677,-1.11947614706897,0.871620647569541
4.83843634855967,-2.22958194819056,0.1850868531089529,-0.09456680113728999,-1.3871079428229822,1.753403068033697
-2.0638080527126244,-0.8110396272680855,0.15209545157689877,0.6701053453728526,1.099087531306549,-2.915629901170471
4.4707933583871755,-1.0583509627225083,0.392249462234572,0.05098238465023597,-2.642222140533479,1.7654543571020573
-0.9716456173501222,0.19006178705260846,-0.3737979470181487,0.9147299794050596,-0.2690670532166788,-0.4757488759573396
-1.2725409152030012,2.149512171949811,-1.3785687732633876,0.007910382430574403,2.535269410042438,-0.8194301589099371
2.818089580716663,-2.2459871650659218,-0.7228176901311676,0.24475361751637492,-3.062018559384717,2.8290250123426626
0.3946585091287249,-0.23135750080290296,-0.7687637254195225,0.45482459843749107,-1.0459288142971723,1.138992446391024
-2.025010211185808,-4.370092648073225,0.9579754749579106,-0.044624015939918715,-1.173772644746002,3.009540642573975
5.097584791703632,-0.4552114987910991,-0.7970079211463029,0.29371164018969853,-1.6894676152789674,0.297591562485391
-0.00991219903578866,-1.2003283160160843,0.5844257945067038,0.4475152244068021,1.0102230585972833,-0.7688841695716949
-0.683922117186192,-0.6395700915867415,-0.26175220152071044,0.13124240647507232,-0.16041562897737083,-0.46454303905865135
4.181295927377198,-0.9679836747821964,0.14781607324670198,0.24472233499521434,-1.0120461137014307,0.9565585775727137
-0.4760910473713391,-0.7339825933305514,0.4632722583336275,0.12211749497609892,-0.5830796706382204,0.3593773289622588
-2.8494359408720156,-0.4144559994035153,-0.9448536682341644,-0.2034936874270144,2.0728397947777237,-0.2664530219122976
-4.844870398531825,-1.7010678514254471,-0.5197690142279698,0.3275112334802212,0.37477750715922237,-0.7445409546643595
1.3515520964844803,-2.668498752903748,0.16350069664414285,-0.05462170123669163,-0.5531070123357099,3.1677470519444557
-1.3026798368765364,-1.8642931495251331,-0.13947611909283913,0.7625309489029208,1.1389461084194619,-0.9105023419547673
1.9785693515613405,-2.101616806036617,-0.2264479017538773,-0.27432030806645735,0.07065923609587432,0.3585410207508487
2.897079978385863,-2.7268475233096767,0.08942529125968429,0.5961785358929115,-1.8763227744721136,0.4894780660525516
-0.11718644047819815,0.2755145740770572,-0.036186282513054335,0.11625594608735779,1.7110109693635638,-1.9601002999690107
-1.8794428416911284,-1.321971097139903,-0.35617409809064515,0.3364482547921709,1.960600946893846,-0.6752707649465266
0.9023477704911809,1.526195277521361,-1.077020050767741,0.3080987452706194,0.5486675306981268,-1.1325508417439978
-4.333023444174816,-3.319006536491243,0.4782674225290386,0.8357950865006104,-0.005404634338043501,0.7200520452379434
1.1147137663409268,-1.1136733158977243,-0.7052349097072939,0.20300002804706185,-1.8074612933528367,1.6259103405324833
0.9839158291049259,-1.3152978044072188,-0.8290302975639885,0.6200262994446493,-0.14797354400173657,1.1407039922489652
-1.0986798174500227,-0.5887544876848847,-0.29427159550677284,0.4311618850278872,0.04007798530307838,-0.5016449707393528
0.057897352525761336,-1.3043743257121732,-0.9707550412946064,0.029555901138384355,0.6937124263865379,0.0031383752897906625
4.23800112729967,-0.7116877649763117,-0.003616078532071354,0.5741783685099515,-1.533886448597629,-0.03452193960451777
2.702796558566014,-1.2645732083661005,-0.3702214205000886,0.4302131502018509,0.062384228448921775,1.3870715417801502
-1.563982464142863,0.42113456385132353,-0.6155226146024342,0.36214598652214625,-0.06663340093131465,-1.3967944923697475
0.4133966180533827,-1.8619551991809848,-0.6345890288589612,0.19536428826184427,-1.31669589624401,1.7988158228461186
