Gx,Gy,Gz,Ax,Ay,Az
-16.681011999999996,-10.181725999999998,-1.8569099999999996,12.759999999999998,-515.496,-32.726
-0.6161708892209723,2.1872801438022895,1.3243639476888478,-3.17879657845398,2.8191677042952628,3.371969487588245
3.2875265742750512,15.053844800493657,2.6435532271015423,-1.4298389349430258,3.2194817802639086,-0.6212880901962234
-8.186957518761048,27.58419257050398,-2.162540930736702,-3.370868391386753,2.1366875412517174,-0.30126468129635126
4.152340117831409,-19.805144434736913,8.286364929793812,-2.3990671123637046,3.3827885508922213,-1.0093211373661528
16.05183608102373,-104.2139660548326,65.95171858887203,-8.806717167031596,1.0263062978048934,4.070984726638397
1.0182663271531491,46.532499235519346,-10.000818814087854,-0.12343180439066015,5.771796001828236,-1.2611486771372622
14.925497540268724,6.794189898181786,-0.15830524665257817,-3.4956164064710853,5.948212050698402,-0.07544979130582985
10.444098069235528,16.938775443274686,0.03280126319223653,0.8697359964949156,10.33841012449809,0.8416836645446766
10.360190699093806,9.913728839416631,-1.439789714809513,0.5689831233497159,18.811634787515672,-2.125042684023442
3.5233786287616025,27.40972974286952,-7.21589538847807,-6.118257791751225,70.91660441881669,-21.940593606608807
7.3462543336929595,2.3926255812239203,4.452150753780229,6.422960797573005,-34.61262771527011,15.556654343059973
-6.075626709684119,-2.7492636883891612,9.248118913468193,1.8440796074947206,-7.138835172229021,2.5335649360985486
-0.7744192384226823,-0.2370013708138312,4.430536270189468,-1.9124771142392631,-7.267433285771561,-3.1374371486010633
-2.0691182430767867,-23.995714300712145,5.3477022396251455,-2.963838759333408,-1.579750068184584,0.45969012712908996
6.2618452393053134,-37.91069074867966,-11.222860264611835,-3.8949518193425066,3.7900540399828,-4.008546512246319
-11.515857537222733,59.904059967517256,0.4402477604862891,9.152702491217608,-14.904389295210416,3.7278857920104524
3.5020746191500116,-9.25182180973351,-14.288539244161415,-0.040760992833616894,-3.699497411311322,1.7231249520938254
-3.909310157878954,-4.3721629342487205,-4.312972762819099,1.0490183971991542,-5.881922003210745,0.11990364614834548
-1.8094660804799927,-6.024534006794183,-2.045600592478157,2.3866968784692966,0.8327116707460471,4.264791354391174
-1.4372058281573272,-8.076916219091869,0.37486612409140163,6.257788610370272,6.550272897690055,14.638148836171979
4.949890292106538,30.834542614321307,-7.676279150979497,7.969268691884131,-14.782286333233023,-19.80297099901871
-5.311115208400475,-5.026076444456695,-8.246982021038065,2.235240498900711,-3.474873676090238,0.21739153704055647
-3.373023294753678,1.9624179541408813,1.9615793365211134,2.2890473679428345,-1.0084995789589224,1.6092418594096256
-1.484607801674343,-2.926255878124879,-4.78938747022283,3.3054466050902516,-2.6447191145327964,2.060323951298921
-0.7027275980342118,18.286802331010197,0.22407523500086857,4.437300553823222,-1.0104001589772906,1.962315966392777
-0.1705540957139866,-30.547409772974675,16.673223116567854,-37.76391207196909,1.1958501840449083,-5.430836673382943
-5.009022111086955,30.045184141227406,4.263415516056175,3.6651516587418502,-1.6258860584463548,-0.02114669335629049
6.75608202520835,6.166164827168471,-2.677027231461362,2.7747304859439943,-3.204363674197057,0.11396190824687169
-11.742088021198647,9.02058759693358,0.8424448556655126,1.1690407377523402,2.779717992931523,-2.3593028502836555
-16.195655814786278,2.232417862532863,-1.7890221477553359,-1.4153907331865603,-3.677941883312812,-4.185047211729032
-5.261134739168558,4.721462860037644,7.410125267191726,-9.16699069404816,24.576139014718713,13.781643024360676
-4.0354057969233565,14.07081502592939,-2.1234046951978014,7.146747372215156,-6.533216407555779,-2.6600750003205036
2.9570571297146557,-7.447188533182853,-4.144180334155261,2.4020796781280764,-5.334160684838174,-2.6184181151092467
-5.96803197423266,-3.29087764992356,3.9700041370623973,0.9141856555691259,-1.223664763259841,-1.099551150119349
-2.919105146744898,-21.01231894775388,14.098235367568677,-1.9180993235798258,-2.0094685978637603,2.8085081400352
-11.04984859804438,-15.001721045248289,-6.597541166321589,-4.194327536972002,5.107946586906104,3.969209204719508
8.496213774358102,1.1735898391238626,5.924759743366072,0.7045687951339175,-6.34933551937545,1.0595708448574108
-4.071884309284403,21.7043202056719,4.666861662777723,6.002859618240638,0.19339317399795775,-3.6739680078241754
9.766169385900493,-0.8894006342034331,1.3815664113327744,4.314172457963093,-6.944839093559176,-1.284625207579622
7.096236339137896,0.3646656977042291,2.8241455181536548,2.13481093263149,0.009635079289714743,-2.530928949208911
7.815530176609313,-5.602754536041435,-1.8248241761166417,-1.4681060560636972,-12.443184422989624,-5.052113647822637
-13.893906445548588,1.8630239616644073,2.6547410733154777,-1.8299436080983655,15.801433280549642,3.4790396736498965
-15.959205075512957,14.164335043372503,1.2375870759760743,4.664687934377401,7.028998516237769,1.7923525733624315
3.0744137322786633,-0.08929083688304651,-6.929248806144676,-1.3970465924783415,-5.747380908802008,2.102688183357138
-2.6500954584639222,14.554289379381473,-8.650777568834783,1.9654734337083943,-1.6031871700679172,-0.2846111040945729
1.3243624583844937,14.181175505038743,-0.4313065914450285,7.907925091364593,-4.867149566352642,-2.5206221656962136
-3.392711722112307,-14.043381438680578,4.18879733101725,-5.7043050501245265,2.8839262665881784,3.2663678872864845
0.43456749567404696,-9.737125174096896,0.34471461890182375,0.6682393631757811,-6.549744407101304,2.4391590067648536
3.471582378190683,-1.6283029777877616,-1.1371373355210537,-2.925773072566316,-3.1903306035911485,0.8849690632748499
-9.844342222852433,1.1631111441397977,-0.23222183915483896,-3.016447688590555,3.5508361005024445,-0.857707869269156
-5.584847145574639,1.3162691152159454,2.0479092170148157,-0.06142783862258949,6.513191032808872,-2.017651069122291
25.543191872933292,3.7313063648091482,-0.6715629313775761,5.351371702729182,-15.502515071320385,3.1836554557034322
2.7543799297481586,-10.757705026279108,6.249888470032956,-3.9536641520038542,4.80135780759556,-1.1132069979181742
-8.956708766633579,1.9113901027576938,4.535956876528076,0.056009416222238984,10.585828098521006,-3.2013076714232276
-4.07525300811537,-7.156350804943075,5.428098199249431,1.5679675009168847,-1.5948517847267096,0.034850868845111016
-2.0596302158727795,2.452651880282752,0.43081716018131244,-2.836271631006065,1.4369299753586384,0.036307801529507966
6.822140099394459,12.915785469922005,-5.524549928087887,0.01225510340102614,-1.996724397745547,1.2564789096644482
-0.19986215377947847,3.169679630204848,1.6916259381142829,2.693290063526894,4.576721032996638,-0.05130811110223943
-4.292483249624009,-6.5232080093960825,1.4752346323749819,3.5822623108618457,-2.409205070537887,-0.987489875905299
-5.29455876678208,-5.444633107134038,0.3975538244863897,-1.024506412328369,-3.478527046753454,0.7644315184402666
-8.47472035613966,-4.9664079779155115,-1.9490922206606505,0.024317717804604122,-3.0684915946784868,-0.31615713883644525
-4.649557251583187,1.5768892991790189,-1.7504269278470768,-4.042846679837466,8.982605570980368,-4.201094382548087
0.9156101527830109,0.9899900229036263,-1.3715129671732664,0.8902868429859975,-8.110912119990527,3.0573848904878993
4.501409630246754,-3.536673612673496,0.9687618632896484,1.0313217793750304,-5.101640757060219,1.0087957411973634
12.895505057056535,0.8019353183648761,0.5585235231627272,-0.026451343400414995,-1.4958108921397315,1.0064253246930677
2.519312389122967,-1.3698254187983065,3.214754677410837,2.15324700569548,-1.4053557776573822,-0.4045269400940972
-5.383864631934458,-2.7712935136684336,5.218752581608222,-1.67182945204427,3.4669824040097224,-1.9590435374261308
7.737563805272062,0.7935944560670218,-3.8695766690103515,-2.705879547412322,-7.238848824862571,1.6889736365698953
5.913731930645403,6.432464365076463,-0.981000814975417,-0.09124244820352434,-1.387748347882256,0.7372284987847071
2.631455718168035,2.1910692790163697,0.5899005876518406,0.7258160287240707,-0.5898593241941148,0.07263548113016949
4.327191073056614,2.201699550562236,0.6884065923744629,-0.09727938137400799,-1.3612966507491069,-0.4528519941367297
-5.220297900047822,-1.9657251760734118,3.057746213407731,1.4969478183766582,-1.3912708827664,0.2781214709445101
-2.215796995534088,0.9690617316931469,-1.4815963078299585,-1.7632875622896915,3.6063241150701013,-2.4661946877042884
-8.504344912276622,2.902792025093908,0.46372636437874526,-1.5135173700050346,4.375152769934637,-1.3921286740440422
-4.219342508112414,0.32952608849127474,0.810015151699246,0.21770139463517735,0.20996196713135307,-1.2410754598825418
-1.5803058923844528,-1.9196417231397405,1.471997568911422,-1.3414134937290578,1.6898351811645025,0.34750583601438123
3.0946884390740617,-1.8843780494792703,0.32273891063361937,2.5013000400483936,-3.421244867351735,1.4084509840999369
-5.324003422438145,0.4304601274593699,2.377408885285714,0.05250587557865627,4.409707274769987,-1.6531204507233115
-1.590250537831741,-3.0817163291173952,1.430231998475186,-0.6371913125737297,1.1796384505018769,0.14626170598695531
3.640923957806675,-1.5367539103563899,-0.8860048013538907,-0.6079019504189245,-3.4634559439624613,2.3720651192082145
-1.7813487157107197,0.9898987928504335,-0.8177529705016648,1.0373418587783272,-0.587782866959877,-0.1980223952364999
5.1939029524829525,1.2727143324254437,-2.0601035319489576,1.2628964504008908,-2.757923097960734,1.2337738125292401
-1.7450807252216904,-1.0949675977090936,0.5698623375915383,2.3303925631613396,-1.7720870238212585,0.9640666705555133
2.5115875719054106,-0.3135275212151997,0.8898242746052419,0.9493857027286123,-3.16856095922383,1.3796626455211163
2.4272713754640147,2.1337635896533893,-0.9888833040349242,0.09372769564972483,-0.20221875548097845,-0.2141928133929195
-0.8618952376843105,1.379998786733167,-0.5558380482147389,0.7539383876690315,1.1492502962924491,-0.3945608520840789
0.6098530389364476,3.2172514774901577,-0.9054245217952693,-0.7634051424286413,1.9491274400736973,-0.5582466770268907
-0.13413271066198096,0.38894671089070165,0.7448164906512931,1.5189289121165186,-1.9545233474936714,0.05385201810568596
-0.8698926006416707,0.39135231162211254,-1.0303747049530825,-0.35513106300716957,-0.16983117152142602,-0.24849439944346963
-3.6041111401025683,2.6116745802402974,0.9370020297582626,0.580479095204556,3.8887631194789862,-2.1398558745271283
0.46901021359075656,-0.4203278867553859,0.48863602628991165,-0.40302508066149034,-0.3725238443194815,0.9803031967947833
-1.1182587797105763,0.11853480612197975,1.0601552704756374,-1.039701986316575,2.685305965507802,-0.27960687893003167
1.9097535775965526,-0.060901034131312315,-0.5510169978254024,0.7058592774455867,-2.507242794874954,1.1734810184860494
-2.230446242305529,1.2064048578822184,-1.1860636952020973,0.8277941769802826,1.4307913519662758,-1.1869027860075425
-3.4165357511847256,-0.5901462845927996,0.2694600021021656,0.8485861703694318,-0.10830602142201928,-0.3878444701210455
0.7702917996549405,-0.06791161997517903,0.8440369279985589,0.7144115090419976,-2.004901375645903,1.0763788130323653
-1.0968500485564094,0.5643580105897131,0.9500141111404353,1.3599214959661496,-0.9558748638698078,-0.4291078214084212
1.1630281942381515,0.1525613003573354,0.05287653285967536,-0.3047406510625924,0.21927763085148078,1.060086989408286
0.5324296868251193,-0.6119699344076855,1.5512245562959892,1.1905596912510046,-0.006247067913164983,0.2026168384340823
-1.596976064642203,0.9651683113628126,-0.7558940550878988,1.1675548210302154,-0.4559254605872809,-0.6090114972142036
0.18749447128370722,1.5528980211138546,-0.023354240550174543,0.45402008717664466,0.26900299805804995,-0.7413968128802795
0.49908767482589544,1.1641489834154206,-0.80903531907612,0.6701310037947668,-1.0467378229420927,0.16482457741991557
1.6338122218215698,1.4596610424816925,0.49680421156314214,-0.3008683578043816,1.2649366144564915,-0.095861746759763
-0.5784103747834005,0.04099158804668823,0.3856275040081383,0.5498246525930421,-0.23308230736205093,0.40978262622945916
1.791298730412871,-0.8006842842007007,-0.27003431845051784,-0.6549916042048005,0.09880589547089258,0.9487441833495562
-0.26089310720086556,0.53906898866714,-0.2986013324158769,-0.3585693282722757,1.8816066937190095,-1.2957232265520655
-0.21159407260375218,0.07632002177658004,-0.21508434947376065,0.028788335459341008,-0.5848681746982893,0.23636171139039447
-0.0626254805996973,0.13715989771753279,0.5162436567237257,0.5193166531840955,-0.01935824919227258,-0.5162079405024262
1.1993580944013842,-1.0081065266327132,-0.1379749228930941,-0.5792456928331853,-0.961129156892742,0.8036557318525606
-0.2693031165999932,0.6962950887869216,1.744643425562167,0.578955414094434,0.6305481671174906,0.23366982894145583
-1.2959856510917014,-1.6585758477314543,1.5313557812621552,-0.10534878991313096,-0.9814296659643624,0.3360984664567093
-1.9680179066155572,-0.19446189771682065,0.22987398323098296,-0.05681096260389376,0.3805455620471044,0.18033058955589254
-0.04763441166847038,0.7498871759942862,0.5649152493879568,1.3029758115582153,-1.7849145714016128,0.44300113818418085
0.8705891590481855,1.2207831840883885,0.027879095017024735,-0.6263088839226778,-0.09700873051387926,0.16385357607466894
-0.03430341408724019,-0.3401713243799974,1.2921507478492087,-0.28217989914926506,-0.8990116925026042,-0.14975612115354736
-0.8176786967631716,-0.0013669622650473445,0.04922990555517881,0.5189389440138881,-0.26340109986909327,0.5381064862634125
0.39257291562028235,0.2847170808114803,-0.49348141445908444,0.09447728653293364,0.17795602278370565,-0.03570200807930507
0.2626747232209233,0.4508630950913085,-0.7004401879276252,-0.36068502196903385,-0.6998441639267896,0.013144731636227647
0.08028702548519184,0.5945860984964129,1.2964080262685604,0.10440209677801748,0.5067277639197275,-0.9705217875633909
0.6759305125873954,0.05623659046126883,-0.41242852810148756,-0.6466340025569446,-0.5905384303666947,-0.32799529588201903
1.6416664624451576,0.3315303847001137,0.9173238251666929,-0.5976108181855347,0.8439310641520826,-0.28467098371299887
-0.20103831525098026,0.024498464720914548,1.0243911363488416,-0.31761672910223815,-0.21633736429300654,-0.13312846617625784
0.05219775209847188,0.2756585875649631,0.5282883751778653,-0.7840005439144542,0.6998109497314189,-0.21967118887850945
-0.5777984317747097,-1.0866419566901642,1.317481479017731,0.17379160841932229,-0.24378963627694517,-0.11614920637047235
-0.7994061184580816,0.06424399710866163,0.5096417806759201,-0.18439703538218313,0.08321149353735613,0.18323336026796322
-0.030610081122326438,1.4062765019879113,0.6206174376603184,-0.07012549444811916,-0.7235625632844083,-0.4124686247124286
-0.14805062876718095,0.2648853035001191,0.7560260197690905,0.02912849250099217,0.07496063873702852,-0.07752793991381249
