Gx,Gy,Gz,Ax,Ay,Az
8.027827,-10.591728,7.605847999999999,-29.904,-559.7800000000001,157.958
-1.1148265993753341,-0.35899773336813373,5.47827970766893,-0.5159993157645697,2.796835125941014,2.7587215401625107
1.8488073761417005,-7.769908761625356,5.1853936801082305,-0.9023848246309303,2.7606455250026225,-0.1755299211623388
-4.398272235122326,-16.719545982979362,8.804328759919485,-0.9598441477123374,3.7485435195633015,2.950170398106323
4.68321227895306,-2.562935290632523,8.626028538719071,-0.321354956830755,1.9578310997267885,-1.7731143867458716
2.368621769275864,-6.815665408680909,24.750898897509288,0.5244807503517839,2.7786096198133445,-2.519824390831998
0.719947318801758,39.26313593367527,-63.31593772480688,-0.14752901346790348,6.701854835427323,-0.509514696534483
0.06358515884072502,-10.44783329126021,-9.858154455512956,-2.4546484422172354,7.962112914428287,-2.3189877679939994
4.81847320664971,-6.113016131178413,-1.6195582399958914,-2.3810021695967016,2.704799799964297,-1.2473655019354315
11.496055925159117,-14.075231818858589,-9.292485123215242,-0.2825111332939134,6.445010993698849,0.9270679767673922
14.557818658960485,5.800266349428017,-5.6286645952427214,1.1878316412650158,9.804042340731641,5.231028175159051
32.97990155526187,-0.6491186251879325,-9.641134915702775,-0.18353378046852686,26.013261111816206,16.6587366917154
-23.70623433857747,7.358671894708187,2.753185468053898,0.5935357576814186,-12.245971831628623,-14.895078582995286
-6.004770200896699,3.850101499791377,11.536080171604887,0.1452333222116342,-5.737454730564395,-3.2412505246681964
-3.2466674060475977,1.2987705463569617,-0.8113703116414159,-0.8035578494708653,-6.290876388344738,-1.7800958974909018
-9.417336265169366,6.30309413254423,0.5141615979063077,-1.0950824089932278,-5.1940879333953065,-2.1685060993886505
0.36462736984723065,1.6019436655734942,0.6297426842580294,1.3737503983012935,-8.816081712099692,-0.15437066940488425
-6.484794570067609,45.14889391046309,-28.019380935167025,32.9200565332218,-14.62482358185241,3.0682944891583945
6.344068077710973,-3.441450940859365,22.213945871648928,-6.0978224275426465,1.1919081808095617,-0.9103252412817402
-2.4894460159205134,7.596797543441642,6.238764387288385,0.01824552626810738,1.0106712370473212,0.06901431600905616
5.559365612349725,17.963248759563914,-4.228318249841494,1.2646514982703576,-5.561161932506806,-3.6334767250722138
4.81508049132739,6.383865365692579,-1.3042596034060128,-0.9116583814295658,0.47755510972915477,-4.242941519767438
7.259162490047237,1.0346220581420598,-7.4219036299361605,-5.271340025609346,0.8262971818262497,-6.672408426830927
-14.504164202981253,-1.702567880786809,-0.6293086329642037,-8.78303652304853,10.484174216780055,19.542366928567265
-3.430628042034108,-0.65540275197399,-5.128873520092142,-7.1836726570068326,6.269085412074073,-1.8086580669674444
-1.3738514252133456,-0.8639706129015381,-2.4724735910140305,-4.621907062949429,2.2123240159029,-2.0214456841262667
2.473053635080155,-3.133669786757517,-0.7815562153148052,1.5659696950218513,4.612698957843973,0.6306556809877392
2.124437462609153,5.662360684026321,2.15591034064147,-2.5842994865114894,5.913695998635427,-1.9694942822804449
4.887681592636017,18.38016736121388,9.128366555113285,1.828721595178176,6.5383236654582575,-0.2345708403923119
-14.46497519340006,-25.423165068214374,-13.125357189981433,-15.548431552002292,0.1848517874297766,-3.8469007737506082
-1.9835986605002454,-4.18997302035679,5.540905499947166,-2.9522547872040574,-2.2100443578859825,-0.4210542693515089
-0.7845163186417858,-8.230403627773482,4.54354198940503,-0.6882784182445726,-0.1464593600110664,-1.6373224098753394
0.6343572822782262,-9.367103264297858,1.0211396181412637,-0.5473378504152003,-5.194113237052451,-2.1788833403996763
4.661509850025959,-11.236818027283013,-2.6217558922834754,-0.00988037355996485,-4.1242057176842,-1.2641058187939223
20.306761542697632,-3.4364800663810797,2.0875346556388017,-5.795178374865659,-5.444844269442182,-1.6622639341914995
-6.934539585804195,-3.691743077024375,-2.1179747057696368,5.6047173646949675,-7.619731184138539,-0.7668605774758492
1.802555128912325,1.0800559246459325,0.5568541893911698,-1.145867601822569,-3.5676761163715227,0.6389228369173355
-3.0964666511475882,4.869576920273796,-0.36999164979533283,6.215025558600005,-2.569322069373799,0.8125070600265365
1.8699087288660612,-6.291622877333782,-3.7586727650325416,-2.330704253868263,-6.7762020525498246,-0.7889976700431829
-4.462022358558004,1.5841117480836004,-0.32925506830773266,0.27947986919950757,3.2107552556589534,1.408406023819282
10.156735328061636,-4.070454992118655,16.31605455989735,12.270966713058149,-2.7883892776929002,3.3915112364610103
-5.506695681625454,7.472745383751516,0.2902549505435151,0.8902486015415604,3.3104445306916115,0.5718923389916789
-7.050951875115059,8.127293832160598,3.486314134243823,7.039790465186921,4.549712202807134,0.1585092549112378
-2.915397159917856,2.7768406620894597,5.297114060615328,5.937209785202308,-0.16610435666531465,-0.5298385011062876
-6.539337214596962,2.720824139630926,3.157424987947989,2.599909053972534,0.6459879533682005,0.16663399685122637
-2.4927275263100044,0.6238269180538507,-0.3364974245759924,-0.6930288003773168,-5.664204883751677,0.41649251642998675
-0.1962871064861922,6.621153122409393,3.66355202259663,0.931729266105414,14.665536101840683,1.27657705400132
-4.3620216324619605,1.4147227105097606,-1.5744612113948317,-0.6078828708540396,4.876617471679619,-1.2945710234743693
2.2129406568758765,3.507970770646365,0.34219777154830544,-0.9371410321425131,-0.05405015284146453,-2.373781751756779
-2.7567676549073123,2.522979234348087,-1.432014594256326,-3.4565015244447412,4.901536963994157,-0.39842932253199836
-0.04686794885393253,2.0500677547820034,-4.741389181823828,-6.257027149901549,-0.5013962367422377,-2.486385041535943
-2.9736162393195595,8.091958071445712,-5.311488997115585,-2.0329714402680272,4.444193534400876,-0.724060520500589
8.18485941061578,-2.8012550704463326,-0.9629599076373845,-7.005046975531944,-1.267947835225454,-1.843594550267265
6.301657854285338,3.2904330798174684,-0.8803200168467467,-3.952393829047681,-0.46072435114671517,-1.8131718450973744
1.6296554139784276,3.4987047213021816,1.1189289066967136,2.2491619595732915,4.889955361902369,0.05259379453569796
2.3426043766276297,-4.13151383445779,-0.5208869100224701,-1.7510040160301832,1.0864362083735732,1.053768197457013
1.1519498858400143,-4.041842853973179,3.925118344315113,-4.694682793190935,-4.10430965062875,0.9198548364555174
-4.634330205063844,2.572101884214024,-4.531002527866969,-3.797143394564692,-8.118299264932038,-1.822114094103867
9.281220701642125,-4.747720102299993,5.242873092037912,1.8250064912736115,-2.779518094081102,3.2680730024985314
-1.2310330620587415,-3.525764958145853,4.673452090352518,-0.8546641189588584,-3.394386981956278,2.9787823902142723
-1.1987173045260793,3.1331325185854104,0.12200396255153567,6.076865964617391,-1.7086495713335665,-0.9490973240216505
-2.845557585272574,-2.6433818388572634,3.4734420793877123,1.5760674955096374,-2.967813033708703,1.0113545804717878
-0.5811030913537554,5.734500062887606,-1.1881101650267563,2.3465602003440442,-2.4526124891690158,0.6593177679498978
0.5714478002368564,-6.396124099688092,4.791558708134771,-6.018856553489489,-1.6726212410614156,2.9872987084885287
-0.9440483364581644,-0.5432206699973088,0.385738385580338,1.9128002067191943,-0.298125446676482,0.034728070313015724
1.7814177942284202,0.5877181234727444,1.8574991229157296,0.5904210190014838,0.6723590330135176,-2.0021031339725
-1.653285783807338,0.5400365678639361,2.5918218772820643,-0.9500049998450004,3.6544356213751237,-2.070977039935621
0.2775756355745833,-0.5100965085399709,-2.7792468629274563,-1.85258290374574,2.5756358982355794,-3.436611587496777
0.6669133377575922,-0.01713830809155903,1.196742306272435,-0.9214212636320998,3.018772963586824,-2.081542840681479
-3.3703182620733005,2.77681507086289,1.6317921348897442,0.7262608859849278,1.8098187645041999,-1.2581059360321751
1.7479015342792388,3.4708126952762703,-4.52133092495585,2.6722257060850616,4.796381418531108,-3.926812680771294
1.479452953958462,1.3684800916400477,-2.997185396444194,-0.19700833591646294,2.385841162096369,-0.7107290094414118
-1.893516056738179,1.5192429115204358,-1.9384974674948348,1.1403043594796172,1.7760491748891076,-1.510325173070345
-3.9324239371108156,-2.1370920320298525,-2.405953742327421,-0.9574846673763966,-2.218243801614285,-1.1989439568412956
-3.937812111578325,-3.163271301672177,2.1020924636090275,-3.340927626091884,-3.664599590674575,-0.11731705711583218
3.861427623914724,4.677721831425082,-2.6978296213658,0.6249344733407538,-1.6215299720540401,0.9558404149320617
3.1195920741797236,0.45059327559862217,-0.0775080482083288,0.240693246588231,-0.6804648810590488,1.704881636968811
2.4613103039283573,-0.7603973776230979,2.941284293079334,2.7453509690215587,-1.9899682626716713,2.3155610978959613
2.007841979504175,-2.525850185091201,3.667610988291572,0.9445319021090661,-2.288622346745943,3.0329440317915015
2.371916938380413,-1.3288168619775922,-1.4907233992464584,-3.0369807067796257,-1.5322683550623988,3.0819401845173617
-2.354250335744466,1.251364169474086,-0.45413275739672043,-5.838830258509422,-1.437054524355787,-2.5003409989646705
3.2195863075559235,0.9435552887372705,0.21398229851426165,-1.558755717217696,-1.9204769255066694,4.408909583516392
-0.761864241270763,1.2817421759177303,0.40282200811722735,-1.0192295591325289,0.042486764391517884,0.3304404635378466
1.1849021875116106,3.751071899349072,1.9016673417937433,3.311695305888133,3.056572584432445,-3.0872772376906568
0.3609619797437902,2.347715861144394,0.7817330509274352,3.8476086828920444,2.511183078379268,-4.478987402746967
-1.4700304553925843,-0.7148240123149017,0.6639470736395086,4.162094244392851,0.4599392708228319,-2.9225042298168473
-8.194708656344348,0.7409818585251842,-5.235680413502509,-5.765373949686065,0.8700301357384488,3.196390796894211
-7.006261427684009,-2.6736891662959126,4.058187024220292,3.9765918380526157,-0.8625537839196735,-0.5983511707667808
-4.675751388343284,-0.30265545300877283,0.3192624403187947,0.23814282920223412,2.2172721046174146,-1.9647448110500967
-3.051128406362819,-0.161981425216552,0.3749467484721283,0.9100132901096137,0.23404985799335898,-2.1025046272733383
-1.2345999633587526,2.2817747052426176,2.0304662010305865,1.3766907388301601,0.4347615052132108,-1.5445973809726932
8.25118811452381,4.373827251162832,-1.781473435739512,2.541670007365985,1.4297959370986044,-1.8652113073953087
-9.645227026806591,-6.007390614447226,3.2720675418021443,-2.0211451254315924,-1.9455633044514498,1.0272797117232977
8.483331751127837,1.0333789910450415,-1.8555184896921209,-0.2581858915021389,-1.1049024850143199,-0.5334118072090548
6.79154419049111,0.658916801335621,-3.185681679307832,-3.161456335110767,-2.88438727380657,2.1862987268127814
7.0780017902881,1.6698294487587415,-1.430704505107311,-2.956843027751186,-1.5076331171129322,2.5179112540807176
2.7330831021879227,3.2004390790501427,1.0970819369850653,-1.9754598410772177,1.0887666389809698,-2.8904967389670837
1.7473395795918694,3.415684354314502,5.838919919105415,3.4319054059080663,1.778917507091856,-3.667484778493127
10.760469683962333,1.3218770371132873,-5.268666851006781,-4.458300491191952,-1.0031384902455565,-1.1024356110062898
1.9689913554221854,-0.4724238088793422,0.789563840663345,0.5403560607745639,-1.6139458558513486,0.6759660306618194
-1.482136362823105,-1.1832660932236867,0.28418449641890753,2.0526452138799764,-0.44885391931219587,2.17190172567755
-5.548117425643445,-4.2130250694497535,0.4158599413786416,1.9109003666560158,-1.2228320099272916,1.3766894564282783
-7.835361275612771,-2.8157548313150422,1.1349908385402232,-1.0536120614947158,-1.4806709501524602,3.1171545943493357
2.6158077482597175,6.223514588960523,1.557075310071744,-0.46687656842133585,4.43143936556612,-5.489560849130025
-11.977327137486991,-3.441031794052273,1.3955411767701675,-1.2665516861902517,-2.749416978041542,4.820162348541073
-5.996987150417187,-1.4082529964211459,0.5719674788558851,1.246549522882309,0.30256214954601,-0.1271776149227406
-2.0653750357449576,-1.4514877677471825,-0.7295522696314993,0.7376162966982072,0.5149269229138058,-1.950935649330785
2.7327637430202163,-0.10612085794159354,-1.0106433828329033,1.2270258608079443,0.013154887908094604,0.8238304899244746
-0.9077536961431161,-1.7115120844485112,-1.2156512078031647,0.5373610069527516,1.2778471758942738,-1.093827786365925
-8.629852961761287,2.725075406827018,3.2965188787417743,-1.5689994611224511,0.34477687693036174,1.5189649123548852
2.6028850171118973,0.5685315208644208,-1.8495354167888838,-0.5362235343571147,-0.2682412219341691,-2.486327342797215
6.035675336576784,2.6719871731650575,-1.3712296573323792,-1.599496331004021,0.712751480242278,-3.989126663320998
6.636723859567947,1.394819418512002,-1.0363889225761036,-1.716825373247835,-0.91046485207481,-2.7942030944406966
1.495635493450031,1.4239925954630896,-0.5202760016639965,2.1606529502189353,-0.0239142272638731,-0.9487768696036192
4.206988783341902,-1.1856123252828041,0.5656210330396889,1.08407908262524,-0.33588768197830354,1.8977239651741131
3.6218772692108008,1.0892495395809596,-1.9634054997840498,-0.7503552718872206,2.021049665766166,-4.806660988376445
4.857103602069593,0.2864347413009414,-0.023705653047397413,-0.7009756081437335,-1.747304498581139,1.2349237188111832
-1.0420308158130391,-0.10515177304014478,1.236615397130314,-1.1576743686509292,-1.911747109662746,2.1936491798354307
-1.5705742714098656,-1.0504920776625641,0.524408520154936,-1.8769861089228517,-1.9663771853524061,0.28329562164268984
2.425597137287514,1.309547677510359,-0.08539871855997966,-0.8564724130780349,-0.7312595147749291,-0.29209855130392537
1.4415464664047326,-0.34735941247825886,0.19764504880975142,2.675218778216672,1.0129299353224646,-0.9646721641365277
0.5084046604290438,1.3406440453432271,1.512064927106392,-2.6979343855327897,-2.3781269140964185,1.256645922129617
-4.797531362087289,-1.88530892344243,1.70859968085283,0.4936308735814714,-0.6975968771272498,1.2673495849493936
-1.504612907455749,-0.3113080763657974,-0.5653786240280775,0.9519337534632676,0.40100635334838,-0.23154076590383332
-0.6547116720694883,-0.983960479892114,-0.6869884649727895,-0.9218911640138924,0.28377788694279804,-0.6747710871326318
-3.9352315619570204,-1.1560635642144979,0.6311168059797775,-0.4207953598146619,-0.4324488227251466,-0.13918196275686334
2.8120700167754378,3.1509964228638045,0.7882951488311982,0.4972138820379206,0.6641198480213502,-0.4007592195233347
-4.8921915444729205,-1.521681739331709,0.2709671272816243,-0.01000241159330284,0.8157872431418091,-0.8257076253907066
0.9910038284996885,0.5964052516784595,-0.3433260973128949,1.6164331540097363,0.6636080372473595,-1.6516244618701634
0.8552408630035635,-0.14819215972512456,-1.027093498672172,0.9672322734159202,1.4570750792313523,-1.4765192245643424
-1.7642283974904804,-1.3769786429834827,-0.4203216685319474,-0.6559098269672329,-0.2329821506351427,0.44380885132736836
0.13812848517996112,0.14576595374133494,-1.5399648549966343,-0.923385453031209,0.8871847710772496,-0.46661548788234897
-0.620353695838975,0.6784326527883261,-0.02189282651412905,0.7451486372258521,1.5613100993089675,-0.79117682807294
3.8125842772464993,1.3876926551856998,-0.43095381824408047,-0.8437046085292609,-0.6218435651330128,-0.39341415534829305
3.890315452175381,1.6580957618367478,0.7658709651329509,0.07505662472449454,-0.2860559473230124,-0.5470035494695917
2.1859259764585177,1.3430114302212328,0.3542717817940919,-0.13971778376198862,-1.2713236232498926,-0.7463069525640496
0.9271482401491413,0.21758501151540743,-0.5173164349840089,-0.19466555187836687,0.21926681785639035,-0.4385963199664258
-0.418112951449237,-0.14588575857572605,-0.2764803561836364,-0.176991432823632,-0.7317307443593426,-0.05094748354580014
1.839126673738872,1.8769324994335053,0.3040026190965438,-0.6632633789470992,0.36414582177985755,-0.0014293695836591347
-0.8455590413134697,0.39732575693482985,1.3081458954655238,-0.8863596951821934,-0.2353608666768252,0.37613947288682914
0.5560119920616413,0.2769621298360181,0.7272924207719076,0.5925022499107655,-1.4185872166215674,0.44214377864070364
0.08263746919546022,-0.09844915123608966,-0.513273917874834,0.3666650442084843,-0.2846045569585927,-0.291573859231287
-1.5192926976096224,0.4360181114328009,1.1928799582118153,-0.01800055813560636,-1.0769644097992837,-0.2890716711490283
-1.2119273336103957,-0.30926003100161714,-0.28927074418095333,0.039417773793458316,-0.14641068498181686,-0.8119709863430243
-2.3237577255232935,0.3637858905878551,0.8265696965655885,-0.6686369790606925,-1.0484635306880015,0.20483001241732698
