Gx,Gy,Gz,Ax,Ay,Az
11.972452999999998,-8.049486000000002,-9.231655000000003,2.6879999999999993,-387.23,66.71199999999999
-7.415663002331744,-0.4416777147545412,-1.626678742240435,0.2838015232246305,3.3721409413721704,3.191656950876994
-12.644753683192047,25.84828383089254,-9.972167484999554,1.0627516552361458,3.6811565808690023,3.4605318073360647
6.092665390136058,-56.163262295718674,16.32712239543284,3.734249218151158,1.6877276197458972,-4.03930300506702
8.386363483116408,-200.91209658523832,66.60221717724214,2.730849072740817,-3.6910867421013567,-6.75062528096425
-8.227633428162177,57.75712815668639,-14.665831652150082,-7.773035308136556,8.155694950406915,-0.7665281335094056
-1.4004843739058472,23.24577744220991,-3.606100331874349,0.4964763749748231,11.467218890807885,-3.1187565364565386
-0.7221691721444905,-27.175965172891,-7.4090659406668085,0.33205249088377453,12.152502062111303,-2.485825601464688
10.158828875819069,-42.1016719693444,-6.234188902501444,-2.2337145456759364,46.06454448162106,-26.47541506858409
-1.6859802185926869,-10.965252354934337,25.113727719996117,-1.6329067391007102,-12.064162346734289,9.247262568060016
-20.502148711845347,27.382876169264357,6.382057298077821,5.965984704502226,1.442437857305644,1.704602235422254
-5.475998505957919,-7.618317934411168,8.828946555320359,-1.1743910069713075,3.1790760916176843,2.8699446460344546
-0.6935507776000343,-21.827127255699452,7.068266100045063,-4.267975765499011,25.646328532894557,1.6090998786501323
10.532242923410127,-25.737560821551025,-6.2775767298835925,6.10053705012931,-5.483911128064321,4.2212144679804275
6.9809002203075625,-7.593659784947492,-2.8420941223738656,0.6944393477267812,-12.807236233012963,10.133660682371708
-0.911224101559433,6.626948120721491,17.99672358215991,2.6592178499639365,-5.4620055372787455,4.708014796721824
6.87475156861274,-19.412848973634084,-17.855736387603418,-7.173244465885572,-3.3614466840786084,11.29503533491624
-5.663496669373921,10.908516934070386,-44.19972628187899,-5.838490765994079,7.734575951956505,-12.962035264850407
-5.6011982180093405,-5.6580051555324244,-16.272500585976697,-1.162862620267135,8.246270136602181,-0.02560949510912036
-12.8225989794919,2.6988115139060755,-0.8968462340967247,-0.6560462308724531,3.971540400737762,-4.5355363359974
-4.556019498875293,2.8090393535423726,-17.169659335084983,2.9914798392100197,-1.4990652949150403,1.54076321320943
11.684580687942276,1.250962131890199,39.79900352648119,-12.912041701467235,-5.331631221675528,-0.2884485413493957
-9.760400104956648,19.09098661722621,-17.148234551208706,5.5248265347019,5.91441295621566,-7.657948013221887
-7.808540500542736,7.732127828138154,-2.2371303635012874,10.347160550802744,8.30872732793865,0.6536515175946682
19.541900126778202,9.541208505196797,5.379620570031416,7.718728405883652,-4.391350931482575,2.7545591365376154
46.98609453051896,2.8961118990030483,0.3737976423967777,5.350126124163283,-23.72415551763736,10.245504477686275
5.389966657151363,19.809456678619156,6.034037050819014,9.409605301693846,-9.174192206481724,-0.5551765150215828
3.000585553657454,1.8173555731904063,14.666076676320356,-8.792190131294792,-4.218466566434166,3.930350088095034
2.3957023634781933,-11.908504419836056,-9.326511518810534,-12.004007885160096,4.807812208059802,0.976450019006365
-15.148558906413058,-17.500601423028492,11.014092438286815,-11.622412771779198,18.767157917687594,-4.681532677424048
17.162885452780777,-2.630667302485131,-9.30705589111939,-2.3708512423361223,-11.886766699409108,6.459413515844389
-13.973878978493035,2.21464279132595,3.2733873472561075,-3.404911818234778,7.988166209979075,-0.6220026785255017
-13.945324388763545,0.040317653048778546,7.225647013538378,-4.377867817193778,17.90960068961526,-7.069720364049779
-12.211914020590353,4.8905568252314335,2.9966373562378372,11.580955121250335,8.383183788972852,-10.426708670434593
1.9772266353539063,-8.332426742582665,-1.7372907651349219,-13.018653559717587,-12.262597763645182,7.782174271320961
-7.544929729763076,3.0960067153014346,-0.7581373213732192,5.4908616963166414,-2.6054663293928186,-1.0610511363188966
-5.412931602915978,10.850850567524787,5.117873318630691,11.058469988053007,2.6326428122197028,-4.104376194322706
-0.7146123513544533,13.544967420353814,-16.679157523363997,6.256072863543865,-5.015127718872696,7.533962532746521
13.862992727221021,-5.814334607727552,13.441467448771792,-4.002055083488051,4.1877157258474575,-9.12550286776925
4.048066924408172,-3.6436765573810943,-5.449696214733308,-2.6909345019461,-3.3138242320073865,5.334929756980941
-11.348924986234755,-0.4736753474353548,-8.519788189003194,6.164203545271556,0.23089091614160673,5.695271211763007
4.080260655162573,-5.284948645760892,0.7129143480367202,-6.864100740882954,-6.372109850212588,8.817377800752256
-2.0312750918693085,-0.8610479117433134,-5.382900134489054,9.511443780173662,4.696315184178751,-11.002078400835892
-0.7892837663884764,-9.735070742612157,-1.1004922862727788,-7.841616190592445,-0.4074351335625157,4.621072330551106
-0.8408108001552144,-3.2963929042344393,-5.1809941898951495,-6.3303468739758255,-2.761180202130951,3.0006558728269006
8.85774595847975,-2.329826422186369,7.64877656851065,-3.5862828840982646,-5.289027047560444,-6.419157932983056
-19.561045365704572,9.280552305092204,-7.37246150225321,4.634074530193911,0.1722457485483968,5.367458595825868
6.953237025627828,2.745485943874799,2.7939334865572416,0.8363736021826105,0.5695674823028756,-8.031565212346523
3.156585863324036,1.717058022498497,3.426449485498016,-3.465947301684797,-2.3592171420903973,-0.8442004748165344
3.9546177635026405,-4.42310379580458,5.518557287850745,3.815669517016585,2.6507704446952736,-4.955349906714313
-4.7119207207862175,1.5972644140253287,2.8203495074770877,-4.025545758230605,-4.739700957308916,10.869728264521825
15.537349734165744,4.180437324632944,4.704169378125098,2.7077791273617735,-4.104780427527431,-5.542621588461953
4.989082362601264,2.642011991969987,1.6995721639488015,-0.6391759579239454,1.144527096221875,-1.6985031844585023
-5.906982154366242,-2.922120025840785,-5.136908206942554,2.179962272197499,5.538163332080371,3.5656903163735514
17.771575220352776,7.815195681380336,0.08129891071191775,-4.002591885768706,-1.5132355093678527,1.6117625600081253
-10.67826434472518,-9.654655992416142,-0.31366253551324075,1.7661715808032423,1.0285688230773573,3.1662389886253424
-3.7900993123680253,-2.47574211426965,1.2946970557202917,0.09721172930315602,2.624319064903518,-1.6110500200439537
-5.750721790389453,2.9648079832600303,-5.420468570958097,-0.3991305014951334,2.368224627476276,2.7862379308355374
16.480861654870044,-2.8350050035653105,-0.510566896827787,0.08122110856223386,3.190062655749987,-11.818374757982223
-13.856131396753351,1.3166236135124032,-2.190218736166081,-0.7942474669500266,0.3736220581069374,6.82251860725764
-1.2386836374400814,-4.391111581701343,2.807092596259933,1.3720800333309682,-1.5823247272371646,-0.5543717780564581
5.580597976220327,3.765167467140274,0.04671665891446897,0.6425490503281532,-5.42623306647579,-1.3341216622150904
-7.214944532829425,-7.62137234140324,-0.7036905604523294,-0.026738720575149588,2.2414024709154146,-1.060287894048912
13.953216416324981,10.230029566595766,0.48235774032020196,-1.5909656373197452,-1.1715699918544726,-0.19839723397872655
0.14071235257807313,-0.26145209101603806,-0.6384673948688958,-1.4469039646634985,-0.2660000828227562,1.967697339940186
0.063899499999998,-1.946742500000001,2.2397604999999996,-0.5310000000000006,-0.9430000000000018,1.2499999999999998
-12.772006615199594,0.3505932883845069,1.5307249952649695,-0.790498270452703,3.7271778613211133,4.650549942260243
14.25204483549669,-0.24153297912653038,-1.4951942301016476,1.7542247369187733,-1.3752256370912352,-5.43028990842155
-2.9221327720208197,2.1440826767373835,-1.190859764835586,-0.37270499208358265,2.517699727951926,0.5181423346908351
-1.2483516208388226,-2.9937562196799687,2.669655950161515,-1.494466864229374,2.4364454268803573,0.7271279280620293
1.4910230586807955,2.432470479082336,0.931583089133754,1.9018096835142173,-2.546099330153636,0.21284756404101923
-6.593683894133505,-7.592131352999353,1.3337826687175829,-1.422261862951418,0.8574675127837998,0.31082664284929207
5.912687711578475,1.3900547649355763,0.04238609586234365,1.3179879814472952,-1.8470034722672952,-0.6604680217399712
-0.790522394372597,0.4183134683152998,-0.05470496952793091,0.1411587047871442,2.2662968104654104,-1.4784489690149734
3.814266803827774,-1.7219490841550744,0.2544238492556521,0.3003523651971589,-2.31600419262622,-0.603338176120654
-5.281074527261012,-0.32371975690293353,1.453718386741206,-1.48130928824646,2.0951249484981584,2.487463947787779
5.499549058418334,-1.5423875356587202,0.6161459370323525,-0.39869084599679194,-3.501794022857516,-0.20643603233594554
2.547202189339564,-1.071456976180376,-0.5214219240171343,0.8309331085795244,-1.0296572209406052,-0.04317594243257572
-0.43999507077344635,-1.00136188093355,0.6220729940049621,-2.283776634536142,1.9339945218974082,0.3931691036487299
2.9256812750142736,2.580407079398725,-0.49629642844956245,0.8020590371950922,-0.2976008788648672,-0.25700283611318486
-6.595622601129238,-1.4520007586650303,1.8509019174885686,-1.6442344589591773,2.32618632720776,0.550002685238407
-1.060907147497054,-0.10342450290518279,0.5793430913890472,-0.011924490410135213,-0.4279126060676599,0.8580101113821295
0.5667354626671983,0.03768129602070225,0.4022310409667993,0.30009124905195206,1.2399481653362896,-0.7821751454432313
2.9042711962318917,-0.9173784058572938,0.5795834559174864,0.569158275879202,-1.3841237037958716,-0.9926624245899687
-1.3563960253919993,-0.027105935010985682,0.31610333984051664,0.0370767582204099,2.8654755190275267,0.3013224308577602
-0.19858128613185233,-0.40556889878411173,0.8849826935847175,-0.9753647886827714,-0.34897265921461806,0.4393164751285772
2.579850491478598,-1.4924455215098433,0.9975677235587614,1.2463764141685791,-2.0722614584928225,-0.8443998813378046
-3.1529162838289713,-3.1960427880119164,1.521509592936015,-1.3290569979062887,1.2568813581405691,1.099813121467938
7.849109243705623,0.26727202940827777,-1.3417996870535145,1.5851638590827895,-2.3003511954131675,-0.5479822109434829
-0.5541405485930273,-0.24658588353301303,0.8878311614458037,-0.3229726352971265,1.1747180473398604,0.7712905890975511
-2.7668755281528368,-0.05336587935650683,0.48129414096719114,-0.3231150443519562,0.7403609427213347,1.1183051074624597
-1.3883004413754667,-1.1910843575384238,-0.6758263582806142,-0.15651461801614996,0.8650380754875017,0.6784118495565904
-0.12587682261676703,-0.21652421247841724,0.2441306123001571,-0.18701789283080306,-1.3981644954097021,-0.5177005058928446
-0.3811944486117087,-0.13553910476877196,0.7198791294208027,-0.15356243885041077,1.2741643687907276,-0.41384270336578205
-1.6150465813038342,-0.8545865562845831,0.8278984342712096,-1.3499504419724375,0.6388221046456946,1.6039268474697177
3.0266991024822336,1.0184163797291037,-0.6799259379914843,0.8526926029623072,-1.611760996114959,-1.416044130189788
-4.786749666404579,-0.6692943042284968,2.1061400400523604,-1.7304916335552236,1.934490406786899,1.9842261774306753
2.649137265326296,0.7400787163124722,0.17742454997799462,0.2987029527535032,-0.563909716586708,-1.6258907807633887
