Gx,Gy,Gz,Ax,Ay,Az
-8.099452000000003,4.338461000000002,-3.237321000000002,-20.023999999999997,-359.282,55.831999999999994
-2.253121654695243,23.474001503047354,0.39587678796407166,0.10966225990279983,-1.5451556567205929,-2.210044465740778
0.8897000616400521,0.17217666134482545,4.276620649539739,-1.0606857692266178,-0.6676715720585982,0.8937985304567272
3.5992069031246676,14.72039199176404,7.576194977424819,-2.564020965509908,-1.0983863765983473,2.6440534598349554
-20.096191189897805,-74.5772550538041,41.57181622283078,-1.8139761837812518,0.8775784238016762,2.5889330877675354
3.263273821673252,-15.514288209646542,-22.1485977778768,-0.3411026563514903,0.11727708994222541,-1.3220198680703965
8.46271224695802,26.081467710592193,-8.367199587337565,-0.5885660720228908,-3.897725083708047,-2.214866099070266
9.356362327101431,-2.4045061483197188,-1.3866288597067358,-7.793548999072876,11.126671614392412,-7.190394120796741
4.897054242281136,32.45427049461487,-5.1379006529198445,-0.830475780247272,58.40851543487294,-47.77013435898521
20.36137455799069,-12.331083044185789,-1.5365795903462347,1.0882544640628686,-8.617131632733932,9.79391091817227
-6.751323550733339,-28.797661818026242,0.5292115397732744,-3.900645046772099,1.571294723937106,0.13923739359509424
-8.177707574501886,-18.75049599992596,-3.2460964296973405,-7.153956253910133,4.227393939774618,-3.1018172671406523
-26.65751323820899,-57.32983554662542,-62.647701251925284,-11.066921026748412,12.501743182446825,3.6081128237861075
17.19239782555448,42.21935802001235,34.77391879564331,5.071093761863469,-5.127912011148626,-0.6579139531783206
4.8075261851644875,-13.34583524811031,-1.4520594568583316,-1.6795029938373753,-4.944128788528252,1.6156268296226286
6.841002416880619,0.9908032018639057,3.6559245270678473,4.238287942148202,-8.56909521898199,8.556105565443874
21.184673485590167,5.582185152692029,-4.95489185585144,-3.297910695787039,-11.24245534887654,21.576999592622244
-6.98890255851433,-10.16488450034121,5.2411795299251,-2.145852790920521,5.702402505212085,-6.282502038752581
5.759281384250957,-5.534235168534125,-2.8905986888565294,1.71035711859117,-7.622629143712773,-1.7126147305112678
11.376930532401392,40.455303651801266,-2.660182439201132,17.72072460400266,-0.7348535589627655,5.962245005648606
16.950792001446345,42.35797619612464,-3.730362211657594,35.64944674302686,-2.4400157179383957,4.788195844988182
0.8531487107090499,-37.537906785035034,-11.120730589887929,-17.872321876390313,-2.0671467204517837,-1.7130140467187522
9.86663016856625,-8.367082076967828,-6.874406056943032,-12.825100962180237,-3.642771170585384,-1.990166359916002
10.427902770712947,-2.2070613936672467,-15.505599544973288,2.238232098298538,-10.852984020791645,-6.9684202355068985
18.559694086505154,12.754678896780673,-5.596895229248393,2.999320667835737,-20.42598765551004,-8.198142673519346
-15.895651544910217,-2.8620760008458275,2.992189139022751,-4.2058586574393795,10.075573911532846,-0.4746324215621165
-3.979764809315062,4.593744803337163,2.0767762171822524,-2.451540151179457,2.518143874120356,-0.5645185805370554
-2.443753454802619,-5.138645232492496,7.772007916542084,-2.1215925455309206,0.6686859942446063,0.38535615190085126
-3.838203702968721,-4.471951173124217,6.940047799393527,2.180782705836071,-1.0006877535163738,-4.970755029021253
-7.092023540255876,5.973147177533099,3.5138644793568603,4.835941303396869,-0.37058862087818767,1.0185915573496325
3.4217895027806833,5.612333708126849,3.5789544156802737,2.232524098576057,-8.427900338539658,-0.9544172704451463
-6.41438249042903,10.27286724826169,2.3825043867585243,0.3447380430243481,2.1168338294915507,-1.8402205724595075
6.2910304866033115,3.344601084688513,5.4075272523446385,10.154985188127092,-7.505489804595051,-6.27572798693507
-14.586348514279704,-3.008993854667349,0.14688245684471612,-2.4670086565998166,10.057118197385368,4.688679482519834
7.681375206245479,6.664246408634295,-2.8904442565097765,7.994048453010457,-8.86388326399975,4.364044240513583
-2.4049931881444326,5.0955745621019695,-3.122621231236341,8.49898375210554,-5.738540234320401,0.7389492761179387
-10.829403134012107,-4.532684010262554,-2.9135016128330387,-0.596521070848816,3.5144044880085437,1.315580263092402
9.629961270728018,1.8863268576273002,-0.9101078964788134,-6.806316136544153,3.790075062555876,-1.6119542654858348
-2.490944998724967,-1.3300582009840884,-0.9876418497495421,2.736425993376881,6.497871270716658,4.5750944426851845
-6.9229362141273345,1.6099286488465836,4.057454633213652,2.114710070071845,3.755614952356672,2.4956869891853177
-2.0023021759507897,-0.6964671957727694,-4.159005802584128,-2.6298150132604334,7.0601929287360505,-1.7415354120771362
16.195794367668746,-4.273874638187738,-7.848747756786116,-3.6970519067528786,-3.9361987728156818,0.7078646012990211
1.6544122724872032,-0.4540647692220666,3.9814716773757475,-6.945132849067102,3.44361616865538,-3.7142998179735476
-3.0480671638381605,-1.7420760529336947,2.7991998697697085,-1.8315305875068808,2.9371339519070445,-0.17641352900519158
0.43754027566844766,2.8770992590430144,-1.1025520300255787,0.8353716507679707,-1.0593425217436934,-0.41958769009997077
4.31436768514251,-0.13604791998387333,-5.5099121574826535,-1.4301773303978536,-1.916830127720048,-3.7851094072492075
9.837470903304776,-1.7736709167893723,-2.456930226034684,1.1205764700904564,-6.29836614823336,-2.0952711801325954
0.8027672003245439,-4.30367283731323,-1.2977240012960436,0.37756134239511896,-3.1653388534435516,1.0503919828508737
-3.951860561951947,3.081576922563274,1.8195374488793348,0.8219741599489919,-2.077184142189019,2.3249191253265646
-7.68769205914265,0.9464180134538941,-0.2538229567742749,2.984406175705698,3.701810255560246,-3.3503627377699137
-1.5346373218101204,-0.361342617734419,-0.17425468656906418,-1.3668841084476695,2.079775741351744,1.2877666841993995
-1.4471190159870282,1.8594873155035905,-1.4103724101023507,-1.4672537437044264,-0.24919823469562802,-2.454765763813838
2.2560977962700077,-2.0853528692298093,-0.0012980191965728527,-0.6793027456185076,-2.5332537421646446,2.6005250356524603
-8.076563634804154,-1.5159810484120213,2.287423060427345,1.4491024596876723,2.375600759902713,2.18439712413649
3.825007181047072,2.7912284685782724,-1.9782205476274966,1.039610208878697,3.1733251960750244,-4.576063259063669
-1.1018180358990999,1.4785429538255617,-1.4893201221009327,1.580407427117302,-0.4610732651044054,0.8902588309790518
3.245953009763035,-0.38679995429953495,2.482090194134722,-1.2544095944963596,-0.708659264588483,1.3726641035584481
-3.6137733291519156,-1.3441524874262922,2.5850203660058875,-2.32235859512168,-0.1807398582439922,2.7225273838065016
8.28034541262188,-2.4451791631674618,-1.2583158906643308,2.402549541793956,-3.125070619799256,-1.7599644426640215
0.8264365082654337,-0.02626109510757746,0.3763581283025881,-0.5534009381478704,-2.1539553409818044,2.473903947929595
-0.2982996117709079,-0.23230450636233596,-0.7096572883134211,-0.4277932982104201,0.7934830011159075,-1.2693445526864067
-0.16340946902233555,2.2005956419380377,-0.5604898593690542,-0.2654274475028338,-2.721045351622591,0.9333884092225511
-13.118815710662867,1.4350188391826395,0.5497047896952598,0.24396716082714048,2.549181000779553,2.4907875632678587
1.2630039221028908,-1.684909667456349,2.116606138311291,-1.7832507457225113,-0.01600025001439931,-1.256333803340185
-1.0032461925390097,-0.9621678124467717,-1.8662642536788918,0.6033179756000349,-0.8184888144339042,-0.019973851919937752
5.847027086962791,0.14916605263529437,-0.3504395472867189,0.6105269920902865,-2.4371582051331147,-1.451512024041937
1.5105578591733628,-0.2902381062982019,-1.189248361738376,1.6371861981021478,-0.6859941189277681,-0.610166060506995
1.7038615260578354,-2.043340152701188,0.12871525469594425,0.8788643651159902,-0.32940606340140366,-1.265031109824063
0.4553545535601988,3.3528118743183524,0.7504542724749396,-0.6714327643416258,-0.7589994075369391,0.8024895094544322
2.3269918480736917,0.3076127081793929,-0.2473580024888622,-0.9474432498528009,0.11536735495303008,0.11103732417624024
-0.5355349324495613,2.3510755031472304,0.5058397655993488,-0.6654517819369843,-3.1416347837310843,1.9041487900001937
0.9944949992061858,-1.4209720098001772,-1.895488261887914,0.9313152819634697,0.20952394304098354,0.7705186011273965
7.623561101963924,0.8401622441111973,-1.7000781573963173,0.5258926377618134,-0.4198391506147683,-2.0293867857253174
-5.533775954696183,-0.4299886964095492,-0.013794581635705627,0.3497293112187736,2.1386454186031765,1.681867596636641
1.601477616717349,2.5723619349277906,-1.0155078179868569,-1.1414515629655888,-1.438614031828815,1.8960608490211464
-2.657304770908079,0.6558427169847946,-1.4831196651164684,0.19882126778825268,0.3319941187307981,-0.21221470591249647
0.40837055260655775,-4.08151484775309,0.3110697208878475,-0.09195853266519072,1.2151921999039987,-1.3110108975123986
-3.2771737872488544,-1.0828305396251285,0.4975456458890385,0.46979251174206904,1.9937035713149784,-0.3531611129041967
6.457529771794282,-1.3453012887029852,0.23208346221803494,0.24887239988886606,-1.554384796991638,-0.32944921815129913
-3.0699979273886275,0.9316623145746565,-0.7410120939456872,0.5845731885584019,-1.1607020818080116,-1.5690067363623736
-5.565255551365121,-0.21120964152935634,-0.047263288830465155,-0.08541962316542467,3.066615581640502,-0.4758044439617058
0.32381275499493944,-0.567731380545645,1.2646310765012339,0.6931593517377459,-0.7990285175387792,-1.2607966731613676
-0.45544699909019903,0.9831593025718438,0.9890232945155132,-0.9650209671487118,0.41918499897999,-0.27616858891048734
3.2874806177272577,-0.07058710778140284,-0.9664576500172487,0.9579835772276964,-2.3957816460376433,1.1372311688459456
-1.5814741018186695,-0.465762044860045,-1.130727040801728,0.6542857083010415,-0.5049755169370405,0.023004633306469402
2.6602771603987776,1.6637096853598123,-0.3621407375148196,-0.3342020149137306,-1.5395742290270045,-0.11564198976012352
0.6387626298912117,-0.23352871190903535,-0.7362735181998432,0.1513055610737061,1.3152562650920425,-0.424333605927977
2.465248076032722,0.6827461542345845,1.6341885399082692,-1.1394283651690593,-1.6161425561458909,1.22890440580578
0.3719965420718032,0.4232256559103401,-0.38513046787635047,-0.8598348778742597,-2.103227807252663,0.7703744522089204
2.0124750047464692,-0.29856818359502973,-1.1516739543071945,-0.29952708862906535,-0.3967086906470666,0.5709196592214567
