Gx,Gy,Gz,Ax,Ay,Az
-6.534147000000001,-4.908304999999997,-1.651527000000001,-5.879999999999998,-518.8679999999999,-35.025999999999996
-1.6877812569170794,0.6185328961591665,-4.05369297468847,1.622676761395246,0.9679302152486031,-1.2000172485139873
4.491167399651782,-0.8019669914627419,-2.614269836483776,1.8558889801466725,0.9216980323252242,-0.6408907681621714
3.121744332770379,-14.427329143908961,-7.686856801172577,1.3818494359028244,1.0595731272831383,-2.2297284149676435
-3.5734029955245825,-1.119727083302271,-3.419874934183398,3.7520024074589124,1.2104147753496959,-0.5757461429061433
15.909576439893772,-1.9568413061797525,-48.61452424265122,8.479606366439539,1.5022642202027985,1.5458339261595955
-1.7436758821725464,-5.361135590163505,-1.6181493722472575,2.1813335147220934,0.9552493842993901,1.7073075781774538
1.5554700829698418,5.499938636872816,0.21935159405685734,-1.5954351971118377,1.8754682611057754,1.43322867061924
2.1455778574528854,0.40969562607137444,-6.300360268732904,-1.6672633272495057,6.185438811178596,-0.22124967838851006
0.18593007234640702,16.87939653364278,-2.103312506325435,3.206231622938796,13.063843872961336,-2.589232608413493
54.592567435362405,29.21919587023583,-7.011380109336177,3.159585910901618,77.07961563426738,-0.08067676711930716
-14.32714382415006,-1.3721649165697647,2.36844160989967,3.18329990579308,-17.487170112619776,-2.5175433205194704
1.5565002509757586,8.57567319051253,-1.0381674235780682,2.868424657794229,-7.997262120528545,1.007890646300179
-0.6085693045045983,-1.6101949832622204,-4.420982185936647,3.8833328126579767,-2.8420755310746175,1.4418433659392524
-0.7060175157797399,20.05395756973508,-4.76062677435158,4.920087303109351,-3.486018717160753,0.3092765172453382
6.722683896445467,23.795089717686253,-33.92111887379569,22.81094179744581,-5.9016186482938675,-3.063304091624519
1.1819225457388376,-1.5936803626031597,8.442136980149487,-8.870868195193255,-2.728331971562935,1.2903251447726432
3.0278593491799155,-6.964068211045871,7.238281684435063,-4.06933103394499,-0.6989285779488101,0.8942574134988865
6.138427452846754,-0.29928935630237385,3.355513528431584,0.28141575728145873,-2.221875425622201,3.84562133197264
-1.1876475700455391,-5.943461262504316,7.249470294179887,-0.522087934795187,-3.7481898778490126,6.3228820079303665
0.22889291370729659,-20.763348119310194,0.9140662319930724,-3.308389161750781,-18.93059912884061,2.3422094743229565
0.753684109742979,2.5197275818220706,0.9207771572490493,1.888632422922655,6.138156805575607,1.7293730992753948
-3.543205340983209,4.3387499524458235,1.5582485877630288,1.1429082722934878,2.9564406361542903,-1.171762866102367
-2.592777199166401,5.293423635774603,3.511352947422651,-2.5843304510381806,2.22092071411111,-0.2946739827296017
-6.335868189435564,0.6877240589994065,-1.1181240795017229,-2.747882391038357,-0.7246268791576937,0.1506623079089825
-11.097505878887862,17.79056396105041,4.489041206508451,3.31239666997139,2.0636105674775025,1.2772553092949854
6.396016686068467,4.856216848979942,-1.8396939473230447,-2.1086063390240612,-1.0432034664595764,-3.0284367504967413
1.7025187131179584,-7.509186757172141,-1.9016004337186099,-11.675347751149413,0.9075105104936487,-2.083467660548769
1.9688076048711256,0.9399223362814181,-0.9858560263378763,-0.462812192575439,0.7669165314787787,-2.9591633758593994
-0.5609567150877398,6.475531608326153,-2.10630021281358,2.7891828352096364,1.4805733567444284,-3.341235676956546
-3.296795430038799,15.741550170404189,1.8665260359799172,-1.4001467577290256,14.725831474165203,-1.5970162421415575
-7.933912015078401,-7.062727599869003,-5.200914575424482,-0.5300850717143056,-10.069872577260663,-2.26635131400578
-0.9470012295778425,-6.879083941990957,-1.6782330608721543,-2.818741820946013,-3.41981808540362,2.217289841086551
2.9711087865159813,-3.6344526505490493,-0.34704885188138057,3.3547198301067196,-1.555788230114062,0.2501348940746525
-0.10640437498554584,-2.6943353818976217,0.45053252037046887,-0.4271714220432721,0.14929189574825924,0.27918568559434065
-1.5646135124583762,-2.02724383289419,-2.2806674267219487,4.330813171999181,-3.836385684666359,-0.9306161408182776
-6.485855764493726,-6.176132011237411,9.251195999420425,-7.517155840402979,-2.5657997545749254,0.5810754630405982
4.873955763360769,-4.741901809378669,4.37776845211288,0.039418964628811004,-3.2132019107552643,2.3787641828684545
0.7063259294615856,-4.666384362775197,-0.1673144289494144,-0.3524021915973723,-3.9248140648666485,3.262146842108607
5.113144917302699,-5.775451504713579,3.2933702492862533,-4.012867182612159,-4.690091733250739,3.9063308695416716
4.130211256882873,-3.263294351680819,-0.9966426965721333,3.4834657111509366,-8.898171373437796,1.6539000337512701
-5.3623478633020945,3.578817095774905,1.3422365783343833,-2.7272243590447744,19.438206565679952,-0.8845453124335769
-3.953271116973597,1.2454691483701015,-0.7000806521385798,1.0859166323452516,7.081443929044492,-1.5736330341184654
-2.2047844482923646,1.5370307646055397,-0.7025777361153831,0.5373133643858201,0.05529075568452643,0.8810306972428446
-2.1697863370591834,1.405883838859992,0.39865138342036344,0.2775219057432977,1.9601814615159168,-0.5506551748288298
0.7825228755705982,-2.5381669891846985,2.7801142504170446,0.37958794478488944,1.5167479317780448,0.500357430900318
-0.6220384217587271,4.1048797549585645,-8.706790543479492,4.001950420617293,0.583105603711877,-0.18789905110180333
-3.2542877882636034,1.643239081383759,1.4625595214574796,0.06777804823324574,1.7999688483103142,-0.7931169653879676
-1.1771318077066923,-0.9011091113421227,1.089385205363967,-1.5093994036516583,3.9741266358300384,-1.3048079836919086
-3.1152966362977956,0.7874595151337642,-1.473828413675684,-0.6156768595523449,1.410087717695077,-0.9927445753594621
0.12529518550907615,-1.5196935417940247,0.5777814809802433,-1.9280840721299324,-1.501722396145614,0.6515883426460846
11.266301510043808,-5.392566444221876,-1.3306715154134638,-0.5977683821726418,-16.565455698536862,2.7985603968291537
2.2042814279950003,-2.66049803867801,-0.6260854927633601,-1.2401409202438112,-6.079122127338579,1.4133346104432791
0.09086311800800115,-0.04748414038586679,0.6906986101994955,0.3590903623041966,-0.1981221490084587,-0.5588376693736335
-0.016632688007947843,1.12535843786271,0.7022616606730968,-0.7890134131110884,-1.676128988253484,0.01570475356354961
1.1912972036783198,-0.577650109723682,1.693625220315353,-2.2325724380082237,-0.6907218765639876,0.13662911822459156
0.1365689245441463,-1.5197736689128825,8.108117203687714,-0.026163741393587778,0.8102173472902328,0.9761779601322851
2.3287262125832275,-0.6861089125166473,-0.4422057499721428,-0.9762286182003599,-1.34753862142975,0.6608900395827185
0.9159976533809353,-1.4444819226101377,-0.0012210076971163053,-0.4619558773719486,-2.53176049531176,1.175173052600842
0.4112514994041649,-1.8860421319850174,-0.5598324462991183,1.128039951811841,1.1828557646072626,1.235822211577896
-4.281498408680191,0.3425325032256994,-0.5954607890843694,-0.37538184618631604,2.1953996552971073,0.3104224107040761
-4.8658105534959475,1.0104569864695074,0.5104557643317803,-0.8250387435837477,7.895020647292547,0.3233323610565048
-3.0910365989759474,-0.6097054195650755,0.1472950773759494,-0.25601486934487316,0.7344024991635127,-3.027675793116667
0.6306185535000798,-1.1942200142844002,-0.6239403449050427,0.39286851461941813,-0.7811027589920143,-0.582109604681347
0.8504164719796354,-1.661447023139465,-1.0899063022659743,-0.6482423353867504,-0.17423172969518158,0.7176152897650325
0.9496519006147769,-0.17207969792757016,-1.4250797558537343,1.4402011352426496,0.1908111200996441,-0.6997747496337319
0.6093983120482551,-0.6094335318154336,-1.5702341101549167,0.6775877371577419,0.14922957110518953,-2.39462378390017
-0.4683706395702713,-0.8302358630249428,-0.649937463035114,-0.23048438903829732,-0.45877021328984535,0.3648604139655434
0.24744026598962976,-3.1442977657160758,0.8722251224194526,-0.7181065394424526,0.20216928907129544,-0.4755302967531731
-0.2003696997967342,-1.210768265275759,0.3887004961821226,0.010065814181010754,-2.0898682440534517,0.14326411987557328
3.7976423214008994,-0.994259073979468,-0.05023683299011217,0.47566482503113816,-0.30542283627524625,-1.0491602511449076
-1.042209859600679,-1.7393610263412622,-2.224071825380344,0.5642082208458792,-5.96684856791349,-0.39550974989084364
1.7808442191097813,0.7999896036260166,-0.47861034052408175,0.20816473747777944,1.602965795084436,2.8561728537294613
-1.6538151962879664,2.1889308494820536,-0.8713869067327638,-0.4248683015176566,0.5197783735928296,2.6989832729457186
-2.0418394113558587,-0.06611269966477751,1.8315977567668873,-0.37851416729257664,-1.324856875111504,0.16303099799449627
-2.0462991811427904,-1.030526602427427,0.9893766137572348,-2.0174418600678528,-0.5386673989553155,-0.007747226204870783
-1.275633506137137,-1.059970280313062,-0.4534564666313819,-1.4311891889834896,0.5888340713956306,3.29656871134034
-1.7817573842443968,-0.5725998930966999,3.1529798416969057,0.18491686463662926,0.09218472310376231,-0.8926035387317202
-0.3130241371533398,0.27091346943269173,0.7435628558953082,0.2000466555130456,0.403508366579828,-0.04637465698486013
-0.8331328085169744,-1.2877833423968827,-0.4754538862873717,-0.4624809694675768,1.4064421675531424,0.8967118818000387
-4.266121583623183,0.7808620613828376,0.4040616532188405,0.5260414975169209,-1.369373891105833,2.759707815914443
2.051245391928625,0.6597697869980514,0.721867107843408,0.016335531986034303,3.642257892862466,1.2774136957693325
-1.7309412713283545,-2.0610396824664994,-0.5401972356201542,0.6675135957932097,-3.1573889307047858,-2.056544213258614
1.8353558465108843,-1.9452014969632327,-0.327578284863813,0.2506728775052965,-1.0286332272002643,-2.819542157743478
1.551304491171034,-2.186134245325416,-0.5592375207781626,-0.8069136466858082,0.8580649319028184,0.6365988938736579
1.5802501181515587,-1.014428238966672,0.27253368836670644,-0.5003269263883509,-0.24639833883314252,-0.5018704669559557
1.1013722409819413,1.0638687352710299,1.346713133008096,0.05755116498525728,-1.1808062204608347,-1.4614124456960205
0.15611043012790515,-2.414163924938638,-4.209673706073574,-0.9511189435460643,0.48155461660636495,1.3338964283174042
-1.2651916077430978,-1.4562669582159957,-0.5206775968894324,-0.35279443967180363,0.9680660834084253,0.25011395919537116
1.0666051225790427,-0.625653423421752,0.3414710736939282,0.19778966656077426,-1.630206918902199,-1.0175322454827853
3.4828850211311524,-1.7999353805606502,-0.7805198614922263,-0.08109505227789021,1.1262103935296808,-1.911916433623952
-5.246960944659262,0.8276737344932654,0.23724388498621252,0.4563329580470834,-3.083584721267427,0.14357887578113182
3.2605668452502705,-0.06118718180791938,0.5456918767364035,-0.6137719451910615,1.272874498554775,3.3552193930730354
-2.692815924670864,-0.8323232959615984,0.67296486233176,-0.09554765690729917,-0.8368104789195213,3.264702466813303
-1.967398256212647,0.2992846583196164,0.5356566318926229,-0.3752317914558356,-0.6759705667136822,-1.270109793300937
-3.2745899378579555,-0.8062703488849703,-1.1717676058828208,1.0548937984214688,0.9233938342770128,0.43468265427883657
0.46484009157149697,-3.0082923318630566,-1.703953326747481,-0.9770175233215194,0.20968955351024784,0.5870643348778308
0.6237108749399984,2.6286609941732304,2.8478272722263758,0.8322723550698684,-1.9271309301396693,-0.5987820682744688
3.6676243924197616,-0.7792566212847398,0.5372109618608817,-0.36033821965490276,-2.24015210425666,0.7501533055061946
-1.3604575093307343,-0.794776749203245,-0.9413686130524763,-0.4150508802921006,0.16082336419993254,2.6501798476510046
-3.1790812006281546,0.4660149736432515,0.5045481175711649,-0.3634960807430514,-1.1986590296833517,1.7352283622862341
5.905885475279016,-1.563893119084507,-0.0262108012055901,0.09266881721180335,2.262148882231478,-1.3911325019488643
-4.225050745931076,-0.30557796187770303,0.21996767949875184,0.4491137267040261,-1.0694697712201067,-2.860372247719339
4.332422066910251,-1.04738380455677,0.316592876992278,-0.13312829234134985,1.0740895739884757,-2.2142447738413313
2.7129729621458716,-0.5433245426509787,-0.1896593323783872,-0.19793755671253122,-0.6697037175341791,2.8794611249136857
2.2965052067492446,-1.1825405697829174,1.140303951058959,-1.0108882769648517,-2.255104776708229,-0.16151646808734865
-3.4565004402946213,0.8005209063680242,-0.48701580022073754,1.2927349075908812,1.0723330294718982,-0.6087420295028751
-0.6646532796831501,-3.234998934607356,-1.9704734861881192,-1.217000917295761,1.345776598899072,0.9252942488412281
-5.304722148496108,-0.2131508307459004,-0.6034917585502988,0.7202082144656976,2.3226774912691184,-1.173652667359765
1.4319735142929366,-0.17943210262373466,1.102431272351215,0.5556329524413777,0.3101236795774919,-1.846203715968224
1.3853663083880154,-1.22625099292345,0.01209350918202013,-0.33979243173981494,0.5602997904723342,-0.7632960022577837
-5.141161016519274,-0.3710680429240656,0.20121176535953164,-0.4147143704660304,-3.849587773101375,2.7758555029345953
3.1748826158910535,-0.8418028031392866,0.32552526389233793,-0.6405367673722621,0.27811895070036297,2.2730427255667562
-3.523934976521636,-0.4574625059342987,1.2239630410533024,-0.4431474007948828,-1.8681454409053493,1.138974891977456
-2.6411600864310047,-0.1392941876446424,-0.16895157152144805,0.0810937102224834,0.5539388982207022,-2.9182254536127026
-0.8144932803087908,-1.332071472254145,-0.5252416471872327,0.2036730874859217,1.58376434071979,1.233173037863593
5.823479949822561,-0.8330381506889712,0.05845360342349515,-0.7672178120011153,-2.6098552604015555,1.6238061913622848
1.3027437023607398,1.4414384619994705,1.8979470807999124,1.1158140460648636,-1.3839074787696262,0.2985465101693642
4.410240301298219,-0.6285414253664705,0.021381971132772154,-0.4951372418572838,-2.855725815994292,2.3553689357182956
-1.9673487407108818,-1.8380003250054713,-0.6523803263112943,-1.1892678134340653,-0.34093830318442064,1.6391015686430155
-0.19982028526453274,-0.6474760618547835,-0.5966655652347624,0.6095680288696816,-0.3874192170599781,0.7387003985570644
1.9506278341731507,-0.45242983624926003,-0.3540278217866572,0.13016902733143781,4.157390487394356,-3.2344088420181523
-1.5296356267407054,-1.382629684267397,-0.4572559378620491,0.5219497684278559,-1.8082515757340243,-0.3885116239975578
1.6214134395376565,-0.6203419243991551,-0.41115092642066775,-0.12352349444727155,1.5773388376421105,-0.001427053350406049
1.8303804814124198,-0.4152529686178972,0.15001144196222185,-0.3307284072806723,-0.8548330250827954,2.89133694737531
-1.4252236406539904,-0.48843122107248693,0.569472962515312,-0.031075446399308676,-0.9502928943831496,-1.300312150852485
-5.152822252705598,-0.9141022167637662,0.09484185652176264,-0.4171063638055774,2.004992821294417,-0.892499229634257
-0.6195155133821194,-2.583212227576953,-0.9414691082183049,-0.6234224308570824,0.8351191160195064,-0.08214513765690823
-2.0478287649087,-0.20866988344564744,0.20460223910566655,0.26403814120325353,1.3264743868055406,-0.9925673096884085
2.332621735418526,0.17921198549815953,1.2301784934037672,0.6310857469812557,-1.0980358746746313,-0.4191054272759884
0.11981123670191529,0.0898455735668578,0.48277999746069844,-0.6358794683958497,-1.1295937424941624,1.2444804078649345
