Gx,Gy,Gz,Ax,Ay,Az
-17.744389,18.213119999999996,-6.356778000000002,0.12200000000000055,-616.58,71.392
-7.2658561391140575,23.822153242880333,-2.6562194607884977,1.752399310422307,0.8375284738412712,-1.217171871443672
8.37618054621781,33.062596798954665,-3.2658229609116676,-1.1138612141669604,0.43778184809770226,-4.890258122522004
-4.893179777796256,22.481051464888367,-0.9058469908151512,2.6370446590981707,0.7678084137917757,-1.2401848348101663
9.121739326604384,-8.550395475521237,3.714510833006706,1.2704109106282422,3.1580089185690303,2.3675141827428465
5.636366005375392,33.79699674062716,9.196546006487562,-0.7208351799561241,1.0044211820218656,-2.0465198055910183
12.398870856156073,20.867892182458846,14.76512889239513,-8.029611301586277,1.1997856049888855,-4.063830637630252
21.837317129542477,15.233157802572546,20.82731694017688,1.4953795184341305,3.4096958146106475,1.3049080788764273
9.854434316627431,-11.548532743165369,7.690088978161054,-0.8756168153304541,4.596035571050848,-1.6719885469092293
21.702083191030326,0.20366059761153688,0.8032291441515635,0.3764861154015812,-0.5042204299278621,-3.473732028331175
4.269087483682688,14.441693405588124,15.169114058128699,0.2123191241088251,3.163882872238335,3.4009545379210353
28.722892067328292,18.107043967950993,4.8438908803611005,2.9595706802584125,20.171602127575998,2.1621298414994667
-19.350557360264773,-4.89874807694262,-0.3991094869026597,-5.419242742450705,-55.463373418809766,44.188478639485595
23.30929579756304,5.828242173379408,3.2066238061243366,0.7752691775664795,26.165409073111555,-9.373981976235788
11.067578358030039,-5.737179564303657,7.640917604870762,2.3053859256955866,16.753345361627673,-14.031476719359144
-15.221404233255068,3.6705097373882887,1.1795724195579473,2.616226091152646,0.5703364944269094,-8.5210246622802
-16.209370751865215,4.215678374101191,7.732234846932476,0.6857141294919371,1.6850242507356812,-2.509806692690022
-22.45469437688051,13.199563312903978,16.12024238744435,3.175952357933609,0.7967518231162563,-2.3951966982597046
-16.162763171977435,-35.83512655400687,-37.052718374441554,-6.3066710856435035,5.431196501309018,-2.9826023413782723
-13.076236970523714,4.587072898630461,12.55276466114249,-0.5185014284077847,-0.10352557548367747,0.9859117141031655
-6.141095113806411,15.107743312050523,4.275387791151937,-3.7664602310285686,-5.585269104850707,-2.704453082585723
3.9292842237381524,-29.798922946379005,-6.554899413613514,-2.4183354442284037,-0.5916436663491527,-2.800663351229387
-0.8893262459740452,-9.36336977904512,-7.570304554130178,-0.5869202514692986,2.0265084388921872,-1.9107844160915213
0.013012048226070494,12.78052549350129,-9.491158543971956,1.8815569107919938,12.063162761500475,-6.9897298454037395
9.619274036540503,-19.55812365037278,-2.0518574163248147,-2.024640020708956,-14.033702190396706,13.13349293796118
1.6695327181806017,9.879092330738608,-12.814623190811725,3.3821344278245276,-6.222338499767714,-8.93302380194895
3.790951517962486,0.885040709077991,-2.926673259982076,2.9999939619509037,-7.7517984054725595,-1.5797110379032413
16.18628116170207,6.8488864252775175,2.992364317083822,0.7080405783023493,-3.086473270271648,11.022243746191078
5.209328923243507,1.4305352565493399,-1.6328120318227006,3.771231959697897,-2.949970284893964,11.396009190971638
4.455683525288654,14.040040128098024,1.2317740200908254,8.59164656259755,-6.728499561594683,2.790577416747382
-2.3672454585869245,-24.04976836982883,-7.217481178764204,-2.423355423167916,2.053264766239359,0.4941873621686905
6.557627474180147,1.4342831241700664,1.0772634586319751,1.675565047892165,-6.81566592270248,4.146903616010026
-0.5530910701366966,2.042618911675959,-3.095844666830618,-5.032944293908465,-3.5180474628976075,-0.44743279579724193
-8.87608238671994,-3.8639149191083417,-8.160583141053387,1.4079819875781514,1.9566510568409274,-1.5949504955214986
-6.61756900839456,0.3317300894285664,-7.7275503220023865,2.6979095757416016,1.5169998303843193,-4.9568836066643245
9.187795895079883,12.747038828535121,0.9544666229923645,6.854305631995288,-9.812992842038442,-12.069337783797234
-1.3982378096731396,4.97771115524505,2.6024733132128737,2.7727676366782457,9.013260625365886,6.588770601329181
1.326274632100822,2.9477104749734404,-5.611962257429378,-0.3749996105508493,-7.318363684207777,-7.243802630700305
-3.5079370547668747,-3.4913697764806813,-4.667705723335674,0.9201782241506684,-3.5923439841688616,-0.9029932471171784
-2.003294831943986,3.7138908581988237,3.4736818586717666,-2.2430317690020636,10.281160966818268,4.543779245071164
2.958361946021528,3.66403675030677,4.428474405367694,-2.425683789572183,1.6826575738735976,0.7028085404780491
0.6965863641962584,7.613378740241163,3.0300652911265566,6.334005804412127,-6.3643220483972405,-2.5523041364757857
0.38736131467315094,1.8641316307635047,-2.0158183202114026,2.8911562198689444,-3.170320838222035,-1.599674719877455
-0.05214272032934364,-1.1400107735944267,4.724449929339473,5.492259359198896,-4.793306756698649,2.7012804282404725
0.4609009113694258,2.846653767590719,-3.4956276215888353,0.8790938566112964,1.6547835346147268,3.7810015742414933
-1.9956547964466003,-9.80442596039985,-3.087575225808707,-2.2902911614240997,-2.6739611701458315,5.26743385176607
-2.180460316990341,2.0209733137962003,-2.610345082155843,4.111908776544305,-2.08391560959991,4.138579558618669
4.515789690495728,-5.171935571952215,5.1712886237698354,0.41694504008199496,-7.954775031107949,-5.165092236687669
0.3089076352683744,8.782764502271732,2.0815492257159747,2.9428050206641165,6.477048696895215,8.210988239358255
-4.032073737312607,-8.257828149901066,-3.0111900253234283,-6.216858475562809,-0.13756106831062653,-4.03641688662582
5.989699640041038,-8.11564154952736,-0.9168405645997648,-4.561475945610129,-6.002836190290111,-0.5688200698224484
0.011642842766148576,-2.2074110328133703,1.0503194917353487,-6.112834800529334,0.31130592491786635,-2.83353614834056
-1.2047660724646825,3.4593245422069927,-2.241894283631917,-7.545643286859466,1.305830775400385,-4.964194185603025
2.4552406599672048,14.465991271565901,1.3461912130829754,11.871027311086467,-4.2674168788330995,-0.46274854198662063
-3.3923457777621593,-8.973762211849815,-7.244963702785117,-6.830727115599169,4.344414790546744,-2.2344605027703452
-0.8705759610338537,1.0980755683339092,2.7017498296301854,8.357821766069522,-1.53895616985023,-0.38139173248788133
-3.4268738221652204,8.254252488274961,-4.464336198866215,6.830318086048016,5.944022157518468,0.07375543139006102
-5.625106548409971,-5.777109591031438,-2.1148175334195365,1.4359607378237453,1.3553698105656364,4.564430278621495
1.2186889187069243,1.3186788864419297,-0.11500638738690314,7.797808351270108,-3.321441629293393,5.094351845582911
9.841089550659323,4.0903769864460005,3.638885488300848,5.257023731269893,-11.71297980553597,-1.2900269558519324
-3.5972293065995453,7.016165773141049,-2.170075024134158,3.4698924434048863,5.096220684780618,6.202404608378413
-2.560605152958918,-3.4227322650610077,-3.0971677379941305,-5.751651968738212,-1.736665923577487,-2.8090114456142214
-1.1282495750464272,-9.426458400519572,-2.1088722190065043,-3.7632185734107098,-4.254329363644455,1.9779108775581538
-4.002094090311049,-3.427440985097813,1.7976714096155146,-2.9143517467484905,1.4071141798191693,-1.3518947629244569
1.075853741914425,-3.7941139727864894,-0.9947955760264391,-8.47921463265785,0.748170209464345,-3.2324924970338915
9.508562552937484,4.924954886467655,3.2169689260750185,9.219339338994342,-6.294212208830479,2.0840002415481873
-2.655082558734571,-7.001188355206758,-0.0150966278622236,-6.935235558080986,0.37590961258250183,-0.9672280427690615
4.3708406994361,1.5220476510523921,5.895786248003102,6.117792741842981,-3.013544662875809,0.41872554688858343
-3.184832738253963,3.8405425502929873,1.1549888330365676,6.82333185770187,7.708713298129651,-3.7464343367997843
-8.611602667922499,-2.9364135065586274,1.2247763072648434,3.4661569617925005,5.45147405776097,-1.2332649179162247
-2.4747988792074866,3.7125044183246225,-1.8957484326422063,7.415121922236821,2.409413863256876,2.21652855085761
13.325234330236789,1.968044417605325,1.586200533174539,2.2387395117861075,-11.697482221572795,1.6875502925299792
-7.299594044189479,0.3933565629657501,-2.3600281044518323,2.3312598043450925,6.074798847240448,0.15237270914603623
1.243324671144771,-4.429134494460424,0.5815384483349153,1.4797601334057922,-1.8371006567410908,-2.638804886477645
1.9430604455227305,-2.276359443115504,0.689599798327759,3.0026413901773354,-5.587226741397493,1.907159878682422
0.31326428705930986,-3.756491619081938,0.838744568168227,1.732832790993524,-1.9547504882548052,1.7562766235629899
3.8212770696935867,1.776290163074978,-2.0745036439715854,-4.7531226391653085,-5.254557266944566,2.134314734163146
-0.42334509122594444,3.6533190153264874,-0.989845242942216,5.505006458619214,-5.871860747558549,4.459442040785891
-5.586502993450549,0.8854283975513957,-0.6338848744247905,-4.011238103868395,-0.2786972154065445,-0.4644572874607393
-0.11077586183442589,0.38584015938042276,-0.30646183510447084,1.1956398010187617,-0.16738130485802616,0.5089724100259169
4.7207232627854205,2.321569427734524,-0.4680229135237095,0.9317013173126033,1.4342301205951242,-2.0530173486000334
-3.20087328202085,-2.6196343684129064,1.0147640583913478,-1.7765705848630955,1.7856201672252439,0.35708641053401025
-4.290372993277902,-0.26789801864816953,-4.040566532652636,0.2882987661452905,2.305356671480533,1.0027008166121618
0.684724398828902,1.2347793803350757,0.7946240774451654,-1.807609904348366,-7.62620388924573,2.467364039913261
-7.95734888104986,1.9648079970677996,-1.8413164872996142,1.0422699072203563,4.606902445060014,-0.9524215618112586
0.46279666000126474,-1.8855082045294538,2.768034790299342,2.636239633906441,1.4876490892568999,-1.3936200034448758
-1.7752433248763941,0.38869761670287445,1.5212850660928914,4.175999378707871,-3.7117388638215676,0.9819018169292544
-2.8168802907791513,-2.0376715886229744,0.2943081452466614,2.6211439328719197,1.737721787966428,-1.0417412745697125
-0.39400966700793116,1.731210203755919,-2.627211169123833,-3.189575814425921,-3.1558987559940306,0.49023853404927514
-5.188421000483801,-2.087656797468175,1.8164021550809872,0.8372351642044018,0.22170684536746554,-0.5944146814726599
-0.529515939925536,0.9011460088349769,1.502888406476683,-1.2688294003934955,0.6824236148569792,-0.9152693882851014
1.411126863898345,-1.1781770949417303,2.1362915231435795,1.603437310826175,1.2994145914867206,0.17555805632879745
6.374290694350355,0.14407591777312168,1.8790315562921844,0.7286796101546742,-1.9622126952494447,0.5596012562221456
-1.5566610728026122,-0.22175188376934252,2.0273892955300474,-0.6116391780603849,0.3854500614813666,-0.07508019290912105
0.8337523531053274,-0.941877111815054,-0.4825007331673692,0.15720097492410323,1.7786092638234259,-0.7452315681836553
-0.2833016304985111,0.642105354509239,2.01515676682302,-0.4149827001145511,-1.4996526700969273,-0.09168263296025664
-0.768811109021662,0.698892904901104,-2.0193283929132155,3.06719646846517,2.5595947403070225,0.45801451372962904
7.993820722843923,-1.8210638886320303,-0.5378252858719423,2.931648098228826,1.6613711242698563,1.0594257657309698
1.0283281721073552,-0.751313275044222,-1.8207178267969475,2.515271656839144,-1.8226209511843865,1.0026334166297597
1.248361670578296,-0.8979906062150773,-0.9280820441517589,1.1262310312360644,-1.3252410860315302,-0.2365238841630749
-3.9707207215794185,2.492037580552529,-2.826908205036223,-1.5019724343032994,-1.9274705958477116,1.5013309316811598
-4.590649976266311,-0.8572010409238486,1.4564170560866996,-0.853354146617501,0.5233072064094323,-0.19252833502841943
5.664523548435625,-0.9473146584210073,-1.8953820885688055,0.6833320525448288,-1.6992555099469522,2.015190984647504
3.595113011266682,-1.4047367439557024,-0.48043551215411884,1.1505453259344574,-3.0170164161438926,0.7972178598109728
-0.3703993355318631,0.9152412908274002,-1.075594403006143,-0.2946321853507227,-4.11273444047583,1.0497257551085921
-4.82027898452919,-0.6203406094999564,-0.7823159103131854,-0.6889971587604949,-0.8629726775970823,-0.3932460436792606
0.19712157604222835,-0.9208834609973391,-0.4898654388957644,0.5863125110766466,0.1579570481840464,0.07254596983773245
-3.016065407274688,0.046598337099799214,1.549241834048396,0.1170490554911407,-0.21648664842324453,-0.6319899773716465
-0.1646399397927853,0.9772762780440865,-2.5842531818271386,2.1833849372784124,-0.6159279440113584,0.8802025392630722
2.7020493359364104,1.307282066564572,-1.1572587373741694,0.4984453081842406,-1.7962069596507337,1.8812409187251111
-5.148349345130809,2.153874004810901,-0.8113468031233323,-0.37911237987273616,0.5843926809070689,-0.2556111611325914
-2.337805350342028,-1.169413969994637,2.031430730670209,-0.11407181275264422,-0.35463799430541765,-0.13549243946376768
-2.7816828055647154,0.16636899954086581,-0.7996368542838844,-0.16983226288721404,0.9761218256805743,-0.2669799870762413
0.17564775654797082,-0.06109319234600363,1.5091756624329842,-0.3909683285325859,0.9206593234615823,-1.3080977724051124
4.387232857029202,0.3033632389048915,-1.1500002040188755,0.4609321940730269,-1.8738654482345063,1.8361139711426488
0.2622954287910927,-0.6998419309268327,0.75515125974899,0.8163921014268374,-4.145022853745566,1.7274264265397716
-4.9310928469658695,1.9845933324049432,0.975544529664505,0.25481576869086753,-1.2008632487458417,-0.3699312267877725
-2.0810291530278144,-1.2435797364266568,1.3271391960782972,0.398096969538456,3.429051195468339,-1.2079603608512024
3.724078383419098,-1.1599366679940017,1.7328707578416278,1.1254416031111436,1.8337041838106312,-0.09729142571048482
-0.1557499834760976,-0.5336310038544416,1.8043343454416527,0.310320879761774,0.8114873259699631,-1.1784282372748616
1.4021629751771085,-0.44442954485927133,-1.5150936599567217,0.864061457201178,-0.41113143109213673,-0.12336326505328096
-0.21468606683825664,0.983613393620949,-1.0110653920401445,0.06338635457042005,-0.949925242695866,1.094298870297504
-2.520129606182859,0.9687540623915236,-0.6636009809208138,-0.20215821986957327,2.151460095471122,-1.0570916091301805
1.0272686669949735,-1.6980785064436166,1.835713877934257,1.291778610394942,-0.18212448459110353,0.47057092603462825
0.23564961394472864,-0.6400587172406952,-0.5752608591506336,1.29477241784915,-0.9693346410252885,1.0753077669174882
-0.4517651934394831,-0.5063550112737786,0.7600047167376008,0.5551818259565481,-1.5734187514148747,0.6757572057050585
-0.7441070853686291,1.1919137224013039,-1.3217867477975236,0.601753383415491,-2.097962547877671,1.9654382148084903
-2.1256131504740807,0.22066953896346353,0.027459664396470185,0.4754370458926229,-2.473128962879524,1.6926799364687366
-2.23458957611426,0.29684218121500716,0.3246510544722037,0.6278548393369259,0.9453409081521844,-0.20598347018818003
6.096724614139577,-0.511353188715684,-0.718726401828768,0.26976390075283696,1.4902303826205843,-0.01860685531951356
2.4978945696941635,0.26325310653644535,-1.1769728480349109,0.5012275705211148,-1.1784819761366219,1.3565104543803557
-1.3633601293981434,0.7557883400467055,0.06400401282844112,-0.30441500746687294,-0.743866111148157,-0.09976809647218743
0.34159001974037734,0.41073019683300044,-2.039462523867354,-0.2320982510909525,-0.675796641152963,0.02266115369997962
-1.1101881074239748,0.70564752366961,-0.5515280960325739,0.30389463185307586,-0.5714459483647174,-0.4048947475976698
0.5604761538592564,0.3775776880588981,-0.12454637409800953,0.14381902080714332,1.1106467407465388,-0.8963797303000444
-1.0710185252690214,-0.6740229517099146,-0.20857893252384135,0.5327136249952594,-1.0793685132311681,0.4432041519858828
-2.854839223831695,1.49738373134627,-2.4158620593912215,-0.05081465718524,-0.44567517348692626,-0.03951216624071957
-1.8531697558546107,-0.0030385193085484333,-0.6006722913363446,0.10604098304854741,0.6582557249325738,0.07767171826727665
-3.235508362429346,1.0340264542084074,-1.055179805110617,0.26572022825736397,0.8780633317399085,-0.3494288404024106
-0.4554211107750673,0.35480450088112225,-0.5055369148011565,0.21353033370347574,-0.6856310378186392,0.8764442552577704
-0.040876308247272446,-0.43643964604474017,0.7656974722599603,0.38952486162957944,1.0439373422685274,0.44759825080205834
4.750790411255674,0.44863541567288545,-0.6113579134649936,0.09448809298082425,-1.011359674460464,1.1652626554652796
-2.996010120305076,0.7421979310824753,0.813901123749861,0.35632561030675236,-1.4366980522897783,1.2853316848288925
-1.5307880743905957,-0.11583215971140703,1.163916940063533,0.09626295462287539,-0.4786050856180788,0.7756387905417519
1.5070891301404383,-0.8742426164448787,0.32190416729759674,0.5505622025600495,-0.5267756793107802,0.8369524383194674
-0.3556314837602804,-0.21595076581160855,-0.13950626604477093,0.6209419542825463,-0.36488254514228086,-0.19601172224556268
2.20743045321359,-0.47336344992141605,-0.34171544163612,0.5776662052633775,0.4738786883913463,0.4474109039516765
0.13411028581384066,-0.056086219305960916,0.6740852201875419,0.6521927954705672,-0.793894690071495,0.19946858200023182
-0.5094428183184238,0.9559133253776013,-1.659391497948906,0.5048535553953891,1.3985696415417737,-1.4931608265108012
2.750437008701314,-0.6987936982377169,0.5556203370389945,0.420069023835877,1.3467366039115758,-0.06891993426232215
-0.3798911120604959,-0.16667691953140273,-0.33470064462321514,0.6622458522803901,1.05167580166134,-0.10230049514281499
-1.3387300040352013,0.019493396067610413,-0.06896956964828119,-0.01502444465018632,-1.9240349499908684,1.0894581574332258
-1.8431964851788907,-1.0824241388279865,-0.335359530804594,0.49961687297651114,-0.5913367623709772,0.7361939683790569
