Gx,Gy,Gz,Ax,Ay,Az
-4.151927000000001,13.051544999999999,-6.258554,54.544,-522.6840000000001,15.212000000000002
-1.7733580286979918,16.441707384508238,-3.7506682801828073,-2.853737333181232,0.9557325816590087,3.9962079099195575
-6.876397561388307,8.015534287985677,-3.806681576266917,-1.6857211672767136,1.8522729951622028,2.607603386116533
-1.3108722354136744,5.97707027051222,-4.648016875359469,-1.3482768356770856,1.4459532948050289,0.7683220205306107
-1.4418099401852862,9.466859697820896,-6.965266829812224,-1.453354265917743,1.9317806748584978,2.0954281970648494
-10.089250815233505,18.723787975994767,-1.7821371727126982,-5.470104456907184,2.52063975302087,4.51546000454018
6.766816876732343,0.4368041168380117,-3.3303443524053664,1.5052388141570163,4.056613759727589,3.793356379694765
9.89610832249283,11.046323101660308,5.652759890264476,0.6438944299215759,2.287157951402949,2.7333335890307757
2.258670674540562,8.472218316498335,6.467112619483429,-0.308966204753106,5.97881724700886,1.9852614448186598
15.789505073945179,4.103155784374746,5.542583806251622,-2.6739459194830606,5.79805456788992,8.067475885473929
23.04308277856953,4.316040891655297,7.081252055870612,-3.222214845426198,35.23409728235567,10.288128777938065
-20.54825044590732,7.570222439351851,-1.7564349792637155,1.8763705643681325,-37.810771818887545,-6.439662517782484
-14.748651864831988,-3.1028386398451118,2.298331061735949,0.5046173477676303,-2.9397762052070693,-10.218221237257616
-10.032555200508073,-1.4827989080352477,0.9526923226277648,2.179949026970424,-4.355312031786285,-7.104789319981663
-13.142055468206912,-5.493971553598876,14.846293003457122,-0.12371162760133125,5.320353841649889,-2.671468246504408
-11.108557463885287,-10.774609698018295,25.057744597153416,-3.082407171837727,-0.9697631294732085,-3.809011401520964
14.535168909867128,5.656421392877837,-48.87536679960818,12.270096990701061,-10.44916356361748,0.9864624695451064
-4.057493563120667,-9.55314604642014,1.1879876110932168,0.868927775747665,-0.5899650178302971,-0.027965921858147835
-2.1617765546371728,-4.162736244975578,-7.86579070459152,-1.4051181361599046,2.2820463891226734,1.3873325648825823
-8.14088380449303,0.44449641585713173,-3.7131596386931642,-0.41149255536331697,1.2134129751150855,-5.324516384339396
11.059813607104477,-8.085332430583946,0.9766493227412354,1.7488646166766852,1.4818831119392932,2.749314494039746
1.0540799300432333,5.5220729193359395,-0.8748982511274012,-0.03667120615883307,2.0082320312754383,19.50891811582071
2.224056871892838,2.342142156628757,0.9166759142431284,-2.647924872023978,3.5609947728125295,5.4810983670466715
-4.394018105307451,-3.6184806081777974,-2.5492445568496893,-1.9531945778037325,-1.749227341916709,-1.4642651314059418
1.0179147486645523,-2.226915079363234,-0.5273075519278878,-0.5977277873332693,-0.29472078480913466,-0.4304305317978936
-9.566428293947162,5.749656574270406,-10.53186963650276,8.52602711190874,-1.439356972838251,1.360419853159987
-6.230946667922914,9.29850818772252,3.6609819238248997,11.618845782439843,-2.091099117877079,-0.1061144899383043
-8.595962726291557,-4.068290993966803,-18.12584109051067,-3.3152722107430876,-1.7595904944285554,-2.6919601514208495
7.078966701050964,1.2607137700526145,3.362087149628399,-0.28796475394487786,-0.8633093403776844,-0.7838405915878488
-3.0699553195103086,0.569922206721188,-0.12262181714965137,-0.3358691358752156,0.9596127794080416,4.158913576792779
-11.69992170555478,3.5041257136169994,0.8928057293390319,4.186532922962975,-1.1365487812265513,-3.5837674468383187
6.764117569281963,-0.495318542975147,1.384598120157459,1.7071929067500946,-7.381677562022601,-10.443716378201682
-4.011074808042858,-0.6985083129403683,-2.246007565038263,2.3727361633575397,3.9644266637510244,7.716743038478134
0.4260109455483727,2.9175291615522863,-6.961474402252627,-0.5424846362914819,4.8801470365652015,-0.12135359446889549
-1.7113033478326982,0.5561581620022,-4.589861436192524,-2.6440540129847916,1.3438976457465388,-0.7337672989200079
0.6214469736791068,0.08057934150894663,7.341879434843539,1.234445442792468,-0.7984363635113306,-1.4620187543757486
7.777669605121894,-2.713173019202588,1.725697025688855,1.813592808890399,-1.9905405510882788,1.042917775660388
-3.2058207783124275,-0.8605619139252194,0.38023899019822704,0.9075001687724091,1.4412692507553608,-0.6700051796049304
5.243644709176486,-2.561110697633358,-9.755242537322605,-1.3559271873833003,-3.6028460995427722,0.35115283016891574
1.0258052220725429,-2.3575875652713734,-1.9583147982903475,1.4087956328727422,-1.0113087881116205,-0.3221229966290071
12.05635363704453,-0.5865319849404562,-1.0854415438307432,-1.939702054665626,-7.7744592026913155,3.0672213293655486
3.2106233492029244,0.5045401290998042,2.0890885024239214,-4.316302948175032,1.2999856441578719,1.449816804156329
-9.638860070756838,0.5515331937836438,-6.415430245299183,-1.1477445956367152,11.52548740346403,-6.333044092143383
5.232900299777464,-1.4769952620399431,1.1774967233386935,-2.351353407134809,-3.6071625504310942,3.162162579767916
0.5582876329410809,0.3568632656915929,-1.7208289489501105,-0.513597936609024,-0.769719745421841,0.3840059472058661
5.043954921805521,-1.0878481490355005,-4.811088239708882,-5.540702786864337,0.03163901883082859,-0.9551501788413521
0.3424121524985875,-1.5432871886049542,1.6595231890686746,-1.5652868547723864,-1.552547683459665,-1.637346891146286
0.9273098601621355,-1.0151709474136263,5.715373481517213,3.0688514769743,-0.21275335774263926,-0.7154075142915053
0.3206540208782993,-0.9250318192255955,-1.4276478273881412,-3.6065053322714062,2.7870436182361797,-2.565807203685991
-1.795013137993088,0.49536001304458255,-3.3692140003214117,-0.7606132983513769,3.9008886160316614,0.2512584794433015
-4.3232135465295976,-0.5601038504349658,-0.9601553107591418,-0.2592035020190735,5.739642166232601,-1.8800422366557292
-3.6889138218005826,0.1726611874759223,-2.7144209596142113,-0.6596280839862312,-1.8638993269549151,0.10465247584249848
3.7865716158980742,-1.8530515558928853,2.1837859338858983,0.736598668438211,-7.151094720978842,3.2146896634524893
-6.66225361571186,1.5325082800833316,-1.0118659654903293,-0.563330676441506,14.983052316642809,-6.580063820231105
1.3738343299525804,-0.6542364625056702,-1.1691650100601068,-0.6564705702897853,-0.2631793731955179,0.2739762928121221
-4.404865540632023,1.398769064493795,-0.050856825041881604,-1.3079180568460793,0.3833620717599666,0.36619523736171544
0.8478452282737556,-1.3874627554664833,-2.457117654675927,-1.815592037907079,-0.2679908285809154,-0.30693048432500913
-1.7502401297421732,0.11018901941139436,-2.206867167523042,-0.7335500806032875,-1.374499356671547,0.42521839325173755
-0.7097398125290333,-0.8002545181012399,5.532372187404661,1.796189114938947,-2.157016151388196,0.8743199816696829
-2.103060049472902,1.2580615987775268,-0.45160910753064254,-0.6972631234660607,-3.675429830029654,3.7546768006269104e-05
3.450271660531421,-0.8770275011836504,-1.3181228516480559,-0.21484494566709866,-3.0461969822946457,0.6515117008758144
-0.41767070477884205,-0.5166755524985076,1.1093088290785218,-0.5361731274708961,-0.44850451904483224,-1.4465517480801409
-1.5665100217320718,-0.012057756035024236,-1.2689319092152784,-1.2969718210893588,4.714262478526329,-1.2189977995428496
1.9327655312409486,-0.3603029733558636,1.0851608634206293,-1.3874872883469567,-4.44819171685788,4.475811494081807
-4.551384628674332,0.29436828435321793,-2.918389672051522,-0.5987031252141004,9.245715561231101,-5.431717123060651
2.3550551968724287,-0.43511434227979773,-2.8542662175711664,0.5013716489662506,-1.6497290929093054,-0.38551960930644846
-2.7581353970134854,1.609801304007186,-0.7941193930547226,0.20497682257295027,0.6321581046219782,0.5693335075885189
0.427055890019846,-0.38202520659484906,1.7271047810763398,0.5542862399065747,1.0602058381098356,-1.4004960541225362
-3.115967428745934,0.7693438741581884,-0.4617299159780375,-0.22337470385737052,2.2423056882306036,-0.8368035779386418
-1.5850774303423518,-0.22314867569230173,3.7639417032023768,1.4639463897288707,1.6421888351517133,-0.7409906434157509
-3.544076070218742,1.4988781356536585,-0.42738102246231097,0.08170877358310247,2.1479781197184726,-1.3891763281209273
-0.4431841321276806,0.06282341541575073,-0.16111431897055906,-0.4811904247841736,1.341165840632136,0.31089610742922846
-0.48769052820722586,-0.19054931833590227,-0.06958060255475207,-0.04604391745070702,-4.428311822340624,0.8583214818567766
-2.3748798598824763,-0.6841219332430138,0.09221133560999384,-1.215596450781916,2.0861199884464336,-1.0274898387118145
2.158688426018955,0.462305725824669,1.4605776172946965,0.0030862426956401734,-1.5301602327351125,4.150993993254986
-1.8083962461635732,-1.1094383682167386,-1.4397607964677355,-0.5036093859599347,5.696450960342659,-4.602116921877225
1.9659265901291478,-0.4602551003274806,-1.4859591518452961,0.38485090839381597,-1.4790327190088879,0.2799081514831449
-0.13679580125985202,0.7034660473756644,-0.3224183227570334,-1.506202131955925,-0.7403725235613763,0.3877333328343213
0.6467237336793596,-1.0876911235238522,-1.144523429544562,0.0325675008456483,-0.6979391655998217,-0.274579723281295
-0.21755435744281137,0.5849211656455527,-1.7615954646411995,0.42592913792569753,-0.1025110202136772,-0.3651826932212149
-1.678199992304104,-0.691207484476174,0.5632486704947932,0.9333873130373557,-0.7362266815303533,-1.085324187569988
-0.9321855901449131,0.2648629795258146,0.620133748818574,-0.2216866238634998,-0.08586182179016277,-1.6385965315447732
1.4553572905450816,-0.8459526386360801,-1.0132946339972033,-0.2709826449994224,3.2352463638020033,-2.3915449771059185
-0.1701569796630269,0.19355553666694159,0.6889337212952744,-0.8414573437966262,-2.2546621980194654,0.8991345237498177
-0.4171948089696067,-0.11958963821829505,0.3109122383915348,-0.49391263192323487,-0.8686945551224026,0.38163806027348096
3.0280155000000004,1.1424994999999976,0.6471490000000002,-0.2150000000000004,-1.0010000000000006,2.962
2.332842504906057,-0.4565214927387671,-0.18736629944427508,0.12489990065938272,0.8774688484886719,-1.6906675215488947
-1.4969272316028308,-0.46278794032399806,-1.223564799683495,0.5722349748645298,-0.2208117621543848,-0.35605148887137594
1.4813980696879336,0.0649244964914788,-0.9562058715589525,-0.9947694473968693,-0.24181255211083075,-0.6214438553428403
-0.7673414785839414,-0.5985777702888853,0.1535072223293804,-0.5290281045476727,0.28638703042020275,-0.4272181822848662
-0.08861558735865582,0.4160615714345359,-0.8541393873057468,0.011273235099358736,0.9794596773945159,-0.846289869870323
-2.9948275333567267,0.26147851064395133,0.9461079775464765,0.25674421923723856,0.6900178772030776,0.2649165512744155
-3.8975601918137928,0.08167729265447438,1.477535567103038,-0.3012191725100719,0.5607037173412167,-0.8971682481240204
-1.621189757042755,-0.2146281448560402,-0.36546114820209274,-0.020013922084805624,1.3918652983084314,-3.1070115032355856
-1.2422430822253472,-0.07141199245321483,-0.41307345590043265,-0.7112637346080778,-0.2887474903160071,-0.10661700615327185
-3.3246205877530075,0.2737786752738849,0.30845651924828243,0.06951683646084739,-0.6249932945593547,0.6445847130063984
0.8865159521244388,0.27577635907990117,0.8172736453074284,-0.11107845407525616,-0.7540190445306347,0.9536269368802901
2.2742364521542298,-0.4568871962537939,-0.7236032327732146,-0.3519112606205085,0.4792835276498586,-0.5317799656878126
-1.4682617941197686,-0.8540002540954335,0.6242521738576032,-0.4066762056438131,-0.3310561744413454,-0.005968343768317785
2.0230887480255864,0.11939045132845741,-0.9961563649950357,-0.2549746799289258,-0.2263572959420272,-0.1439299205681226
-2.589209317648188,0.33858116392490456,-0.3721021285395682,-0.3670281286681107,1.1792077390298394,-1.4101101239959788
-0.11103501761749002,-0.9314476591905579,-1.0861738100518732,-0.07397638007335527,1.0094565562359095,-1.633361342901126
1.733369811746567,-0.1917473368810384,-0.563103405629552,-0.05045395533876254,-0.8622399067349542,0.5537809263974479
0.10202036455272623,0.9177707631712754,-0.03903160906152403,-0.1868967085615667,-0.4915242204609439,0.7817795800465668
-0.3561611613026183,-0.4062846888518207,-0.20074137358080302,-0.17241466914498826,0.1123179002617003,-1.9358491557993234
0.45717266344922125,-0.143680534281735,-0.46826192978040426,-0.4357891220898221,-0.15479628467372386,0.14291965829148268
-3.757132035519474,0.023851786598376057,0.748672967602392,0.1466108452873129,0.27541464561315776,-0.3028083810653708
0.918271754947585,0.7263287695240982,-0.40411891260442856,0.11693995042847416,-1.6600696814091305,2.242084072927059
3.066634444634056,0.09236720397427475,-1.5138913872739024,0.2904301085575825,-0.27255540721819393,-0.387841762391236
-0.8283657341031753,-0.2176625673985505,0.6189045668515674,-0.6209937179763477,-0.4460415181898072,0.5894605212131684
1.368571172523709,0.059751066271254816,0.21679309786596135,-0.06371145820994145,-0.8839443024320139,0.1542109894385454
-1.1576369374284412,0.36810190490064604,-0.1246548476958147,0.07647579448845909,-0.322814872430234,-0.5777617746826396
-1.6811806452217786,0.411748125377589,-0.7741242211784229,0.2067525941640046,1.1077191929774741,-1.757966529813684
-1.0349429086786466,-1.4685792038298944,-0.027650221574054834,-0.7622629213137044,1.4901832757428122,-1.6306642686158368
0.11076541944096507,0.5427685393468493,-0.993787127233898,-0.03695464406258542,-0.3049593506809746,0.5061530146127731
-0.4849483761813056,-0.4829492259607897,-0.38797979612715716,-0.1535442861532697,0.6160448962402825,-1.5773757867265061
0.3024239683297023,-0.17306405199674596,-0.3164374365293712,0.006441892455208875,0.2997162067613681,-0.7955902588691464
-3.694541575200095,-0.44462254881423363,0.5573548967055957,-0.1431578659603724,1.1694629012055746,-1.4463311268098409
0.20577302130697528,0.09339223284089126,0.8971746018200265,-0.6561246919539145,-2.190538034366508,2.7586143835930064
0.9663715614262598,-0.1981371298680189,-0.6056046460918374,0.03646543198111166,0.47047482423587345,-1.6071749671992408
0.08209983999411308,-0.693725577672855,-0.08830214107262874,-0.6462318907913227,-0.028417690280914343,-0.6679267588244246
1.1984503958180501,-0.5886883066603024,-0.3466254816382978,-0.2900470381057312,0.8797820841754783,-0.4458881525768008
1.1358567885516353,0.6334506335253949,-0.02749724229506284,-0.13260185529018736,-0.5857657760455892,0.5362042674923324
-0.7907420403723953,0.6918217220218501,-0.26228833192475287,0.17573633114498072,-0.566156833405072,-0.43227271211559926
-0.9032904675649998,-0.04293779872731576,-0.02901899679019576,-0.3972899515719458,0.3144186676539355,-0.5627699470980729
1.3361106654350339,0.17158171609487016,-0.6818954419636206,-0.25353057239185794,-0.77467982153226,0.7838238084677365
-0.18873094055548292,-0.12226242510396151,-0.19959802374385227,-0.0885486394588451,0.3189827681297151,-0.6965643057497151
