Gx,Gy,Gz,Ax,Ay,Az
4.178276000000001,10.633737000000004,-6.85145,40.318000000000005,-454.298,82.658
-1.051774917683142,14.918282454350603,-8.510279949383618,0.5505429027191017,7.200597263135842,-5.214794728721473
-4.592346742327121,14.614502065037044,-8.88852066680045,-3.4835068226006802,6.570171663199912,-0.28047333224905313
7.466499943844404,6.112680314955972,-9.237578011907193,-6.349141746604746,8.135632435926752,0.6127087016436307
12.384308495402973,-74.24647895737851,0.6024930859105904,-5.271078044106082,7.883198926453092,1.2719799694171425
14.497316414853877,-2.8229160088314926,19.98965877205254,6.577347195439692,7.5822180232728495,0.4554418136572309
-7.554181748456353,46.26134690388307,-3.47201043520212,-0.7182336983793761,13.088407264694245,0.15685623246166597
-0.7940908022451647,36.51380197697366,-0.9454151262029322,-0.22334338791911135,18.5918516354665,3.6986851628622444
-4.426718101577732,1.6513232481511277,-2.496855106053208,-3.029613468317655,30.227349770093394,-3.280205125891789
-28.84278086337791,45.69885683957063,33.696915177114484,-13.779109556256973,104.47796751119193,-19.93949541841708
13.022035946583168,-6.923053880252342,-15.080429020278942,1.9570502829832086,-61.93392756156151,4.423501824668187
9.530742242083168,-17.03735163561703,0.45673599281631333,-0.4224379862231311,-13.99704953297163,4.970503068230501
12.642124251802512,-24.902252166000807,21.523156300921876,-1.6559104153014887,0.5936724364689745,-3.7753556004761952
3.0186288092333307,11.652924105177195,-0.4547514615096375,-6.797157156372741,-8.008862132589115,-1.3697779984878835
-3.8855555903118018,-107.84737799515887,-100.80433649327213,-7.027939248827822,3.216538908101926,-2.2019466208454572
5.55403503525161,32.066932270496494,21.428573848034745,5.744005075655748,7.665157597613231,0.8649317032970898
14.83426169030967,-0.46522341295061764,8.99890236590641,-3.336385269807155,2.061848192665501,-3.5845145099071107
1.266484777559291,-21.66361456269482,1.342200746890068,0.13183020102234222,3.0311903411910746,4.017467503104673
-16.114282999700965,-33.5514552381526,10.031776364384651,-10.666151926606446,20.586498658354685,1.0137036803064448
-26.025579564301367,22.989897233589964,23.267275734059062,18.687165059002396,-34.05295547798957,3.623633107402495
-8.892253294048238,-5.539777485734183,-3.609037685565765,0.4848552852941139,-7.5345628609081245,-2.1923570243656663
-18.289927611462257,-19.491737812037243,4.343357207102709,-7.338566951427381,-4.0263474821590615,2.763407421280308
0.20801633631117866,-10.210400384661586,9.652104300211029,8.193642963130952,0.6798285060284357,2.4238274228576575
9.894610144940899,-9.559198644358212,1.799144680200689,-1.4635457772697222,-8.057037854671531,0.2672223336925319
-18.20856381252759,-23.801226894761495,-3.4022031303334237,-2.216170452459569,-4.648794084061101,2.7045106465315265
-14.291044997421048,14.955647172061827,11.935928312761606,4.739163084475474,-0.29819916153695303,0.009447598060098095
14.469214235806541,2.0857377795928276,-2.638716013510197,-5.633188316830051,-15.89829887379295,-5.52901812955805
2.945161357752518,-0.8745645086546681,0.5806732843793319,-5.622945743856531,-5.903790280287214,-0.8006610762953574
52.182299821643404,-8.854452504423936,2.333106511574047,-7.32387268123102,-11.11200529485274,-4.522878438311134
-22.81069588126209,6.687178930665219,-1.9624710323532426,6.772825460658109,1.3728656019448184,-0.9769335597813037
5.112377717791202,7.515041469025967,-5.159909324399145,2.755005925620723,-6.819742987549494,-0.861051343933535
-10.364703013777609,-2.4359317718720215,-0.3139327763395326,-8.558494591685632,5.332762705093767,-0.9480175787818866
-11.078767126334983,2.999925434390292,-13.783283229679446,-2.6649569913681175,-0.662348864120584,-0.05654654643924717
19.487652332581,-12.489642188690548,0.23044836734724194,5.451656531946773,-4.651553403358079,6.258921329368182
-3.9651886657541975,-10.492878235565259,-0.6846603071962871,-1.5589362959947386,0.7769382615712103,1.1570999390844792
-6.951321846993409,-11.81344372062623,0.22493033550027453,-3.362207454295235,11.42669379052484,2.2494128006066494
-22.79622461865118,6.23201362875732,10.175783831222594,5.708006857045618,18.032742232591616,-3.2305566087508475
-21.12651244739945,4.1088009001531915,-4.1108919459912325,-0.5304071405266213,22.77626901970201,-5.025441348913299
26.140283604887106,-6.900168271916894,0.026209160813711385,-6.484129128996277,-28.340355739316845,7.747981861001785
1.5607710747520862,1.4412151796894637,2.610695218910106,4.8772996431384685,4.066301836477398,-2.552924246112018
13.606986170607652,8.705197619238838,-14.48551455974591,16.117478443633285,-15.918707290919732,-0.8453624402385551
-4.78643945404635,8.52712258692269,-7.894530522087804,10.813047947584085,9.728375119473192,-3.6571778341928294
-8.196863778110547,9.557973209229614,-20.189625771551448,8.56324602292702,7.287686257015623,-5.623154960189734
9.672321474310193,2.093525517818727,5.0072047010534435,0.37464443982253337,-7.179493348959609,2.9383737809410464
5.387998456654971,1.9311216279898635,-5.93322724746208,2.7212310437305813,-7.423788850015043,1.9084031281967215
12.609386651517179,-4.167675478192715,3.679298613069479,-3.034960417293018,-26.284685084691816,6.880157952583732
-3.0022168176691526,1.2485033204825964,-4.200605299551706,0.7377478718889003,-5.697001538389378,2.210166342322069
-20.165811551050847,5.90264074231265,-0.35201069578368527,1.046850935031455,33.593737362709504,-10.836733977954157
7.119955601926026,0.3124068252024994,2.6074036414573047,-7.085027106335488,-22.19568665291441,9.675129470781432
-1.817205001698067,1.0791169227105293,8.56287355067176,-8.02468118280402,-0.47248311243135976,2.6994711814808108
6.839976050527781,-0.3699090597659547,11.412398215315124,-2.979267154086064,-13.067408585710922,5.790536877188265
-2.7369302940357105,-1.9527378177476944,8.994877611746267,-1.3968768182867273,-8.982908804940408,1.280309589940409
-6.995770310680954,2.051744047844431,-16.731724143175757,6.998195703464325,8.600235945942568,-5.938233034355834
-1.6418569053190328,5.889690734709991,-0.3075930480096315,1.2233695496885537,6.571929469638004,-3.025939752245664
2.7023955621569016,2.7482575910875955,-3.241962647736835,4.869550849259548,11.251146644385734,-3.1136919197588173
10.20691565682216,-2.341963114233625,3.4182375325426797,-0.8393069889748004,-7.718723180321916,3.340180224726976
9.30492113153257,-5.430099760325405,3.2382853237116236,2.0271803034157623,-12.734800900457302,6.726763381685821
-6.893063819018108,2.481251389858709,2.712399540018252,5.147229649444956,24.2993927172596,-14.694018626493094
0.5293844387209301,-0.05271092509936093,-3.2864876255670072,3.079515469144974,-0.9144733936752694,2.031448557425337
-0.41889507314084984,2.603651356539905,-7.5098618065433556,-0.07399219725878725,1.6814002549758857,-1.8663838585250057
3.782455215609801,2.3793357943631963,-2.0132906312918086,-1.5307465352721787,-2.0179805995827786,2.0593403431529143
3.767801477006126,0.3226095075525879,5.856587231244099,-3.873084080135546,-8.730643424397279,8.660201506865972
-1.2268484941375508,0.08856678781864158,-12.076039885670244,0.0545124640428738,-6.245927426220934,1.0530973026553436
-6.805162857563014,2.946642136866428,-7.166760343827661,-3.774003611814841,-7.362230002870822,2.273695458688037
-2.2361379761894815,3.809449174686814,-3.047662801033769,4.0779316617091315,-1.302063796154258,-3.274852826842331
0.7169890130360681,3.065166619786667,-4.557204126109541,-1.6391924354052594,-5.907352228140569,0.3793348567796988
7.6890729316663595,-1.460102828115145,-1.8832700951660075,-5.0745557517002045,-7.801447956919812,10.81515794369517
1.3214663599742964,2.7926367334738194,3.0604929598932493,1.0397853736908578,8.634584212141004,-6.653567625236045
1.3138819169165732,-2.3058707360832083,7.8174835402214,1.1145269206290598,2.2571985184704584,0.0074278440108734856
-2.727297875337487,1.589943061129581,0.8789526341695097,3.477106735479016,-0.1618445188910007,-3.4551603267449007
-1.1094415658165535,1.913770396051141,2.677862251107742,3.1917729601126417,4.506636484045299,-4.55619045432388
4.383106979802727,2.6671257795313936,10.832104136470985,-2.8258815038782767,3.8679817529803917,0.5801951345193919
2.416703558312145,-1.859199749902233,-0.47329815716007895,1.6892481919843094,3.8205744748924344,-1.8633107963339217
4.171047591963187,0.09260675044174116,-4.543820825988694,-2.1843706605047766,-0.6388307101547799,3.1902895771429045
-3.797799993673239,1.7970453140535914,-2.2555617059913464,3.170813080910404,-0.18803127941611453,-2.5853222457107066
-5.319597657230396,2.7471828763297754,-2.9248465299044906,3.0238559431479826,-3.2018009833637677,-2.1366299444915695
0.7702154483817196,-1.4967607497573794,-2.811043623063699,-3.3834182611416734,-9.115322494881982,9.305980299659423
0.5188957021383747,2.8365308421539255,-4.5394583545120035,-1.1619838044499888,1.3180216186564948,-0.6497406169628857
6.648971170688645,0.31182061104581815,-1.2576439140705649,-0.5715762284453318,-0.24392221955436177,3.229023875417208
-1.3581466357429735,0.732236502272771,-1.8973734869751013,0.6218552577234768,-3.079765096751852,1.532842746261983
-6.783164130836717,-0.20407468066529022,-5.049117454745821,3.0364697999328394,0.7622677063985894,-2.247838471462136
1.631482774616324,3.400728485330553,6.528682284557877,-2.4172593224225496,-0.6384046429371428,-0.8035853366845163
0.5715242367875991,1.4584897056774633,0.613743718275849,1.110910129466276,2.9988881093957276,-2.5630953679131543
7.1529116430251465,1.1054401758886647,2.005862498833701,-1.755939751667273,-0.22148453224529963,2.38688123755957
2.7264437140804816,1.4385397953794672,0.4144696391407956,0.4881477663861955,2.2635904505274405,-1.8561513889073322
-2.8373821181121355,1.9022759470116721,-0.8941201835511021,1.9873595855852977,5.32248567814307,-6.783115764421593
-1.2629982958990058,0.0955041897693818,-0.19549634267288862,-0.32287957831228264,-5.197510873188879,4.118278028936659
-1.4103480443551213,1.879031776656561,-2.676939505738412,0.6390719466494207,-0.6684051505997308,-0.93547837419132
4.028253547211753,1.2600670038018975,0.27967191523226465,-0.7065203235521089,-0.19121126680485823,1.9662007150891414
4.847750692962018,1.4890846238015047,-0.8901537832525165,-0.5390507977231426,-3.441513097197599,2.7775623739792463
-2.9642247002790585,-0.9472094286806299,-6.090950296640909,2.7178874689001664,-1.5465622539978692,1.1781221213872137
0.25700946470170694,2.3617480490693046,-0.4720652567005523,-0.20002223306466638,-2.2932386007866383,2.1367508662751584
-1.0900225447985026,0.7475887201192177,-2.060903530943971,1.1755818231370077,0.39646635983947154,-0.775517159682356
0.8765265770112141,0.9889531305203527,-0.464036990720195,-1.0417259710078857,-2.8873376954538372,2.5492652916877483
3.9206734346977212,1.7544324649135674,0.8170070956813644,-0.35354721171228776,-2.595074483837716,2.6415689932889777
1.4025019491321438,2.307547394678865,0.050384522614257854,1.300348706002932,4.5685005993941745,-5.5876251093017615
0.28043954020957074,-0.2290592389690671,1.371401345341126,-0.32606811673140745,-0.0015687425937620514,0.12790215569626895
0.016286517519699895,1.0976531267181688,-0.4044293180996641,-0.33712464058897884,-0.5265697836587504,-2.161533906603225
-0.9787433626704574,0.7434446918331903,1.2014082501440662,-0.3320396762499812,0.9998448662845932,-2.021253003749699
4.314751957446889,2.066805748659585,2.0960020597143334,-1.6666405600420098,0.2679516194121998,0.3307307096027787
-1.3284105541297446,-0.06738899475220983,-1.6470527100871126,1.0386618637501939,0.6162396809053454,-0.22704555116096348
-0.698461261071363,0.7843992825378725,-1.047471611027638,0.1636074728389214,-1.183670129313582,1.1935251267828266
0.1163499745168225,0.44888237723569,-0.8325762833736996,0.8173470346799115,1.168440896886255,-1.402997451887655
-2.585847897106631,0.8912691396831605,-2.228814668524933,0.9784602140253358,-1.811190144305969,1.5666378969652026
-0.9022902181349048,0.779555244868594,-1.869724581609454,0.15097941571672524,-3.652496920895989,5.239548108649593
0.9085343536217743,1.48516245850273,-1.860069311952785,1.2511675738519439,0.29230381913714476,-0.6253339600311332
-2.507187846425334,0.9864914044113302,-0.6248080459260814,0.09451377710592923,1.9108041633210076,0.8347689995830547
0.0867126810593567,1.2507267062787095,-1.8404715439211112,0.44230448421770174,-0.4467575564570947,0.04873235641160756
0.8670958264004425,0.8656766028156331,-0.6023761890399664,0.46606948501989387,-0.8923377377870543,-0.9853609581902423
4.324141594663515,2.0021145173287582,1.3761286717904668,-1.2006846084477498,-1.6740139618657226,0.17382638720593135
1.3538417398633296,1.2613945716894759,0.2116177987374045,0.14750300926391569,1.223509153767429,-1.0935048991140481
-0.1871968799621917,2.050311660063366,-1.1901357428461572,-1.2997809856539873,-0.42787758855364266,0.247221429867229
3.5244923960139776,0.4566582688321009,1.0148366334000054,0.14400774856571968,1.6712882100949584,-2.234280527145167
