Gx,Gy,Gz,Ax,Ay,Az
-17.771853,-9.210227000000001,-5.3022069999999974,-19.714,-477.098,35.03
-4.495369845609991,0.6027111571559383,-3.3759013529190742,-0.11784381624751555,-0.7791117878659763,0.520628785290226
2.2240865081325323,1.0307581202355776,-0.501004371980017,0.17768786304059203,-0.7229494988481062,-1.262790398383983
5.717684961311943,7.734282718751468,-1.2837468251871091,-0.35690617910914946,-0.17402555106034973,1.8562789977894973
19.343763757207604,19.961741839040734,2.647857729273366,2.4901412348158884,-3.1697066483248806,-0.8817963694581548
-11.912977024436122,-0.155361920751644,-5.843079232657118,0.8626653176845199,-0.8881156451258433,-0.602948213216307
0.6612250146200159,4.411478161238423,-1.2832626480828369,-1.1858181156728835,-0.7010294231764531,-1.6322004230793774
2.606759394298797,4.699428670955179,-2.4445239254801523,0.341311772789548,-2.552552426341234,-2.2072140243678744
8.735825561024708,-7.629687381472526,-6.210361090097576,2.2204287153068614,-1.211127972515289,-1.4203406813980837
31.53472581507687,-35.25991341282659,-2.826344789492783,3.7369250117252593,61.595105996785264,-32.09421018697539
-6.589053022246224,-5.374705683505048,-2.9032035651330395,-1.8141673765955966,-5.5056979826073515,6.985146995628396
-1.6184075914663465,-1.810452517362862,-4.988765798165206,-2.4654430280499176,0.7384329848712602,3.296627875153531
-4.490019365746383,3.1454411191639746,-7.691375393574271,-0.4126135689104413,-0.043977495633459096,-0.5016678701691907
-18.51041100238391,-4.593888049558488,-18.022319382155903,2.7541989685284936,7.387843916967723,0.29508998549722965
5.663893695783812,17.60245638758524,32.213232899454425,-9.091109385593535,4.873205811757085,1.414062547532152
3.5741123434580953,8.99319101301041,2.940299235695332,0.5786454717427261,-0.15311992296469273,-2.2346870193530437
-0.7939054083885408,13.709017571144022,-0.7443083139414728,1.400217519228404,-0.45405106762777336,1.174837159442279
-8.478579829967192,5.639828806013888,2.4650438002981145,-1.6834808468623643,-3.2649470813284176,1.8229481392107503
-19.15613411792762,-1.3039042961325311,7.490703719295855,-16.220610630901028,-15.709387726078367,16.84405248266581
1.065297561693555,7.72576340042137,4.083916711736413,-0.8015103032629668,-3.118795526358059,-9.338412660675662
-0.8971401908828169,-3.304825475296799,5.37974175427915,-2.112579531846436,-3.113451847700687,-5.3777288316788425
-2.3454134106793063,8.977258257559908,8.259519468465275,1.071722047438874,-4.697161470563137,0.42878328729587945
-7.094712401193713,2.212549517011198,3.058000725804755,-9.938841575357063,-2.865617030655916,-1.7308687297869314
6.650949624563815,-19.119543333680433,-14.915611162681447,8.212106412681742,-2.6053053758747318,2.5918656115954803
7.146204034814888,-5.22764186832632,1.0233020859925017,-2.2620889773180752,-2.8175786281222486,3.3858222370861197
5.235812477362059,1.352516163532032,0.6426492473798193,7.671108891324497,3.6273150109568375,-2.860997120171847
-2.0906168065014126,-7.157893951429518,-0.9647906770369534,-1.9229431320934882,11.002840726074623,-5.417136033862754
20.23539896558483,-3.3298685839835946,1.8566316405063188,3.476516328135198,-8.5334200253035,-9.46678237852558
-3.5934388527582897,-8.694525190923411,-7.126916311599598,-6.128167469386706,9.971681718027156,9.397459906015316
-3.099516047111184,-0.7813177512953828,-0.9977799391545932,-5.889722610330683,-0.056464349109785816,4.967080187182861
-2.399117204307192,-5.56077524076237,-1.357255778555619,-5.238079619704215,0.9314381391797921,-2.130131691959142
3.2464548500315877,8.173159079780802,4.763527400195868,7.0388975743268,-1.9219218381320151,2.2950159701504864
-7.264567524664283,-1.8790532728739349,3.2303103061368885,6.843532769442983,0.012363948962999416,0.7218950671103799
-8.158913425267572,3.7746226214115928,3.3468766612610565,2.34355489192488,1.697957214388824,-5.1209041425701525
-2.981807848581677,0.5439470365585457,1.2927802606389203,-4.370782207451192,-11.415246131487148,4.098474231086863
-7.491882314878779,0.5257077515503158,1.608947562139539,0.35944909817928306,-12.786392874159587,3.4025425042147375
-8.512886356468623,-1.0957708306145744,-1.453193985316521,-2.1378088196237,-0.3086860452725153,1.9693045067265058
3.184431849822193,-1.7117781381921837,6.0830407406050675,2.650743232240022,3.801301419318648,-2.1356438702416782
2.1382616872978066,3.874536528893222,0.5198887476754644,3.110280517927433,13.026764342143501,-2.9717783558178024
-2.4855411978826063,0.6340339529964498,-1.344244794894816,0.20392384536794905,3.252766343569383,1.6752029854175308
0.15701161455371615,-9.657388450895889,-4.575935066460501,-4.737124936997876,4.922347010129329,0.8900884661318937
8.361836348919704,-3.7104036679163133,-2.1980990205030513,-1.7273245820133907,1.8324198592081764,1.3305605771214057
2.638764004094745,-5.811591854262897,-6.870322111627322,4.65868565464357,5.980359233501548,2.8863994517381784
6.344179715474542,0.8329211557443768,0.45170659224143384,4.130068546546539,9.916155943143503,-3.611978920812262
6.973577153130536,-1.2955793893639236,-4.140457402994636,-1.7411067827136228,7.936562272795254,-0.8207602311194956
4.75147555768877,-2.741630475518421,0.31390578786370915,-0.19817816972496805,4.703690317608277,4.152054585562276
0.6499604454373609,3.9189814566612062,-4.654843630123156,-1.5689898555061026,-9.555353569097695,-2.737462789006133
0.7600809180667634,-3.884127657680857,0.12769109121251465,-2.951229165255989,-7.463670398258809,2.814256371341874
1.6856647923246797,1.2651018889953491,2.4046655070987066,-0.07868948327927272,2.8085684509966935,-0.44916842480040653
-0.8893874886318732,7.869761737764326,6.2473806791633155,1.6122242516209087,-3.0209821314815994,-0.318848252489794
-3.2310036247122804,3.2794826771605967,3.12860094201524,1.9160556625657583,0.43187229859797505,-2.65097187402957
-0.4433347361540658,4.405366104918368,4.970485363603164,-1.1391699919151832,-6.198845966174263,-2.0466721469474467
-5.1256322784048605,-2.1364133925327096,-3.555095481907283,-1.4454326006319513,-6.216448709355791,2.050120457293259
-5.7549788422436805,-0.8364239867758008,-1.1458995076222735,1.5460010627861034,-6.063298361276658,0.791239724533916
0.5534074084616039,-0.5228620445691647,-0.5137619629156047,0.3851242305508178,-0.30949277883246484,-6.72093024621308
3.159810980215005,-3.342317585453389,2.42782614359156,0.05003477867384154,3.1053244162578286,3.651575155250569
1.4642786868485658,1.4221347376002107,0.6361989448049781,1.535581251003042,5.150092433130554,-1.8865637072777832
-2.3408422894807166,-3.0260019086450263,-4.446645126750711,-1.6919350310459538,0.07156380011677244,0.06795110055887443
2.3729340483551713,-8.010657982202163,-2.4577188940380186,-1.5729213911554787,2.80665463802141,1.670665002445371
0.8437919128725322,4.122094880457149,1.839852824688853,1.584403245742829,0.41220519420888246,2.304094587877728
-2.1610128174404544,-4.261020230775584,0.45701333969684166,-0.8071897893035205,4.521559667610013,3.307265441407421
3.7696518903416827,3.02647629234117,3.159108798690658,-0.10243136032404243,4.157477083614792,-1.446874046071424
3.9053402070836847,1.0399902103025354,2.053167279763431,-1.1902706598670911,1.7793414635512057,0.06670199871074933
-5.986847799169345,3.33649321870686,1.7018795432299183,-1.4453363412542979,-2.285807185246303,3.424154107535616
2.5514455451817963,-0.4501802072368595,-1.6785458432542095,1.835744125919367,1.4136593592902358,-5.547953381422897
-3.150519390384577,-0.9586489180914946,-1.2093732720182824,-1.5087313520139738,-3.6582678071925656,-0.47213443784342557
2.4753404263239087,0.849367875670624,2.3673133186970916,1.641354332371419,-0.5630573626766566,0.7905510299541382
-3.128038876878321,1.0590799205512786,-0.6664109378788237,0.39897271234933207,-1.9954433334971085,-0.5413552710781854
2.6843407087749043,-3.3205453937201956,-2.382340483223299,-1.1612877858760955,0.4682775892826645,-3.5423243751457627
1.2264491607292458,1.7997269632762534,-0.43973387817778575,0.8471711603310673,-2.3834462666611547,-0.7592267991005844
-3.462422264673191,-2.023539722405351,-2.1274360708622493,0.5689778101143919,-3.1484479392058047,0.8895442794218883
1.2890540416302425,-0.45358100993379136,-0.3982425726473475,0.7139219939579776,0.550079144059207,-1.558967375071505
7.986875213873979,-2.5110473921083445,-0.34689438452985727,-0.23710297909011363,3.289179285882854,-0.10291623749893519
-6.617809837551974,-1.2388365699808281,0.8507785710047396,-0.4008186727019981,-1.866892945582639,2.768903744558877
3.6702162983505398,1.0371207754003426,2.338974396497623,0.786800254462336,3.0600164665587917,0.892921093524436
1.7486763367743914,0.9140136732569599,-0.5110713629164414,-0.23830268750079836,-0.056132403550275045,-2.2121908059540387
0.13697913366931935,0.9198994300427954,0.42893697815481346,-0.751643355006413,-0.12632354139378313,0.6076028526394874
-5.234348771910592,0.49229678203011834,1.7933604423630876,0.9238301417326669,0.22979384144390336,0.7168966946173589
-1.16245366559341,0.28977899565480914,-0.5981012167312827,-0.06819403594016538,1.7119946898477343,0.871521281448938
1.4318473360655486,-1.7505297820345116,0.5556017769296023,0.5048896931846399,2.947269865727713,1.0764542529254766
-4.868169768600648,0.6285431140492952,1.1820405638156797,-0.7711989973784399,-0.5257582477087173,0.3829555262940866
-4.011435878608371,0.7834492872818053,-1.3954653352576256,0.9258062829433397,-3.1210962030527227,-1.7069520454497058
3.855469309572758,-0.3625903897415525,1.065314030954739,0.16525122678332407,2.721132391782402,1.1700398910354024
-0.3389047499811766,-0.6437872435349611,-2.345857395290648,0.19273949533709978,-2.118435030309452,-2.1453975398507485
-2.0277229208763847,-1.7865131225686488,-0.8668543034999655,-0.09232881069492699,0.04025358143873236,0.9893884632824251
1.1741075876787965,-0.4024552790604826,-2.628625685612152,1.3133808447911273,0.10597990397427452,0.12443727690227946
1.4274837674255323,0.12424052686210607,-0.17305583659085833,-0.41817620110295783,0.7629765602504088,1.093821119866591
3.8493253075259592,-0.656299998145373,0.4018929293997247,-0.5327716415277086,-1.8732724123675009,-0.3551851581339025
-2.065613123787151,2.2814424368418047,0.904482337743122,-0.4836181658589344,-2.15194825560814,-1.438787605541876
0.5384794368057351,-1.265719415477398,-0.4201989157183223,1.0716956892854994,1.6234905940297182,1.328867056388594
0.1609276537821157,-1.8145270667871607,1.589941263089686,-0.343415714994454,2.68477616923542,1.7255110146862669
-0.6346605422596163,0.6870695851939667,-0.6361244950757482,-0.31422336484977453,-2.610219967792762,-1.358633577521199
-3.220183708795559,-0.367085727210143,1.2356913695201497,-0.46406883973421276,2.406794204298949,0.4021173489052118
2.8338230556543826,1.640098516192364,1.2367874120194216,0.578851850262313,0.16753386238219703,-1.047078895255801
0.17665278258238093,0.7219367590957083,0.8288997830156093,-0.5917999398408412,0.16537911157127505,-0.5608719898516301
0.9266495683815847,-1.0573350879526573,-1.6275844837714324,0.39135308899656285,-0.4275298926004165,0.5108612493865334
-2.8329483229932384,0.9452632361409075,0.5612964873459987,-0.11600402951080258,1.3128507170965626,-0.4715527609599304
1.071012909315304,-1.9581222622821213,-0.5967519858656987,0.173409696673688,0.7650692067708037,2.1486466996429066
1.3209487099804171,-0.25071753109133055,0.4046240282572613,-0.42501265116756537,-2.0211243022310272,-0.9159957817076515
-0.5817765353460285,-0.3068363950445886,-0.7093878374189286,0.5422826403628034,-2.098815367667645,-0.860951676723108
-3.437593391381207,-1.1646872550209604,0.34050867916289074,0.42233698369320716,2.3828544162559826,1.0408776067620624
0.9402441209723494,-0.16287974316446613,-1.2707097588436607,0.4251548570590047,-1.3203473210391106,0.6341633230830138
-1.213080866206857,-1.5748563351587275,-1.490323705036093,-0.08890501219414698,-0.004735164700542249,0.175245523416511
-1.5120022805927595,-0.576632438489733,0.8113765137118728,0.31171329182820884,0.3402908972664629,-0.2853550647043228
-3.2340676090275826,0.7183568014852948,1.6701976475702154,-0.19348120632534177,1.2100944016199122,0.42704639706641334
1.432700503755177,-1.940441152392594,-0.8543008754543373,0.5487298247761101,-0.6700093461610236,-0.2608187117356592
1.040040550585644,1.1543105076722735,1.3554764692692574,-0.2270875707653719,-0.207266506840296,-1.6896773044559106
-2.244935951376485,-0.2926844465742657,0.03857632114531384,0.07055105809478962,1.864254019748225,0.7014988433591449
2.502480950067329,0.8500019804129569,0.03414122592423141,-0.7829760968853863,1.1599259930948653,0.19737929065214227
2.7020181222956885,0.691767470750509,-0.14080172518992307,-0.1535324108856096,-1.9752870886336311,0.19328289161409767
-0.23439921665754682,0.23487867683690528,0.2374605199959992,0.42831217367735236,0.5994437967537378,-0.047270438857164976
-1.158843946481793,-0.5393863178578991,0.8659104823704532,0.4055998473343089,0.22132457299250785,0.8366672686507161
3.179850212824513,0.694822673455272,-0.9782837763245309,-0.19630884241709076,-1.2113606778187087,0.22430694041842902
2.4857130012574618,-1.1135710919159012,-1.3191421680620938,0.5491096929229791,-0.6867712082091579,0.08749307829298625
0.36831280972136904,0.6802416925845514,1.4716961206915582,-0.7551210850964474,0.6211309002600425,-0.13747989763732327
-2.426623629383331,-1.470843312616638,-1.1921559285764287,0.48725082310857415,0.23256988966830483,0.417405778703147
0.5151949703007903,-0.0037645722338666143,-0.6062678626331554,-0.0015899687034254817,-1.8234921051075559,-0.023010895782000704
-3.662352256523982,-0.1071543326246928,0.43824380323608525,0.37716013828926453,-0.2956243559775652,-0.08455516566584653
