Gx,Gy,Gz,Ax,Ay,Az
-4.056839,8.951794,-6.034130000000001,61.17,-536.6780000000001,42.29600000000001
-1.9400318708054813,7.351143598550028,-3.555578004602554,-1.6709532881950704,1.323155699672069,-0.1376066908415472
0.4093455185049477,7.926403998794754,-0.9922619159577339,-1.6318512251269037,-1.1582505208493252,-0.011433947433525438
1.9577512661885423,-1.7928836990831174,2.5588525196868863,-3.930758147625756,1.0541141043672355,3.355233285788546
5.365434653260064,-5.376613045451589,0.5635628530860302,-6.28747086976606,0.30750936409825447,1.6524825898808426
-15.18844352881415,-87.81788443479178,25.044620154234973,-13.686252495685709,2.4924417473206897,-2.2452533331523923
4.490219800144012,5.499681257643109,-3.4462754162700744,1.9814108277190414,1.4049221156124343,2.256717341003305
5.551937429276224,1.699197610626756,0.9129997353910018,0.9318742333801329,5.088745490915639,1.7628045915743897
2.1525633306585554,14.012702186260798,0.07066128749676492,-1.1093796685719148,8.547089695986871,-1.2107430022353851
4.7989604951946285,15.964496106889012,7.659441359525811,2.9080097866315846,10.619736142830629,-4.1495523791978925
16.51434019012991,63.527008207490546,9.410909779151336,-4.90986968091766,60.96063894860109,-18.09997766461552
-10.829197094761124,3.3494521370547083,5.177302619135911,-0.7912959353081526,-22.286495739725012,5.066835580320945
-5.329840832869328,12.009433428746494,6.293874983866771,-1.0679312212236767,-7.491634640176203,1.4299145685230756
-5.613298321551423,3.836861473314819,0.6566424314254586,-2.4526167543152226,-4.9602961802891254,0.6134175049376636
-1.967971935709896,-16.84370788770248,8.293399469373828,-6.135779525284249,-3.9648985115492144,-0.03184930134902819
-7.283371615180869,-55.532693332614855,31.17385366805383,-34.91332256508146,-12.95804781761486,2.580072788496783
3.9263124462333825,38.81371163009217,-22.988445589941804,27.022479867603604,9.358657767173788,-0.9833995810649611
1.1585429147366613,18.397964939101932,-3.5177082719381083,8.247993542081836,-0.6184196286227882,1.6614656599773607
3.40634748938168,14.983653147521732,-3.3228428159556067,-0.7483834244690465,1.0785730527790722,5.668525092155189
6.198578190612743,-19.19437961777914,-5.671766733104544,-4.847657273661541,2.1844207823619515,6.651216735675732
1.1269740193766784,-18.09826539598244,-3.4928565813388244,1.0248249771603002,-0.7113993452511957,9.168752798509276
-3.6727260368597108,16.69670020963439,-9.045733115521344,6.427288855667244,-1.8859669346725336,-13.141230836943084
0.565717512196136,-12.452704291970674,-8.965815255069726,5.283888221719217,0.1072164805649427,-2.543267034656636
-0.12348926522626702,19.89115707980638,-9.60476361139063,10.97001242178073,-3.1013210373705986,1.708210858706247
1.2267114602388327,19.564745558806795,-5.630632184490158,16.723431187957267,-0.4790881626538206,3.173216956556069
-1.34003379549628,-4.188387988684046,-9.943735278176725,23.387808661026234,0.8652247143065233,1.1118975690975847
-2.325128103281284,18.14071571969306,10.727490744682308,-40.80619740463975,-5.876445372114795,-2.866881737170951
-0.7967244523129782,1.9453846286230156,-3.863270282871026,1.6735562742154997,-2.6702232401893955,-2.8469998733687474
2.3299767010301498,-11.906381415483704,1.2936893155218585,5.763131513441566,-2.8192861664583697,-3.2952055829935314
0.9769746310116656,35.39531025659095,2.6618353020608607,18.326245692095455,-3.5146388375593363,2.4281496571769976
5.678585698318047,15.615788591819548,5.987120387657102,12.935876945592735,-3.0379164710981836,3.311185205792875
-8.571533862099256,-12.49121477306663,0.5692333753452749,-8.60009785152472,7.150285945062157,5.148467781957947
-1.4981010519598081,7.546975393970967,5.8997221676944775,2.5600581933714706,0.1700279830296525,1.6885148325246373
0.644745696600314,2.338861241099996,0.36848908230526545,-4.548278313635307,-0.4883635563414954,-1.0823771373480384
-0.20122216780392033,-1.9549266212225644,0.9171202177216837,-6.898413767424406,-6.092525555200908,-2.0566291125023586
1.4581085963050362,-1.3358346575235256,1.9011734482667215,-4.875587667272813,-5.7715826989247745,0.5422829474820432
-1.8683375268958324,-35.20817414722561,-3.306492666480416,1.2050431767608254,0.6271227456584325,-8.005990163312486
2.6721087291891963,14.8630514383706,1.4941324729929684,4.200767470435276,-4.255546203697607,4.500340341153869
-5.9163162093894375,18.62371834943034,-5.535102481453419,-5.23956377799746,2.2586170997863886,1.8088862919791422
-2.6720919009780046,1.186822232495778,-0.6256161319186186,-10.154820008099524,-0.34369245735494003,-4.354825894354651
-1.8567248191034817,5.808849426614867,-4.214983575502907,-2.2543544788425844,-2.686435766342214,-3.006018231829131
-1.5899132160271234,6.500294920219956,-3.3133554052026604,1.3050625982593456,6.390971607896205,-2.705871976763799
-0.6408542339917789,-0.6065051294915271,-2.8651871378650116,0.3114613230983103,-3.3309530599048967,-2.6760230148852155
-2.672754007301154,-3.061752148821765,2.2239167430887,3.0197776407723063,2.039020704838963,1.4494842638855279
-1.9864643951268368,-5.043286593063806,2.677504214898174,0.3874160710818734,7.067461450690301,0.4977107984548832
1.2757532909950962,-6.485430283475514,3.259050705442821,0.4369380614308054,1.6030001742908055,-0.32443375682876746
-1.3723114497391617,4.299343233568976,11.41661828246091,-5.007559236315308,5.49114493107063,6.969298365477448
-2.1034508651810064,-14.214265648263947,0.8070097718654529,-0.5367057666682626,-3.197537449247027,-3.9127401062366713
2.637255310535428,-10.166331953278128,3.441186005629027,2.0884146720705195,-3.9456083702762483,-1.3741976109552643
-0.3715503435332437,-0.4674698074389072,1.4225193539213474,2.6791654367312154,-4.027408282690496,3.433475384142902
0.6136590034904565,-2.411384178618535,0.27326998412244663,-0.20273039430850837,-1.9345235147522133,1.0089315027831856
-3.851260510162224,-5.779648215178177,-0.952732709465179,-1.3724169470620744,-13.05787642711375,1.2430729697726142
2.424726828761537,4.54625008508118,-0.3695552219044468,-4.268280839862313,1.4454585272336509,-1.65889119633616
2.187585076120313,0.5747332142149524,-4.867223674931386,-2.940253522495572,-2.8794721703841426,-0.5197107702957038
1.4796461851674536,1.2121867332506078,-3.641265170362497,-0.7984817961525543,-2.244421794474554,0.0220087758938301
-1.4804604293479713,2.711069186229135,-3.6129638394051327,0.44617905507427125,3.2061134085709853,-0.946449200153652
-0.8773155611874173,-9.574253375623845,-3.7167993507739046,-1.9323939458487471,2.6338894058966567,-6.403775531149168
0.8808361293631966,10.308672509058447,3.432256534012729,-0.6184339241518853,4.8117927447621645,3.132308930078281
-1.8945537261906085,6.67623655245405,-2.9012904791949676,-3.21886749243064,4.944210486662831,2.144257530901193
2.0066443346084286,4.642294335031313,-2.221703951364075,0.397940496757891,4.508861887290199,-0.6048502958415165
2.827161107755325,1.039469285634338,1.9045376893843171,0.676865460930789,-0.1560501722222538,0.6440961190740007
5.605981041348745,0.2214541268116701,-1.8291500206290494,0.004659825361032155,6.667613671587654,0.5111162791347619
-3.409548458602869,-4.823415471901621,3.613077829627257,2.776390650692422,-6.2656886258225875,1.7442329639924392
-1.9711332744842442,6.281259504155384,2.112792758156785,0.8667361505355768,-0.23656702437024735,0.5932304054821087
-0.7410090292466347,2.407710511367746,-0.13196702185618747,-0.28013445937352266,-2.8122877549284926,2.0227900649747026
-0.38523513780467766,4.197634820344781,3.235202690247597,-0.7835462479183377,-7.757256777360212,3.036071426749364
0.34439965047545595,9.81398570343423,-0.6742579822626755,1.053392698550451,-6.079328941914487,4.406754327756843
-2.678197317331267,-11.652691618457117,-1.0788265674002102,0.9169300032623411,-2.4870575685071366,-2.5409687197400954
-1.3274393048086504,-0.11132198768080137,0.6417823558271909,0.8833845968592705,-2.9315078527333163,-0.6420779221375617
-3.5975648197223364,-0.2679499392171478,0.8270805386324609,-2.197719772143884,0.9690616249614141,-1.0748901195154554
-2.305882217768694,-1.3311601344780115,-2.4399742448387767,-2.0633601441241325,2.7464779454076087,-1.6447089234687713
-3.9803285132956026,-2.3538587183101596,0.3368872439435555,-1.2848485572971327,0.07798657515476393,-1.9599530325248966
2.75737397833508,-1.4877675449935364,-0.7874398079825609,-2.0764140778487614,2.5230688106023593,-0.8543675792173876
2.4224264708698984,-6.3306514769172955,1.097430585353323,-1.2232819648184476,-0.03651364746033492,-1.7833403041445879
1.862210695502328,-3.271732006508363,1.984248130874889,-0.6483444910906,4.097311954028595,-1.8489828306581568
2.1026036174807814,-1.7267439479184574,-0.1713237340924696,0.2674997083744959,4.510010957015334,-1.4776865044130933
1.8164792760298063,-3.450369069758583,0.6424975342169302,-0.7082190686820753,2.0042257631276055,-1.9090514297641952
0.33054577636796023,11.062063347488767,2.635916265610301,-1.6165648458585897,-0.4369910069845765,2.7559253450235617
2.369984230053621,-0.6032523676742976,-1.3670775474787542,0.1877088363773457,-2.664643359726683,2.1310074172517597
0.664872768695159,0.6026197186971531,0.7311894260051175,1.9661910390253563,-5.336991973578351,1.174055487756803
0.5766617400072489,2.3204227276083813,1.9679547248531266,0.7340569898253904,-4.281129306491252,2.395802966520151
-2.5158842677115434,1.8209606725146652,0.05163940373235976,0.708913407323973,-1.5096581010644272,2.216039172407073
-4.215177298856263,0.6298279215688849,-0.590552256067897,-0.18234115502862902,1.726665085226685,-0.03279518785895763
-4.9426345437886745,3.882404188028883,-1.2011374694431223,1.0616101418018071,-1.9022059225260817,0.5901342816735287
-2.0928076248964205,-0.425301743665667,-0.5026952450857967,-1.1420390507242342,-2.682554905700517,0.09552306534792931
-1.91907724789574,-1.7136977913923968,0.14263695274336902,-0.9339225136171206,-1.6042513057265828,-1.1915758050852818
-1.1044625264347965,-0.5747813912695792,0.6076095893547402,-0.3408866396433555,-0.7706437929019898,0.23278644207084076
-0.2071687473157493,-7.729324744726531,-0.4428708055195105,-0.07780993532909708,0.7602157449184467,-2.407998311592432
-0.5536558556879647,0.5354992331259458,0.15830593816570548,-2.101241602023259,4.391018689976231,-2.037706013010742
1.7442522511795495,-1.3845678473608025,-0.9679281181150858,-2.089911735454174,3.202794628925499,-0.42847843722131596
2.4728029691332782,-2.1959724182961136,-1.3935262971141573,-0.8826720838048077,1.068045619022314,-1.2181562975836455
3.27249696159187,-0.8800149170921769,1.400354628384285,-0.8988652813496754,-1.0984938439504217,-1.0389872607205894
2.8909064800502984,1.851939592942091,0.8068546320998695,0.17372370630713596,-3.439918427153451,2.6956334068293804
3.284855768914164,-0.4580079349126267,1.178991703513757,-1.5013941250259093,1.6696743117437296,-0.18000240707479764
-0.8203631634467867,2.199209853088696,0.43459655828966304,0.2247029813112773,0.2404118082312583,0.5763049008974837
0.2430620301197398,2.222893516276395,0.23874893520496787,-0.005295866440753194,-0.3913119886321197,1.207644243167966
-0.34483116209869713,0.5363400126673277,0.5841224338767224,-0.32139370450832816,-1.8393433848571787,-0.29376097428933035
-0.2600627631620771,4.877320597891343,1.246665453651458,-0.2721917833550981,-1.599409173373374,2.0352849617728386
0.07936039636457348,-0.40173977209581224,0.3923819733339122,0.7871067042708538,-5.599003665633768,1.6333285646212883
-2.699169373824005,2.3728064961320996,0.9048756416459556,1.1836949509012538,-1.2581628563044212,-0.6422669899066771
-2.75145834994286,0.7026271205580086,0.3571917250243086,-0.5542683539855758,0.1367344357608749,0.283849978179042
-1.9543197108535932,-1.8437625154837356,-0.891737498375016,-0.17295625860023456,1.111731092207687,-0.48768455735736327
-0.551460200855515,-1.0189160396363248,0.25577257777834195,-0.7070445317061469,1.1888860908274508,-2.1911050754848125
-4.423584756122459,0.8060933169813964,-0.8471704010991734,0.9432377662127663,-0.8074027815763416,-0.22968199482811058
1.4912313558124068,-2.71240738533157,0.6764152473491918,-1.0938560213449762,-0.6349756081437272,-0.27765439522122337
-0.9020884574888398,-0.22519431994432804,1.0405958640871722,-0.4675995836646747,0.3048828715605012,-0.991120143073314
-1.2954778159976448,-0.009373500006340407,-0.20620477496699263,-1.0021056526867993,1.1676155331008244,0.7364289299240345
-0.11490484755961483,-2.8018307745300675,-0.37400606591205054,-0.5635278070178065,0.5145694309998288,-1.740250699839568
1.3185301814729404,-0.5517821807628112,0.26566110834086176,-1.0195443305987748,3.2685491494655254,-0.8621404612411984
1.0582167581209039,-0.12402178425624832,-0.19918929820574716,-0.8693262542625007,-1.6780786194130135,1.2261411186657534
1.272364413747911,0.045634899856279,0.18452514204602838,-0.19086604427382947,-1.8816755516309076,-0.32027615931350306
0.6194013676733552,2.359898892662293,1.0443905207989992,0.01612195290677887,-1.6298240726004014,0.9410287058274536
-0.686159876909913,1.324726816879961,-0.18839713516212542,-0.16798453815488912,-1.1817584298843633,1.3047124742137433
3.207787614349705,2.071859425217869,0.9388650634852168,-0.4013726535049643,-0.3301039437095099,-0.003651229102634268
-2.030951888574015,1.2233397401343828,-0.37146339034681386,0.04145396018459868,0.08747019271088519,-0.27619955098936977
0.5556499565190909,1.0455567063635822,0.10896391970521746,0.07350648112251523,-0.75376161644422,-0.11782497766672423
-0.38884386252577174,0.6262660258876966,0.42859430014864963,-0.02437622218929214,-1.0631457701312952,-0.7392036940450414
-2.321100672121195,1.5589076560354487,0.3783329428000719,-0.10300097117345541,-0.9253563968196474,1.1198268916667407
-1.7949959202496588,0.6690498331175516,-0.6578025127592309,-0.24613832842022032,-2.784658535687071,0.09881631967609827
-1.5588962953622125,-1.3130918848684536,0.26282140677402266,-0.279627156998169,1.192380058700993,-1.2154260594921305
-1.1749952123847571,-1.8381399311536173,-0.20950752956444074,-0.9040787842956819,0.4629059142394283,0.869904059306605
-0.12120128725313561,-2.363765262834921,-0.9887937836174786,-0.39480846107694345,-0.12326719455892987,-1.1446998561841282
0.6552418595066685,-1.0346197661836396,-0.846548428825613,-0.40376328032877046,-0.44570171476935916,0.19852852330156523
-1.241359201542324,-0.7109589600716951,0.056776613443208473,0.06367458454364006,-1.5983160703222492,0.26765368927519423
0.4465746441690134,0.37735978241860435,0.25003449429391295,-0.6883857499138285,-0.5072182460645044,0.44148107798548025
-0.5999217130449033,0.4434087547568485,0.2192467917950437,-0.5117543756276998,0.14829844925116126,0.05500610361639155
0.2900882363823116,-0.49969111123016025,0.14360233230823183,-0.5351007728248585,0.21710132304130797,0.461336219203374
0.9488611352539602,0.7268968995208913,-0.34308277191609626,0.04252518792802312,0.9230058094461375,-0.6419219768765847
0.3192067708659743,-0.3392305670573834,0.8002288907994006,-0.4091122034767952,0.951354997022384,-0.4282449663470682
-0.12904511143779535,2.012743984927532,-0.11120722621334739,-0.24116748071677085,-1.7803335261129911,0.9186041411572954
