Gx,Gy,Gz,Ax,Ay,Az
-15.822418999999991,-4.341930000000001,-3.5128589999999984,2.559999999999996,-436.89,152.314
-14.474811005490597,-1.2888916181453929,7.846253128251292,4.622855040322578,-1.5764603077684427,-1.6447193715245896
27.702936924485265,2.6101270657298565,5.588858306447799,1.4154572513097636,1.7688212559643022,8.387110888038977
27.692147025747868,6.1999825252125715,-1.212567187057523,0.9720372676001442,1.0619053677761177,-1.2592742601021842
18.66579602881947,53.09714166711011,-22.416560801854004,11.423046391375363,-2.0063256582914786,3.8900877084575716
-31.74013659214367,54.60537115878234,-44.585394576605594,2.7293286902187583,4.403129213669629,6.332765235983307
-9.04349375016028,-60.838782913037676,27.20794124492177,5.352143360459445,-0.9935663650346518,-3.893453153449383
-3.5573742990591386,27.07201728607553,-21.89988005090412,9.065670281780482,7.1733805814902,13.497648295768471
10.055874419140327,11.39496309528666,-20.421350747896533,9.876222616932207,-6.8605792297758015,12.060399514107603
2.0358879245976604,-10.866913268054503,-20.068660051880638,7.275399949445941,10.403475065899585,42.01913893495997
-30.506259496038517,12.066463602692462,16.79407667034763,-9.073327895718899,2.6518091054537436,-43.87941555253944
-2.3225395383467937,39.45416169302738,2.4998932004147183,-4.950084781371546,-2.2990476519106835,-15.860592447898924
-20.68063639887013,-19.761999444722548,-15.734972454862003,-2.3352065465518534,0.7443631618450546,-11.640438302430448
-10.848712204939027,-24.96367818697287,-7.11940150005924,0.1038428531489144,-2.876946657544221,-2.612649948984982
-16.80108592978805,-44.22406904264672,-47.87158806857484,9.805497842056234,-12.178735274120417,1.3843742014450588
0.04177578187505909,16.34834157931795,28.183032967235203,-7.762575835931835,9.979818661378346,2.7003928873555023
12.989642287147108,3.4363858447369395,31.78108707736208,-7.262937753219567,-3.980312767983955,0.0019202111419780454
5.785242063549112,11.573882544004384,23.928927113264198,5.566175382739528,7.349201456700104,4.649716864844887
11.464058824891334,-27.642128032341535,9.1750843883911,-6.722347731801855,-5.903163199965622,-4.582484177763883
-22.20337780326593,-0.8942994520198164,-1.630002722494214,15.373593486184777,22.604955854391164,34.613207003689915
5.913812344615155,-2.1947354567728903,-5.662498817473525,10.430988094710592,-10.467142110494255,2.386324258900261
7.266632680994599,0.8106564539807373,2.4220416499022956,4.933632822410966,-11.16174026596061,-5.257919206436298
4.186729530505147,-33.64503281947208,5.86945332253635,0.15828046299225962,-3.4493475194569547,-3.989141443229048
-1.0432123129692097,40.39996708779725,-3.752617829056107,8.16928733666812,3.6385792453217407,-4.683651246904291
-19.067355939920184,-68.65736412100044,11.196437891858823,-34.50857015278378,-3.184442894896473,-4.709233952026632
-5.504908194668778,0.8655472628414902,0.21694898726194883,-8.351855238681775,8.368796806332282,-1.185344890043742
2.1073381714576924,15.845079953586637,-6.986427638567195,2.3842356002447938,-3.857311192856089,-1.2747586795985018
0.7257460616124611,2.086508169372899,2.8926510705264548,7.795495019224249,12.231484273354567,4.957208814753645
4.737494678319703,23.583085675871818,4.457651971808783,3.174481649504176,-2.878859444985391,-2.8475474152527984
-12.483139544739597,-8.609628920501027,3.1251212448934638,3.024110467587408,2.880416616182377,-0.4514340510212116
0.258623028648826,5.684522357333443,-4.754856203251318,16.581352210599245,-6.023559466482097,-4.546481230809947
7.412904508872767,-6.358150983348256,-10.46497968229928,0.021771829685600652,5.534922576235202,-2.121651643747379
-5.822542372800077,-1.3246629099192226,-0.7677863836457218,-0.5006150264186227,3.2272855998388983,-2.5773289113090287
4.32907386998976,10.562703409784948,-0.39248805494219996,22.50482240252053,-0.5426501289285104,-1.1348033754637938
-3.224459347929159,-19.499362359197047,2.022756254378538,-12.143532827019518,-1.1650123650742525,0.6277704512317278
-5.324159206172091,-0.29907134426557036,2.2722069615102916,-6.04819310487381,1.93268309376542,-3.8823886397220906
2.616650997850308,11.287090331053047,4.594536783430472,4.448195567250478,4.038791287132155,-6.024091254987638
-6.598614026161098,4.682905774371016,1.9114247208281243,-4.312007451379832,-6.103876952335138,0.25220387801268285
1.2112823781242295,2.423066140088662,3.115845649513813,8.232063487803314,10.446002379251636,5.087389788666639
-9.046947889880556,-0.6719461784478771,7.334158524799273,9.798192606057935,9.228752655012466,3.5806772284867723
1.8015067770689113,-4.780076012279166,1.5823164120928324,0.7034962643306263,-10.213836870448576,-1.0181547796210872
10.811882262803397,-10.195448865309945,1.0398864232010023,-7.044719112800159,-4.868067330394624,-1.612577715784059
-3.742044460265234,6.905891131605315,-5.079322956269553,3.2227341882647353,-4.0897976245018794,-0.5553606816437097
-1.1665024947602007,5.532977161377874,-1.0772154351772356,0.8430136675965811,-1.563421821212573,3.721009640733058
-2.215722014756281,-7.738277729070626,2.6514434336947676,-12.48695159887598,8.596724966830756,4.251296111156404
4.75142330500814,-1.228111208800265,-1.7481516819496448,-3.1790500232024073,-3.046435260807612,-3.13203328824898
-5.974611187144233,-3.275939702564097,1.5838748297252419,5.605133747236582,5.181884770467173,0.9763793897144915
-3.4800549843320034,13.06282454874465,-1.37092206934877,9.580110033734048,8.491235683036603,-11.969974934422776
0.8831457497057803,1.841754451501507,2.5820080678237987,4.841851081553714,-1.4979741033097338,1.063999473603706
-4.513809764934344,-9.14199371154612,-2.521260579501793,-1.0222368572488336,-4.367974261681724,11.245410734381819
-1.3219081136469897,-4.394841261251132,-10.661698211820687,4.395281772421584,-0.9812650435726393,2.1246055185457493
1.2990526286590338,-5.436525344192464,12.737024870804692,-6.653210000708495,10.259872289695775,-3.2664156568735616
-6.765272797869388,0.0066633478637668775,8.455577836146473,3.979299738881393,4.104655983718529,-1.50200091992563
-1.0026209601000313,-1.8583085035333315,2.771322201632549,0.46372754464400345,5.454320232990491,0.1731694933868217
-0.6869631809243317,1.8912352184840846,3.870209625862785,-1.8927197491809993,0.34625894353313824,1.4826877355716244
-0.5350646865415456,13.677056789825276,-2.948689023825663,3.9927627690306373,6.975881413725913,-12.624335688853959
5.824754054815413,-4.7755697918042035,3.0129702757599097,-4.384879119631439,-11.949051860918326,10.109956555405693
-13.850074140489593,-2.6010792200847006,9.285343205953202,-1.8088443064644117,11.21564386523509,-6.717261696321578
-14.541217913398231,-2.6888134389441536,-1.3816177592072687,-0.4722272313180267,4.27223333345148,-6.260996915627231
3.1041839733059113,-1.6087805229477228,-5.09667639976823,-2.0514563420454057,-4.812134405388006,6.047612766070418
23.985186852870633,-6.63665163076654,3.276118053054646,-4.895147629580311,-4.7354264155801875,5.73833723050037
-0.6787992400031224,-0.8676887936535662,-5.846560304181767,3.621866046268955,-3.1592362541364203,0.942152569106536
1.6048077016532791,-6.845666011702946,7.632271944330097,-7.763088239902323,-0.8960989970125864,3.1464004703461943
2.6563003420397218,-7.723635295371357,10.255614663137099,-7.473874131489813,2.4437630866055,3.529942385797569
3.4965133508743547,-1.6597561347215035,0.18774809723966135,-1.331526781502373,-1.348481826447845,3.5455033991891876
-17.126374226235548,2.1944590401939346,0.3969207898939233,7.8968811202210745,0.1305604954890156,-9.281663671747268
8.546803205800423,2.0256438002913058,-0.36607056465872656,0.4396528837692696,-0.5998583536698863,-0.7443581344759793
-7.14931342251711,-0.46297135952001456,-1.5880568362704586,0.7955853372574411,2.798877011186965,1.725801901700366
-18.587890647361355,-7.463854438595235,4.0477216143679025,-2.4291517845033965,1.2965909654287964,-0.20883181743271795
-19.533300892469136,-1.2070676909900606,-6.449374185512523,3.6897429158954305,-2.2289929609264667,3.5573733296443395
15.779382706041218,-0.6700418941279803,8.957607560179136,-5.213945029817128,-0.2919037438623965,-5.465721393999209
-1.8023629634235916,-2.052848481798745,1.1680073206741233,0.12613795672906414,0.05168484827423303,0.4404107333203913
3.1672130256497866,1.2940119675061466,-0.7221627389879237,1.2908789653715713,2.2262047258351925,-1.6268004633483562
3.158686475377351,-2.3319867025893215,-0.3683571179731411,-0.005417715477237461,-3.2497432380879436,3.7200795237107993
16.45276966802076,4.0548544023721975,-2.187539314028735,-0.024344023881931687,-1.7950931130651702,-3.66479839363332
-2.488808932464624,-5.521802504925062,1.3787565971478764,-4.698099351511288,-1.7634580611160655,3.0680940961788283
1.9852239980099382,-0.2585780191144558,2.338465971722622,-0.4458350573787163,0.9980067566740181,-1.4947152904085352
3.401364003589653,1.4926815027772258,2.3342186679673866,-1.4442764997172337,-1.7149790777068477,0.2724332949315752
-4.271496609687674,-0.8623379138864489,1.168081793944416,-1.1776997759397296,0.40781443643173376,0.7586969541266689
-9.326294979594646,-10.210721983690327,2.04042638065071,-3.361852920211862,-3.5099076472183857,7.9310773501869285
0.48226582817477076,-0.9193730905002214,-0.4836390630126454,0.5004225909409824,-1.340553916935181,-1.598435902734544
-7.154382410296221,-0.05556173364161178,0.5515023224761936,-0.4309062104957093,2.650743130427945,2.412597236789407
-10.998576895385764,-0.26480622706767387,3.0550652322126313,-2.011911864416517,4.012332463994865,-0.6312487302245084
-4.0413635918110575,-3.9640073756033942,2.5559656366713988,-3.6667163699723773,-1.4853622267425424,2.695915301187793
3.199301184551584,5.522380976448163,-4.358776649410549,1.927144918365316,-1.1896266253027394,-6.233184335302254
5.8836449598613605,-0.3239176154838904,-2.5498223609692765,1.216115946833156,-2.9280822365255657,-0.6904804171447907
-5.288816893550269,-1.7923956113903663,-1.746471637373381,0.32675957418733437,2.9308396904504397,0.365574787045602
7.303063480065424,0.2923613012928758,4.2028577006365895,-2.1478395078473236,0.16463631108972487,-2.567490907020372
-5.574038243601042,2.0923233480769667,-2.4190200624135265,0.47585606868077335,1.503013029077009,-0.846382258465281
5.9502484762468315,-1.9161917215577324,0.7389020193654918,-0.21306743296461939,-4.669148010601757,0.1939064681002199
4.297888903769644,-1.678247224448135,0.45743716533203216,-1.2408741696363659,-2.3689195279971758,0.7180957016427242
2.762542593950069,-1.4868049790907412,-1.198265674978204,-0.6605052917661809,-1.3824544608112286,1.7294169287798233
-7.112143237731233,-2.6178229564068713,1.1916230590440657,-1.3462612150994655,1.201982435147952,3.3869205396147555
-0.4641025030661097,-1.378227503900349,-0.18813716290106586,-1.3280694066072802,-1.7189252286796521,2.4113910605544966
-5.275022909914357,-1.2762595563215888,2.5432092542759963,-1.113945363597735,0.6240652854319337,-0.4949873003670577
6.306538580202763,0.9956549985740628,2.6158407713022194,-0.7811174851089692,-0.12933387743361435,-0.19724243770371513
-9.471332477081425,-3.7960664129734383,0.22154185815918226,-0.042828086362877854,1.3191906499436155,2.9487807375780153
2.4698468743891295,1.8127814488141354,1.0714894684898093,-0.1310698126856275,1.2244634233367542,-2.8411783109081994
-10.471421172802629,-4.540844419825763,1.3495089757889787,-1.2277812428585857,-1.3163058371434937,1.8193329340599482
3.1132336310569997,-1.1284041741533546,-0.4436918783002016,0.012944554741860848,-1.4089976796773271,-2.6130661727511333
-1.4982764464042233,-0.23859385934945096,1.8002818206293085,-0.5983041274143894,2.117777226312792,0.027003474643837455
1.7050510326570734,1.0528560190663199,-0.39669124373430775,0.42435041569591,3.4322254956065974,-2.6247489436373135
-2.8380558405215437,-3.333746356412646,-0.009452551842996246,-1.7080532237526385,-1.5844273787711494,1.6463959856547539
6.148115379075391,0.04090252155777513,0.44136994380019373,-1.3815920311805994,-1.537471192402003,0.3661186796087371
-1.1067120595444089,-1.473788536228973,-0.10700790805109378,-0.7381161775314428,-1.676307290352852,-0.1849800359338745
4.3158103795406255,0.8477806778953403,1.246854920002563,-0.799733459508672,1.580760623738671,-0.4719114142031578
0.3002305380266601,-1.5083020762316202,1.0574932468628138,-0.829719495381219,-1.3676164342484052,2.117069412080073
2.893063378269167,2.4159438032378207,0.16924015129904416,-0.21018033231062655,1.2148711945630948,-2.005492377612221
-6.085534256539402,-3.8177866170735926,-0.5965438360694159,0.3822264761054761,-2.2181868148397794,0.7325459125954299
3.892967538915426,-2.5784439716560037,0.677753652545418,-1.1944909329472533,-1.3352712354045966,-1.2154179802622114
-0.17349759010454568,-1.0792321043357043,-0.243065138031869,-1.2605901871504972,-1.005162219315627,2.5985252345939034
-7.118127285902224,-1.5584163918591059,-0.6581909776690267,1.3189854876204834,3.779680529367571,0.5409494356094329
-7.470451341388739,-3.4172954963191122,1.2065576681984744,-0.8952315037688064,-0.44570305500441565,0.5754918039377025
