Gx,Gy,Gz,Ax,Ay,Az
-12.182697,-4.803936,6.138224000000001,-24.524,-511.96000000000004,-116.69000000000001
-8.98750511651554,-5.425255610100343,7.601714230103434,3.4980657138716293,-2.0033858902818773,1.7899074989175143
-9.775112400782275,6.663485883164524,0.5505909116791609,-1.7770593952679947,-1.839412155574021,2.987855034939155
-4.860180164030514,-0.49008225389396354,14.018731486178092,1.4691194542934427,-1.332032148234112,-1.5081908337939456
-1.692263866046773,-4.431359550174344,5.6656551486853015,4.661367474094971,-2.995898242046345,1.536128517423915
18.451480911667613,-27.207614027244507,15.621642145911759,7.479847664130428,-0.8489626098641274,4.0261372079325835
-9.03403915066038,43.162534842414146,2.043495632169126,-1.645103021541513,-3.186241056656579,2.163204815015888
-1.0547606447013416,-1.3108277865204385,-7.291658499447654,-2.6614853374207295,-4.813900180010431,-0.2552577160256061
-1.5478383290320061,2.4833075005523764,-3.191094962331782,2.1648166093186796,-3.1528079746997695,2.388085994717888
11.533226153431555,-26.959799391941626,-5.147388047920205,-1.3850343852010143,-6.630491355276606,6.798695644174704
4.582298150340598,-20.18402443936514,-11.565217875638679,3.9897169174752856,-28.162373882673357,17.958294152724097
-25.34844131205724,26.42275698747554,11.175840803184977,-6.167138497981513,47.35208784196834,-27.622820180072335
-13.667665415322968,25.785005636246574,8.599634825860068,-3.218701757488354,10.278179461710598,-10.78487694490853
-18.34708827244954,5.791806435550715,-5.328153168118048,-2.77486594291858,10.034012997019213,-7.980078620535237
-5.067339124427075,-0.90441679556944,-6.746703786363761,-0.11749925556172541,12.34190843677914,-2.3854939870209066
-0.18936008507040536,-14.779984724793472,0.743528419052585,-3.3612863892798486,2.9232138268147545,-5.868800579159484
-14.22924599259884,108.27392094760279,-13.36497661445043,4.084279666671666,-6.35500019943915,-7.205973343860206
-7.357857638529728,10.624702425349723,6.381214535903813,-5.137452461482435,0.9188314977867973,-5.989135068105387
-5.3790356308416705,14.619545110762605,3.2314841329744746,3.3881801517054355,2.3357962840400224,-3.3570064239606285
-2.1640735913122535,12.3545993765338,-0.7333795974421706,-0.8718703871704983,-1.609090028177805,-3.1710841048492755
-3.9577623364813963,-1.603660304246219,4.244536444133661,-3.08007727404949,0.6375757564918634,-4.560556196794243
-16.439948809960107,9.54851324565404,13.613960193317943,-7.176803936511812,19.019524069099344,-21.651169184099018
7.136226325781159,0.9684853639301725,-2.4494638295519358,1.0534211864291392,-9.100752470126594,4.128303597621633
0.7814843654184762,4.309088074842705,-0.09958812972307829,0.38806739765807113,-1.5848648218772217,1.3072193144171034
-3.5234905188607724,-3.0748018818575797,-1.1489232436864063,0.14090293451813163,-2.886195066746658,0.8026732357375657
5.494739503018032,37.11355983174678,10.450411798793029,3.371170841149734,-3.438700042907701,0.8449985626377524
-9.18429442076906,43.529867965487576,5.090104326060393,11.56155090464442,-4.407288782395589,-2.4546726508122414
1.2762749460971419,-15.851174751775531,5.152185489268313,-7.174411142699531,2.960216805307989,2.416372759044184
-0.5625938208145443,-18.046972773810566,1.4973948376639064,-0.4524135981695918,2.026780352641545,1.5266292502660304
0.46133692633752343,17.758755829108114,13.851893353027744,-0.28653201360802827,0.22542933435378565,-1.3205294000967416
0.4891767955115687,-3.8039235160969187,1.2050037832259903,-5.483425478891382,-2.1606139783153346,-0.7802390736671247
-9.05518151421695,-6.170402294720689,6.140995883625606,-8.434698083932975,2.97093693537889,-6.737271781047174
13.529198619734164,-0.6401926514350365,-8.987272511228188,10.128787249615167,2.1119813234752223,19.543519003119187
-8.908630681991081,5.860184512105048,5.087584073209614,0.8550839555549838,5.570844332693276,0.9370610459930279
1.7496300783834815,-5.767901913840994,-6.502978191192307,3.1114206541857174,0.30479944900539024,3.860826090505567
1.6509445013834818,-13.562966616763937,-4.652335506770532,0.5639634019579015,-0.9745775017698144,2.0070894836187527
-8.131819933178347,2.2339923031134745,0.47395745091648234,2.2977209880447473,0.3844946346027771,-2.7765406922655886
-0.5930271622293137,16.42619784748694,9.02427044084381,24.52032189550522,-3.1518970634534043,-2.383663004342491
-1.819319324891352,23.087217603781323,5.443554525517004,12.519087696071036,-0.38586866307187506,-1.5490543931265304
9.051018853321196,-3.5824908990668307,-4.622964088164042,3.3044350885215854,-4.6482206019259,5.438011526430291
9.100653777372521,12.892738268388985,0.7407494297788191,12.39653451015306,-4.194321950744751,4.540071507443674
-4.336608804073715,-0.06564891773019133,-2.342404707393927,-1.5292833822083047,2.942988241251557,-1.4284757521099074
-14.201715077906455,17.05149143806771,6.130231527607503,10.314649755889736,8.923774032412208,-3.894449422200612
8.194801182064579,-15.631689597250073,-10.49445887710864,-3.3313275616508853,-6.817529901139576,2.8717232075476726
11.242069538148188,-5.637287963194547,-2.139828776162441,9.43395387794399,-10.021421753117167,3.1833239115374514
8.421959026214788,-3.549653930561308,-7.793374284469816,6.4094659711132955,-8.574361286198299,-0.7689424241161134
8.024724328936186,-3.5582110530296815,4.847083154499506,-2.6738808765055997,-8.204260152607123,-0.07638492395186164
5.950623883041067,10.259065327039085,10.15371543361553,-0.22510643733690128,-4.541490184605581,-0.6814548283758204
4.13943339412743,-25.278226876371065,-27.142606115257756,2.6572744681768934,-9.785527685482975,11.305171075762274
-4.54692055001051,0.746001111459746,-7.766955312571455,7.269859740322396,-3.5235031899064793,2.9107343536985484
-0.4469623240751712,-1.8843450728432205,-2.292798025339196,0.7152593744860901,-0.45371838277987386,3.1809411211836394
1.9934682437541427,-4.359123568835591,-2.449394154580484,0.49595870349292515,-0.599473590844267,0.8223658137147782
1.336659651432523,-3.7307981634768734,-2.113723151263197,1.3527769390362163,1.1087625207355307,0.5457336179243337
13.341966343804856,-2.4441842333053216,-7.551631819851595,11.267263729353472,-24.408151802322458,10.071545843936962
5.772979246556767,-3.2586415074352866,4.908084621806664,-1.1924258725366972,-7.484100565682261,0.7460232411776304
1.7158767223270308,-3.175038409271718,-5.643650626376312,-4.93861948219097,2.486427995381154,3.8099848775578344
9.837248201843602,-13.791399820250577,-7.6715679081875825,-9.306878108473647,-3.70241282139882,5.0032216970910195
-6.03932290830789,0.6991789733093032,-5.360332539400218,-0.640509695994925,5.399094215795182,-0.8209118411363052
-15.196519953531485,9.811062050656526,-4.542970060186796,9.633592944893609,7.136670358353545,-6.617981362926776
7.1276638090703965,-2.71905077944895,1.5110025622633523,-3.6728798649613132,2.179960760685595,1.1478186581219834
11.036626837450395,-5.900424085459193,-2.6645574441112396,-4.366965946712325,-0.4720305196217336,6.015051266840216
5.661134151155542,-12.270583091178802,-3.8827350296708825,-2.4258690494224426,-1.0710483920370315,2.5566936814683654
3.206046657676093,-3.7093827143777283,3.5637654335240216,-3.752870349325769,-1.5220603999020517,1.1518575612822963
-3.2582945658828666,-3.272487971242585,1.6503619925465294,-4.605090189093203,-7.727217065739035,-0.886605661392512
7.602437262822506,-10.067978786448858,-2.5823134279067106,-3.7368608443306814,2.883789240014717,6.210440545839041
2.370348391532798,-1.8360574368091873,-9.648528541351372,-1.6844805910969343,3.011915591277797,2.2563231731413023
5.524684658128283,-0.8813895580374609,2.9504822578482943,0.7653839097590733,0.13664884502278007,0.6172274887854697
0.4159894017851758,5.443789912831311,2.99313298854507,1.08160540068874,2.4005502129787444,-2.5080338042851484
-0.5344307738052347,0.2135007648393792,8.145052370033397,0.21941455080111727,0.590568473541095,0.6185433108894866
0.3891545034608837,-9.502389128910934,-4.3496872041382595,-7.763189544342783,-2.387029066204443,8.993568661945098
-6.640812420090082,-3.291038248412825,-0.2731464319682022,-1.4513478232889652,0.7157805534703219,1.985043347258919
-2.794872982555665,-0.13925404356870175,1.3652631814951768,-1.2712762322177285,-0.5220836981960801,-0.7472282317004254
-6.052157418872076,5.147146997662787,1.1960802497562062,-1.8250698780812722,4.506763161240671,0.3190536257262221
-0.48199161699998094,1.7184604944498163,1.80790562781863,0.39322969227087284,-0.8466262097079122,-2.4085270514269053
2.3385324183678287,2.0892656907122564,1.088898834883996,3.1574622547928914,-1.3106412908385652,0.6515035675203431
2.3574839277987714,2.4153244683494086,2.3476281370972663,0.6943519967355445,1.1099743112155327,-2.606156547710272
-3.9723940084049323,1.0442438423955602,1.025107050712424,0.7485013356269659,3.507612036499017,1.057802737248577
-3.2943247486735365,3.7824810035090755,-0.27036036007726594,-0.29235827715357926,2.882472745418495,-1.9291751599519298
-7.0782394941332365,0.5427539262523666,-2.049227081411187,-1.5657050575393916,4.361213514819085,-0.42732232146244997
-4.507433586569192,0.6182357057955956,-1.5055803311018412,-1.9134030717431636,2.161577966046046,-1.1320563857701496
-0.12509485674743193,-1.1426216563368214,-5.376990561080923,2.282387743933276,-0.6032140906394141,0.7870280483030649
-0.047168200156920026,0.09840633086332318,1.0540258357651178,0.8330847257412484,0.8202194870195978,-0.09850013382754241
-0.18257454320254762,1.2161678244737966,-1.1439595873220587,0.3623978604844662,1.9859702531940693,-0.07234772781005816
3.5366343126122093,-2.962736988416205,2.4151064930830675,0.9503667744945677,-2.3131580574014223,-0.015294501324669696
0.500247874556913,-2.520440752668504,1.8188670050591362,-0.09018923237495025,-0.792292419457632,-0.15904914933280345
-4.314339041340769,-0.5565956617261261,-3.395814910031158,2.9602944318912625,1.5490499134059341,3.3927253582127257
-3.794672471742269,0.06019117838575205,0.5750166687485612,0.43723588495701393,1.130214930590915,-0.4585667202522785
4.345071366031078,-0.34389206589805,-1.4310649825887627,1.1638452509924027,-2.2268317907084803,1.4642238556119547
0.439395,-2.4501104999999983,-1.1291840000000009,-0.39900000000000047,-1.0450000000000004,-0.9610000000000003
-1.0558549325713957,-0.9374237030149557,0.29117693250688514,-0.29309784916533066,-0.11295573666152414,0.20274019951016872
-2.804266207535664,-0.9732848276772437,1.8317829123499705,0.8308858669491159,0.7352503785502449,-1.0435940344707202
-1.7700604554078083,0.7032309281956604,0.012169677191510964,-0.14210970242940135,1.5998025345042222,-0.22928858994289492
0.3551028727549206,-3.260223434111281,-1.2608182052170775,-0.22972457712077832,-0.5434757653326892,1.190508560111006
-0.18727538988463133,-1.6395819101520968,-1.5132385462331213,-0.4908530470943965,0.19149169545170275,0.3467671464177917
-0.03318789838357539,-1.669672190349342,-0.17318083572622994,-0.11708645947278873,0.3065706437387543,-0.7413826312517138
-1.833950963496025,-1.0525135883434311,-1.8016135512895612,-0.640078038680268,-0.014609779371440812,2.1108224014485937
5.7861311751535816,-4.329137117817851,0.89448920707982,-0.9381977075659078,-2.4886291341668567,-1.0233578208922012
0.8196263408102633,-3.022067283345849,-3.3128434300876033,1.0009092548236977,-2.0451249408818626,1.222526962075841
1.991148207896368,-2.9195025621839914,-0.8464741564035569,-0.41135276534974735,1.7235115805317007,-2.869181423644224
-1.08402325429695,-0.9373515237576707,-0.18839608647655948,-0.5867034850202895,0.6170494239520458,-1.0022906591206509
0.2423181143016071,-0.8608450341009828,0.8895695881552408,0.5078634469096862,0.09730975003935571,0.512132654037657
-1.1146128854734643,-5.5077254403700096,-3.54052516366313,-0.5619040805411863,-1.3199079320395426,2.0473088442824725
-1.2478666593557999,-1.6885973397875025,-2.0171546919420384,0.9425876530265939,-1.9909792244894524,1.8388309600565669
0.4636550415760654,-2.692721032519625,-0.6398526339086885,-2.1019888774039472,-1.0379005993640327,0.8457681867981777
-1.221370708109459,-3.4777770393817447,-0.9706844564601725,-0.33853056811076737,-0.9983113243562429,1.7226651853061237
-2.9933824355843446,-4.959727192143179,1.1357860666906034,-0.28126749120871636,-0.8638580232302641,1.5252474235764286
-1.620762993320344,0.14789664607999709,-0.7007574715259139,1.6150427159289624,-0.5469004740481658,1.5703551589867069
-4.466305464198164,-2.6554659017232245,-0.32132109844080836,1.211168755160272,0.6105090236463575,0.6164607908138564
2.0152157307066156,-0.33058324738354594,0.0363911521128657,-0.08188306203257666,0.16999531469251283,0.4182359857126705
-2.3535733955006473,-3.4679253860860744,1.2003237605790438,0.1029019402941374,0.009176600056215012,1.8579120933533433
0.3455105916613149,-0.49448673278947064,0.6310905327869643,-0.35135536845541704,-0.47030865659445076,-0.0470796519831822
-4.9526962221037465,-3.4119100869186214,-1.904261317611513,-0.4848396028870273,0.8978708134047713,-0.1072630402259271
1.2448929943658404,-0.9610713738063941,-0.5942113264304698,-0.4058005981570315,-1.6528788385198503,0.020218922256336425
-0.47077612358397003,-1.223453399886526,-1.0391238325710672,-0.9873559562053111,0.2772144868552022,1.623271341883603
0.9315089003336117,-1.0671916366134326,0.5808408336842259,-0.617235071850914,0.22107753580868916,0.18883147447405746
0.7504348044477425,-0.581113519298821,-0.44914122614447166,0.9232519123893027,-0.7627609593928488,1.8820192161092624
1.2614320335718725,0.05770388637601609,-0.6650053657679881,0.6610257199274486,-0.3604591879697545,1.8132331056190423
0.30566215302100397,-4.16538692196146,-1.924229640526771,-0.009168412203497456,-0.8636473174651736,1.3144196115902673
2.3318801281387866,-2.2277828463183758,-0.9859256968207792,-0.2213390750002533,0.05705301590379808,0.5109472960512949
1.0219505340875228,-3.075977101473036,-0.6524333692245088,-0.29002289199359416,-1.1438814269743696,0.1838588242145618
1.2257558110207092,-5.627997011487017,-0.46639850639215086,0.4537584704672828,-2.859702790096566,0.06171453531228238
-1.2111053155875962,-1.9186141949771578,-0.8510386091807403,-0.022011559559773852,0.04233889627587378,-0.6359362382717328
-0.2997670701306716,-0.6050371987517293,0.746795447746694,-0.35206937134038296,-0.5925705990529082,1.6756796924685649
0.4550898854130414,1.017843697948825,-1.3534983432774035,-0.3232576861123948,0.0013262433728746803,0.7939633899642198
-0.5900219192617577,0.05610907820834149,-0.8106895477589715,0.7288711787191147,-1.9343769152347616,1.2530037223295007
-0.7653720824229437,-1.5993284761630318,-0.6211389671351173,-0.3065743052568336,-1.6290178957593275,1.1149521273215954
-1.1598138649180818,-1.1840269424616578,-0.27991823729626786,0.6158113751871447,0.1264987012959878,0.5969904596990585
-0.4684264968280236,-0.8015968386474859,-2.341116104456745,0.27353940902488394,0.3661981783719588,-2.4240470353114243
0.6425540446798785,-1.3859942440170778,0.48097209958795406,0.8589423926290969,-1.2236658495640984,1.7026797836581125
-1.1474673006593896,-1.6203605909096108,1.6007594089330246,0.23496733383668156,-0.8721998020409689,-0.15703708665424476
-1.7317821079658287,-1.3241755886852102,0.2277684071396262,0.9505454448149204,-0.4716549755094417,0.4347567729493229
3.0334261516194845,-1.0450500144978383,0.16169710309442697,-0.39947905136444506,0.3075286064990945,0.4345577406211161
