Gx,Gy,Gz,Ax,Ay,Az
-1.2755780000000008,-14.070736999999994,1.4334179999999979,1.9700000000000055,-461.9599999999999,60.544
-2.4392973448461865,-5.639829665192894,1.9851706710144184,-1.6920637263571041,2.0718725454811504,5.07026059212126
0.9828170054400241,-10.686944982083077,5.257740010588793,-0.35735943597318776,1.39777548025349,2.75068112203746
1.573880211017917,-31.82590451697358,5.639474805117765,0.08690103402490892,1.2605342915236406,3.808784057700533
8.869493356221238,-122.50622151845533,33.17420905382364,-5.425975740833028,2.1786790484897427,4.577660358619527
11.452672656681061,70.48785872313094,-15.414179598831408,5.493950042613109,1.1895729805743551,5.34652910912629
7.828560711581309,33.47672452361234,-4.991872932427066,5.9804054613254065,1.640719913545404,7.670165685183342
12.20871034285587,8.087524425276298,4.52806695998949,4.24342908518126,4.512666488822399,8.518768633431051
27.57735494669079,4.852391327947306,14.449000972389053,5.800747793716534,17.02961500840472,11.921064431366284
-42.32963617675223,-15.427093490983149,-8.88596036605719,-4.12822738639797,-26.853076832593715,-22.158701202867
-2.715143644314954,9.311838179953739,-0.4769839685493906,1.8423236632794175,-5.373447723820542,-6.184218482578933
-2.2210994120174288,0.21100660490388812,2.6524793677700886,2.762654120248559,-5.418803909335504,-3.775912452068867
3.2129230707990084,-12.665381151720474,3.870790065268352,1.0143228968896987,-6.450952626451974,-1.4901083210894592
-4.756679241940567,29.248362711958443,-134.5236492311193,-4.109815475733247,-10.506579753351291,-2.616817065147857
2.337105349864898,4.92467578803716,1.0077426588702507,0.7147432269347852,-2.041231532426253,4.262378717611234
1.802766227499646,13.444397312265206,-1.8833688738414516,1.9358171415161671,3.806788399094943,4.916861224688352
9.27900208570958,-0.6542287356421641,-6.085326106924065,1.843728312325827,3.8641301535510126,13.155018065796376
20.85590909605711,18.610524086437508,-10.088371673420763,1.3634347101936979,-9.739099185363319,29.502291730211823
0.83457234672046,11.427422504378269,-15.57727544185304,4.864978829682869,-7.437401652512017,-11.859407664614722
-3.1541990840018275,-2.4701551170818155,-13.926292246543065,5.536969664523053,-3.9080083743930656,-8.4307381426663
-4.535466394534593,5.874988982392951,-14.284866676645319,13.003497873217889,1.8479706358372465,-2.8271253884846357
-5.3228123840982375,46.7328412995555,-19.283494869377154,20.796155048635107,5.629190836361375,0.41285677008386323
-3.096552182976755,-65.51170993101304,14.854630771720023,-36.953000369578106,-3.697951995730981,-2.0714317218978633
-2.5121234243437813,6.403628040152351,10.366941598571392,-2.7365127641291833,1.7816570109405245,-1.0413897565513002
-5.057418467814394,8.59987965699128,9.481608943085885,5.243886511598888,-5.624329850816579,-2.9477645218119966
2.7940547569657816,2.88711102680873,-3.672241015804889,2.5438330768732493,-9.033109453945876,-6.346964516281057
3.152850765979778,-27.810991612711764,1.4881497626476363,-15.685252151968847,12.118111607144524,18.217862550110315
7.2867268113113575,-6.859881672879529,-3.702311557131555,-3.694912080315641,-3.478410235537819,-2.55757095502918
2.2227301330214093,-21.78259706948532,-9.279512079071779,-11.176612741553665,-2.4233191337514874,-3.5155910194044067
-5.966178376462304,-21.68611585501148,-8.781404494803292,-21.097188865837552,-3.3102513830547187,-1.4846897751166126
8.40270695442714,-27.535230028926165,-11.291777246803065,-21.96358969201173,-12.135768525075099,5.417813584599779
-2.080116180083287,1.6668184951755836,12.080509228371241,-6.875336508683674,-2.3851748764964764,-0.2851162444641845
-1.0456519364411296,-2.329039391023967,0.7411475425392897,2.8536566038367637,-3.1503064209353098,4.300578468148545
0.6437895126151824,-9.822738733962698,-7.583071602416643,-9.500945878855678,-2.3877367627129704,4.464492427318193
4.560182688438855,-21.0758635125507,-10.29330935060484,-23.0044757998127,-0.9481407383443897,1.9963149279080064
-11.135063722644269,0.9879438637543865,-5.876994955789156,-1.7284101247806865,11.03340990899181,-10.111362902299227
-0.769746699164569,-5.358597803546176,-2.179534426747121,-4.864871525310752,2.4568995458868033,-4.606150756929336
-6.655668761798843,-2.5413263008961504,6.336280883580169,-3.4034347576502566,1.3676476230882744,-2.955405028288507
-0.5982438849674856,5.7371617659972935,3.9878612645739446,9.547531843550638,-3.439993814041773,1.526734186736876
7.092059073861792,18.854520898258407,3.6035378865694137,22.618911042047312,-7.269774268775349,1.400890562388522
1.197113806264729,2.7592603113705154,5.810796946842551,4.104886943267733,2.623753262988914,-1.5945805842401737
5.72630159559465,-2.1095789304848087,3.161603154782912,-3.754271300120854,-0.6641130322961664,0.7536419481442569
5.148735425620558,-6.182562150288089,-4.277251437590327,-7.0477190957857285,-6.310686128041213,2.543526164880225
6.989494453268405,-3.128544165501289,3.5551414443770284,-4.19177627214,-12.68659886798811,10.776078890385202
-6.968345769501788,-1.3689596594324183,-1.0863004192417904,4.865384795227992,8.96809226445114,-7.508669142305349
-4.13313320394488,0.9968468832429651,-0.8735823214485521,1.96415315086778,1.2758397262441457,-2.3552708465352383
-4.725789561838914,-1.1035834017449753,-3.4987967261125084,-2.8317531799209337,-0.21787821182806386,-2.671112206593853
2.269067216001647,-2.6006332500490705,-2.6571631003006884,-10.834260179996061,-11.133028168899004,0.1941682401115168
5.526602417475721,1.6459321306019497,3.7373335473918625,15.719816912845426,5.622220155415482,1.753663408724114
-3.129052304612581,1.8088057282627672,0.5144183554541892,0.9812140498926123,-0.16128704845783404,0.06787338540534793
-1.317664164193041,2.4838585201740324,-4.260049965034472,0.8470509805425818,0.3686001855000789,-2.902630132417842
-2.01479794325276,0.3887946637596546,-1.3998834571068386,0.33167071124813075,2.260503563659698,-4.619971884870319
-1.156519871177092,-8.062284604021924,3.7068178535442464,-6.373564502398739,5.076737087145093,5.177385141240911
-0.08861162698914013,1.2811983370108826,1.3136998205751778,0.8928082813445156,-0.14694455278712454,-3.028097000686848
2.957522722169349,0.34674551283852784,1.5869619539990167,2.251914516661577,0.054785350697430624,-0.514655441937012
0.4261516857262695,-1.102681548376491,3.5128718213207266,7.610651050087632,4.8442331520616415,1.0611859956860936
-4.631389039648073,-5.099817100417571,1.0374414058022576,4.127635758437725,7.984076671735394,-0.02601649541485107
1.743474475776791,1.8630054352542886,0.4114476977538895,1.1723596515904744,-0.06169841262820508,0.19883282320780837
-1.1541696042069223,-0.43139024673009735,-3.618376013609226,-3.8110583998323326,2.5060282695879335,1.1695505827404784
0.005298463515438667,-1.5433745787317221,-2.561067554200129,-2.5984181232851835,0.665253845148865,1.669415952842505
-0.9986019594684868,-0.4176810589238355,-1.2373096891542499,0.04338753011043482,-4.254826236066996,-0.9497284455865687
-2.6142903986878534,-2.5839456213764804,3.3886669179317863,3.8979331260358494,2.6795415106026406,-1.6100412889349864
-2.023079444032482,-1.2430641875759807,-2.906334642761953,0.33448676992905746,-1.6688775904536888,-3.182183098768947
0.32456003879183914,-0.8691077014459079,-0.8774249503840156,-2.353176955201215,-0.053767147501199875,-2.5507192150929137
1.8938316485777946,-0.8553160246452891,-2.374767575625011,-2.275111435441535,0.6377494599887001,-0.5232962523261964
4.426735850980769,-0.00967797163648304,5.322499490376929,4.161450615594794,1.5637885732414691,2.4905323296683775
1.5787383155420425,2.3233931625035575,-4.184706914132709,-1.1386603050328759,-1.9541618550899227,-1.8244019124801938
-1.798012076889123,-2.1218613074832477,0.9411532766769203,-0.9272129529957623,1.0241346503719444,-0.5880473114001281
-6.4838807771742495,-3.413047305566254,1.1391831640988443,1.3748015819006163,7.286625846715372,0.19038968088055525
-3.3090714285995575,-2.3275785717888304,0.4458158961111187,-1.3367242206701566,4.491666092608204,3.7286315231814893
0.8692216370712567,2.835313442828542,4.068325865580972,1.3655969490797815,-1.687429469996526,-1.4176221552954007
-0.30395446578132157,1.8544492965010602,1.0245662746658386,0.9707770958001293,-1.0657772482507957,-0.6221030846862705
-1.284405586981022,-0.9316656519571727,-1.211298353151498,2.027886796940975,-0.2707649473878352,1.2531771273076449
-5.1608240109257855,-4.701451192002188,-3.670694962849522,-1.2260958634982408,3.9085397772947315,-0.5668869157419409
4.723012981124951,-0.3321950720772477,3.364305353044551,2.2649677354959112,2.6645425878009856,0.3414645720576699
-0.9460138193939882,-1.0520322204487853,-2.9704871001983824,-1.3095877224080072,3.7071475183164586,-0.1702029308691601
1.1692271256369307,-1.2556723153393239,-1.3323914267041488,-1.515220318848005,-0.4699344983374894,0.5665428222310587
-3.9380339830736775,-0.15758237710057177,-0.4192294390985968,0.9702876606599953,0.5077716245446353,-1.3638253707921124
-1.283129241078535,-3.754260691125759,-0.17842791975841743,3.512970567227322,1.1436526716288067,-0.21581882419406334
-2.211787243121966,0.23429658077357707,0.6077749539224602,-1.0458256508343684,0.7030045644350905,-1.3102770113318742
-0.1892281726937869,2.4121422185437615,-0.9078100951265343,-1.98668159934148,1.1187150570177449,-0.9519557146420059
3.8727979738572165,0.8965631752272821,1.0070810030469857,0.4604523379161453,-0.6177638374837531,0.44328009095908805
-3.7080187653097916,-2.367388197484056,-1.0822525827003178,1.327676991416358,0.5616608304154883,1.5989987854702092
2.0303792638193814,2.4675775918703167,1.3429735934948297,0.43880937338056186,2.7188103734774947,-3.634024449414315
-0.7374898649955253,-0.8296374474268656,-1.6185378773786452,0.49833877626299006,2.1407928197016775,-1.2206961192506283
2.172121636319868,-2.562941125950752,1.0752162335081008,1.318380222712506,0.15461404167363993,0.25510565539251673
-0.5344222997028953,2.1254783501723176,1.1800414375447665,0.35498641980258916,-0.8721968932590235,1.8455592294731389
0.9257207807126462,-2.718499380261272,1.233542262043631,2.780265900678773,1.5063495348258609,-1.6016751147433772
-1.7705177337834237,-1.8209565136808394,-1.5203097407330468,1.2081785025404521,0.18716341107324214,0.19676316937324945
-2.119028893774972,-2.178123698710773,-0.38140091851914176,-0.6414082503473092,1.2970947232489238,0.3251825844496595
0.546951986627622,-0.7394911783362755,-1.1902326897263782,-1.506290289071294,1.1238243199045486,-0.5212223361443291
-0.33615820635051197,-0.7486735075671708,-1.1857920907883666,1.1073079522634595,1.0083493984264749,1.926438922263522
-0.6743472401628696,0.2835269843448469,-0.7309252628322647,-0.5953039733009525,-0.21577716120434953,-1.495609935954243
-1.9667659174322132,0.8002818685239772,-0.9547683276970338,0.2054724924230195,-1.0436108267461077,-0.3251005430420046
-1.5908584236021666,-0.5880251075146294,-0.10816483078676786,2.173624129508072,2.3985946326189413,-2.047997951864301
1.5499673581693645,0.46225544041404254,-0.04705369302155453,0.5113080968836619,1.5061342733687184,-0.48022442209753136
1.0332175616053556,0.2773345029654749,2.094617323243825,0.2829793028418205,1.171546837611175,-2.461160734014619
1.268479576139588,1.5143229664545452,0.5798895287168659,-0.20606832955737148,-0.062431016396858,-0.5998540840325544
-1.5142129932601518,-0.45684644726394863,-0.4447243156865013,2.856680891540806,0.3741019759212031,0.5794960421796809
-1.3535483011372345,0.6835095738129464,-1.9572655338160176,1.8323923341825392,1.4561741186996706,0.11002569537623652
5.315417667485017,0.8970433497580333,-0.27789173110469356,0.5229544782390375,0.29393911433034875,-1.7697328640391736
0.9005575471387465,0.10700792910174074,-1.3475630069483002,-0.17127212368321904,1.0973774475138685,-0.7664744304635314
-1.329630569028503,-0.6674198131807463,-0.9555319196435098,-0.29901675796585697,0.004674675435115683,1.7951489408489227
-3.5685141022749685,-0.007776641855158056,-0.3085544186178859,1.284078452196069,0.11207677106377054,0.001943385035044931
-0.09921419191006042,-1.3040482885598785,-1.0839378169772038,2.2241807493126595,2.188298037653569,-0.9177607592262288
-3.534968840623488,-2.0568327744220563,-0.09739011643164214,0.6427639188856545,0.8208583592590335,-0.7131525744930782
-1.7385075474662015,-0.11688296247283275,-0.8766750345096823,-0.736027782070589,2.58843565778381,-0.39176960391486215
-0.2520734204597158,-0.390182167119486,-0.3015132883324554,-0.9164141040640985,0.2176026317714238,-0.290096540640468
-1.8917271355142278,-0.9747788439292624,-0.1527970397961898,1.0421697923672053,-0.4433215495439935,0.16704472461956027
5.125513278011424,0.43457252714807193,0.5952090699432032,-0.4457378283184228,0.18820669534072004,-2.6868658672870978
1.394487716417407,-0.9757613596703473,-0.3491356418160436,0.8821376432717921,1.8670163963754685,-1.240595429398403
1.3157911644004507,-0.27441230788533055,-1.237419159305003,0.5465635681577599,0.547484462164331,-0.9782493627042514
-1.9245679851499724,-1.2849734109112882,0.4529891775278936,-0.4067459669804082,0.01808176690121638,-0.8587026292435029
3.9883363551471733,-1.5022650354368314,0.3627905851645241,-0.28704244193894435,-0.425995517065176,-1.992314717711971
-3.2168373448913687,-1.5665409385981985,-0.942663342697281,0.33225619857776,0.687779845918761,0.008781225154013528
-2.0039668251801714,-0.4785766539168394,-0.7443435938788038,1.6283374256181564,1.4058979611419087,0.7901862116224385
