Gx,Gy,Gz,Ax,Ay,Az
-5.717212999999998,2.5645479999999994,-2.1156109999999986,-2.272,-505.20200000000006,105.91800000000002
2.718466808260404,8.641416669604295,-2.33162051580762,-0.20851973726107564,1.2949718340148255,2.1859177420289413
8.08514852384417,6.206879795094526,0.9722726324649158,2.5606803409175534,1.1595554609922272,0.6520526703129387
4.911892885245604,-2.70733006789358,-4.248269283191453,2.5135550538170173,1.81087553628474,2.464021484659335
9.388670879064584,-2.8447543773185595,-12.814700886037773,3.5019459579952423,1.417562757655364,1.1911573627947891
4.055948341239319,-27.44608970297993,42.57162106285985,-11.094017483800132,-0.726946686737151,1.3770490366564503
-4.946219459999044,-14.338363215490793,5.393660199677064,-2.483957651196943,2.7666402949313036,4.6991877381648965
-3.215028433447449,-7.684051758323538,4.942734781367508,-1.9322185424847746,2.189226155147979,3.930184361697515
-2.904509928779784,-7.2713023964813805,0.8913901424123063,-0.2343331036714845,-1.5349297899311822,7.478397066875875
3.918576493043746,-2.7410338722272476,8.116403675591064,0.22233988184479303,-18.304086151712678,15.896523813633655
-12.007475125570176,7.5343986663006675,3.8659379627033323,-2.266411710270085,42.03460471420573,-45.5294615395012
-3.6003995634084607,3.698013049391075,8.710244728841328,-4.314446358868146,-10.98079372129428,-6.670895275513687
-3.7020062992498364,3.2959955733189092,13.643993553614353,-4.6719138862544884,-2.0973244184046393,-1.674289805930293
-1.3810229899953215,0.8583943607690729,14.48253001853972,-7.697255368832114,-5.117206158894012,-1.1357877847431395
-10.547934396847825,57.87593519068184,15.791022940200943,-2.000277995433687,-1.0391809812196158,-1.6149972468485494
10.559376600875517,-84.50116077637225,-14.710915756301706,-8.411132812060377,2.324282215148726,-5.976083547905764
-0.37347283825550726,-4.488580921317122,-15.752573438452707,10.1832368791007,7.990278562664394,0.236239033177994
-2.9072911134258725,0.27047646711172213,-4.90838820612851,4.953844654706728,9.807678810354043,-0.8523230871983384
-2.484438906190829,3.8320900587852305,-0.46890505359070733,-0.04238844844107015,6.679314181761013,-0.0259817351302718
-1.503347143244638,-5.564380741208138,-8.031908173592878,-0.784914562511449,-3.95660307478815,-11.639022738318197
5.466748129602098,-10.406361676561213,0.16083787610132866,1.3411833935479236,13.131907788791395,16.039466140664715
4.800131106164613,2.738252280249447,-0.9848080663214628,3.7989989715785004,-10.70578696681251,-3.6062765166108948
3.3728007595195235,-1.0340016934049467,-2.1413752247081455,-2.578779586378841,-1.9123518391845273,-2.2620062063530906
1.3679463939968404,17.693220097562136,-5.082675873916084,3.5020032117316795,4.721438679700601,-1.0456526078928694
-0.7926619431796254,11.845976697258251,-4.681820620361583,13.080632768486186,1.4300654860126158,-2.885198477867063
1.1930900699166995,-5.381662247005129,8.743947086021818,-8.298355347429222,-1.9242878961737324,2.2381109340990575
-4.222835757462811,-4.946335469110515,3.2295329319634387,-2.0221106519997796,-2.6987960657881467,-4.92501009737288
0.16049756434228635,-5.992926607770683,-2.143592326237172,-0.8430869835028245,-3.2433768841714916,-2.623318199888649
-3.0684893490908185,-5.898792721300177,-5.218634880565299,-1.9171651337251667,-9.095894078294823,-6.848951149344057
4.1086021430287625,-8.89333985537835,1.1917150882318026,-3.431483536806818,-7.34108400921881,-5.885708946769504
-8.383056446184758,4.791118937689102,-3.120674593277104,1.226469497691096,-0.40482557418732046,-2.167420667789186
-1.6006367646842838,6.766841076785514,-1.0595812633236852,-2.607665420140804,5.905231327219283,1.449792706354807
3.0612460533082433,1.1914378531382193,-0.04326569807614078,-0.9932783851925537,-1.172449192376074,-1.9199853453269216
-2.809690828009858,1.5102642268201842,-2.7182494542582374,4.967045891683392,2.8544318299137537,-3.33220866357673
-0.9362139148494109,-13.054342965662306,1.4025786230993833,-6.15435880608241,0.4380974772483094,-1.101010196089247
7.930241921180082,15.062762829183123,-6.065214493071583,10.588325000507766,-4.7905829580557295,0.8370893954161501
-1.145350619416034,-1.3073003299074015,0.4960735357033661,-3.6084812948869263,-0.4476770234556537,0.53842661287427
-2.8374931374178347,-4.020120912740072,1.2386065446403247,-3.141461739829908,-4.377913730335736,-2.4938530552932345
0.24863833396763613,6.31523956775388,-0.06660998779388372,5.520084762246502,1.3043156046082793,-1.4901375122757647
1.6030383352399458,-4.280227579609948,2.0507116388657254,-7.449082870708187,5.489503327863884,4.538494751191003
-5.280727692027544,2.5517508331459973,-0.26860950535412487,1.5196225935787147,1.6606415539231905,-4.691257650328249
1.197812076044354,3.8494197220105266,0.77030587459672,4.48657460036979,-2.8444629390672787,-2.2428938749845795
1.4496045113354907,0.527154286376045,-0.4187354817818987,1.9083740144320478,-0.3464913485069645,0.05256224162297207
-6.809046242979401,-4.103257982631796,1.355720209958097,-4.630513947241504,-0.9918209985751938,-2.9127720271928927
-1.270628166659785,5.0141769488837,3.351801533545509,3.776364272953801,2.559317694326662,0.6008221143719377
-4.2414135758884175,-6.97538529129747,2.517741274269404,-3.441070862504722,-2.6084434594105,-2.6954849519945054
3.125031359292494,0.8072645563361273,-3.49449287701766,-0.8652404864137813,-7.962753661754402,-0.007791611598425979
-1.1485493499037498,3.5003996727770024,-2.5466625229696493,0.17545421641303038,-0.48063350939476823,-1.4784752970138266
-3.7689643363631715,-1.0840144313410016,3.386761666526155,0.4009124878559408,6.183651786026072,-1.2057405668404044
1.6630643285438917,5.362182213059699,-2.5807129308839385,4.2122229131099065,-13.399308545794593,1.0407176121510868
-6.027051697555443,0.34674920784502783,-0.3454183928659237,2.3568448675214952,3.482572537998595,-1.336089136712591
1.0197086944050024,-0.020990448361651426,0.3475882158179991,-2.440799057433328,5.2463099246522376,-2.301498128895693
0.4806714206969559,-2.267958922119503,0.9447849921465161,-2.4414449251826285,2.250043738795534,-2.635940157196324
-6.515088949149577,0.5570905246278759,-0.7486545288289084,3.6535102470531027,5.134938799462951,-0.23789446946532067
6.4814151898097005,2.344820810253638,-4.446396507603903,-0.07250709303830583,-9.083826477811622,0.4596101480644206
1.8389232235457285,3.9543320850326347,-1.808550764862436,4.864741025291118,-2.455433202841686,2.0325261807983015
0.8929159780772435,-0.6952109127255771,2.4861998154459455,1.30767752857205,4.731851778981287,1.5521140255246553
-0.1552661869722729,-0.9770342644705458,2.0802599041738583,-0.3346512394862142,4.069618430674602,-1.4463874940137902
-2.5446660861770933,1.641823711929534,-4.484257497608113,1.238798056124999,-4.191002005584587,-0.9857923885470109
5.355426639749686,1.580886521404355,2.871928977398735,0.07083120975477675,6.573601965779432,1.6593399157176403
0.8677957171247797,2.5011334032705688,-1.2766045725367787,0.7423406422931815,-8.126904342585895,1.841509757588754
-5.4169239253045784,-0.1865322582634268,-1.6194269679891784,-0.21585491439407845,-2.118996664560732,-0.9645988336313448
-4.781089084868061,-0.1813503272240512,-4.168570290493832,0.18109397914356112,-0.921842360911739,-0.0074851406180237445
0.09165145635337324,0.5404568204170117,0.09215175722039737,0.42716024800866315,-4.250873782625034,-0.13990741799123885
-3.5138777473901515,2.486848054035873,-4.924669205718395,0.18503445247365746,3.8524569093510133,2.0493444502250986
1.5389661576241545,3.9277404083116925,0.3087850317831069,-3.285520312536454,-0.3446832241977944,1.582290084263803
-0.45290256367106346,-0.23396960533006933,-0.6611667547945164,0.6773204109533808,1.6562650874166955,-1.120257233270598
-0.45066372743910266,-0.431297996301649,-0.022320476965194708,2.356285395447895,-2.2333751260880232,-2.8383699701057274
3.512168013052272,1.1031544179331483,2.4905669505888097,-0.8162270040125977,-1.3698226763800023,0.803617107453655
-1.842930037001991,-1.2271692825027216,1.5107822052589766,1.8526129558728242,2.868450394013313,-4.912117329426575
4.086723629727972,1.2950228361085645,-1.6310131195724673,-0.6826756941398484,5.329577303102736,0.8508724306982878
0.8884239972510732,0.8802421525718126,-2.457202852510996,-0.6472685898129041,-1.8335889936912888,1.594974373010138
-0.043858554371480174,0.2711012737904366,-0.9959439392624408,0.46121732776430185,-3.7023622068359407,1.9332831427639432
-1.2302152889357831,2.7491303127296227,-2.5961062854519152,-0.2912962056608347,0.6139345101113292,2.726551884199748
1.0503048921043183,-2.0574319926823543,0.14410535234180877,2.6636528938965673,-2.0063392567200484,1.4885309675024032
-0.9910065171729032,-0.6474160940939614,-3.240267681330833,1.3877233271755065,0.8613481179600566,2.4057480472217296
-1.1068693347153156,0.16505160605001346,0.40918626820042414,-0.6136503144799064,-0.6633007988682467,-0.5335014018810513
-2.3439108994455053,1.9358304546868872,0.9484944555670984,-1.7623694636802165,-0.8425631651802981,2.712862434498014
1.161628357983336,-0.20811620283047888,0.3664230279918959,0.2140968906332157,2.2637272029174893,0.9914472212783514
-6.512930795594123,1.8806925428257706,-2.2857254093999444,-1.1981616139415303,-2.542239352805605,3.146935120868782
-4.677438381852813,-2.070183138942425,-2.1738883850495165,-1.8107211604344433,1.2741856559722544,-3.7757226707257208
0.8483410197514326,0.6009554082802875,-0.04222214076974318,0.4688939358868215,-0.5138895483160917,-0.836879761224066
4.4301395578380625,3.317704455227913,0.2422698161455128,0.440469937096777,0.8521063089449383,0.8509550129274543
0.5744712479559858,0.34224413462369335,-1.054027271879036,-0.22875341973515229,0.2745634845175393,0.8976109667881653
1.2991426486684585,2.3182629386312676,0.35639813825695066,0.16968499593468117,0.022278690290978176,-0.22787128293274544
3.8345990517333925,-2.0830687731267137,3.6254178615961195,0.9350426180172011,-0.4439503276944208,-4.604101351451853
4.029215312017713,-1.014770450740843,0.6026078607305682,-0.780975319388349,-1.939507474079497,0.6283518951382723
4.59250827498556,-0.5435464042375108,-0.5669077293904184,-0.312676610342143,1.5593982153959223,1.9249716868837863
-2.605068663846623,-0.8037315947070551,-0.7351248204487421,-1.1364581780593785,0.015673106693018468,-1.484981362865323
4.633447235777396,0.2871705259233904,-1.0223887492653674,0.27346718917767115,-0.3209250517242196,1.5967723702867855
-3.628059746065206,0.9935488215351316,0.19405155720641223,1.4574614988497494,-4.139629109846069,4.743633872028516
-4.207667007680563,1.5130629840753618,0.7536960318213717,0.07865385501002792,0.009038872836046707,1.937475465385196
-2.4533746873957902,-0.534117442998729,-2.05000385746613,-1.335936749156271,0.5695474773169101,-0.07225050872207688
1.5416669010588029,-1.283445217502544,1.2397365628488795,-0.0048777800726230724,-0.24594743190216556,-0.6717522653891291
-1.1868853557498409,-1.1751997040039828,-2.154500088895146,-1.5868486201514451,-1.2437248095957776,0.7356258264272998
-3.7500875015317297,2.9406223929205755,-1.6926181729905956,-0.5761070417266133,-0.9433162792004561,1.753636656091063
-0.21150959368025912,2.0761184788138505,-1.097869562500856,-0.15214219903272974,1.3021457363344076,0.5157670581714973
2.016953715758749,-2.0050277633172535,-0.2696475262561562,-0.36462856211762823,0.40372585385763493,-2.6431513465755545
-0.19806309484707801,0.7794050295608135,0.10397643024538195,0.461596694661778,-0.9726912615569367,1.7663258209174775
-4.805364699591446,-2.4393557147356133,0.32969598006167045,-0.7956216013051534,1.7774584489473249,-3.666195058424946
6.284731073406455,1.019963853412551,0.3101062031809707,-0.6094908622322883,1.0615118880689498,-0.5763729231582353
5.7383348525951465,1.2075430416922273,-1.4267630513508225,-0.4774416911229483,-0.8924656717861573,1.5275813393456468
-1.3842419768977638,-1.5121856842266281,1.3903563097010985,0.6697386355459243,-0.34446149438276163,1.2194381538044998
-1.4836563485756462,1.4202515346148816,-1.3437550819457331,-0.28788391941444835,-0.09312491569617959,0.4478086964720954
0.3397934336649717,-0.6534975876630076,1.0241670036494948,0.40667227993092436,0.9045249068492971,-3.0207053677076554
4.861402495647402,0.2983667388916665,-0.01284688261562883,0.06271739082536369,0.22753768985357442,1.2204088751973083
3.380426295810397,-0.5564927444949456,-0.5594301672232438,-0.31488333197812735,0.328836234702633,-0.5935428391565284
-6.531460324512821,0.2487950920439591,-0.6444883826194889,0.12735960186858986,-0.64414438204891,1.2658401580386387
1.9365501156567984,-0.7261754462835448,-0.24530994160984626,-0.22348397854280555,-0.49011050561305103,-1.395183295112628
-2.3466079770449686,2.2073697191849866,-0.3425892071275508,0.3442583587867405,-1.8930818495388373,3.1134527595808708
-4.8105808390194404,0.41623699088894284,-0.8405203235141161,-0.46711273985365703,0.29977548665677567,0.28236590000013617
-2.4528766783234333,-0.6312729590856976,-0.20116512674763426,-0.27671044267308315,1.1198358170621945,-1.1227878716643402
3.135087337825601,0.2951788934790079,0.1002074013193682,-0.40220582724223075,-0.5037100217380466,-0.5138644075154435
1.7783428146761162,-0.590175328692002,0.7045535972805939,0.15157452124941448,-0.4069603287228986,-0.6835167152190035
-1.619831201147252,1.2538212666050912,-0.10767646378193046,-0.0789409224524579,-0.3443659726823488,2.43964426461128
0.6608902352980088,-1.6132115234159556,-0.6344605164086157,-0.37042532619919866,2.001476108047544,-2.999019418063678
-1.0927689015086055,-0.42255032924670055,0.0762053341277541,0.38154422167857915,0.21293618587700092,-0.8908281867313517
3.2353367602735688,-0.3019171215197022,0.3301344231740767,0.23524013086319207,-0.490522951284175,0.21056396888694773
-3.749929603932026,1.0192793359471295,-0.3023447387703253,0.24447491634998678,0.29082465174258265,0.6423457070637896
3.515356237188178,0.7585888899395898,0.04555413717229717,-0.2938691735838547,0.3951131645176944,-0.4890073621395301
0.45470297171071294,0.12365383707471156,-0.03640578154610927,0.17292272174287365,-0.530407273322083,0.42381252719296025
-1.1591045222752796,-1.0726561415716884,0.07715370139790739,0.05571385177746893,-1.7110712968682122,0.43626260387305305
-2.245555900014332,0.5497793878265774,-0.2537927015119322,0.01505246002431633,0.03727544908060265,-0.833326487698309
1.71265208633094,-0.5615733070445592,0.47896997910173356,0.2315403173877777,-0.20951331853161287,-1.0299418195192027
5.967993551365084,0.034158486172769065,-0.226216909567108,-0.010292934966275036,-0.7375417927258296,-1.2563986507570992
-2.1088948433523136,1.5281421906397372,-0.5999162082044539,0.2984027628816934,-0.7883049433809148,0.34897171643966907
-4.631395911632626,1.1936970145538905,-0.14696540403890274,0.36794474551252065,-0.5840242750886023,0.6992494697910365
-0.4385200193099242,-1.0662191467463549,0.03779273973294156,-0.09038762542103285,0.2144209281349405,-0.5301208750128044
0.8890520155836193,0.3006116389156825,-0.2799675285629818,0.027016723247147628,-0.24552495954874845,-0.29898925011344146
