Gx,Gy,Gz,Ax,Ay,Az
-2.5532970000000015,6.881553000000017,-0.8001670000000045,-1.8780000000000001,-480.654,-4.950000000000001
0.9902511753443388,6.25378467358839,-2.471209555735107,1.1948011237281762,-0.7396508585045056,1.9972226086882343
-11.773427610460113,7.4944080763573275,0.23746247466046003,2.6670481398426475,0.07433209027493334,3.2566657636643708
-5.040245050225802,22.435843158845287,-4.448976472013711,2.8561754837090056,1.1704683375127076,3.3142557988032046
4.399458041230827,32.18337851316602,-2.246987600427773,2.677889544738228,-0.04951416383693455,1.858596530569785
10.117382040170966,212.68101989881288,-55.59287599830415,-0.23234202533628012,-2.233017619612909,-0.7744062964577818
-2.8872416412171926,-14.910236329583624,2.477310930285965,-1.5723908674773246,0.4049169769604105,4.3311058968038
-3.0694116704075736,9.536376660026843,2.275482608764718,-1.2415261866654914,0.918654046976249,2.958643440140912
-3.8033136287968867,-6.957129826655025,-5.5384683497395075,-1.0320776039998256,6.472685341927967,2.272226699203503
-7.751553425846097,-1.4366593560478282,-5.005136277556671,2.0149510236193167,3.0454903860401643,-0.307450801978721
-24.82449628163114,24.954179682422424,7.973605321785749,-1.6473649728121853,16.482342861882877,-53.824792267288814
7.5502391051886715,-0.5645367336296399,-9.597420848159459,1.8974930168780304,-6.173338933257997,3.1952492488837487
5.942510496885555,-13.853498677651746,-5.409245713073842,0.7653180778158257,-0.3900432213325091,-2.5914181821278413
-2.922443861215582,-5.544567796772764,-7.63377149861245,3.3795544926490844,-3.7021949403183716,-0.21300596138778127
-1.9179096541008267,-21.36649331189289,1.831817572512873,-0.8831583133992436,-1.7038546766776286,-1.223912821639702
2.0864436734165484,54.55105583503661,145.22501542168587,-6.955153812957632,5.367117577706061,0.24592215599729572
7.418111612612718,-29.19201095060461,-25.99400815261118,-6.701261401037204,2.892945673786093,-0.7576236086280362
3.985404247957522,14.233623794953594,4.45407455231389,-0.20750596655040865,-0.4909571634743304,-0.3906560060061595
-0.15811835408489605,10.063993939372924,0.8358298959399719,-1.5918430325403632,1.9351873461575693,1.323640666302078
-0.12911281675463293,-0.10690438601877264,4.268747708963459,2.8049060684048133,5.229842891475118,5.930539321569358
-42.757306497042094,33.618127961968426,31.594428771885514,2.270715877472881,-4.938812359201009,-5.1063745226585056
6.200578992350037,-4.288618871821283,9.754511832451595,-4.366987757824749,-7.30717425521478,-3.7612604638652276
-4.9640257405431445,-3.1561641250956542,3.2637156942316716,-3.515855906766449,-8.677475035360326,-4.720065416942951
6.806546706557223,-0.538344256936413,-6.1403835198794665,-0.3270727074867765,0.22449850946968605,-0.18762556674969585
-1.4408152584256069,1.8397228868496445,-3.0731147279838478,-5.1151844876392145,1.111453857489156,-1.9392370756057808
-4.9005064855095615,-33.47721348918719,-18.244837840253425,10.258081660532525,-1.3141263232372218,-3.3993954645317133
-2.839031845022797,8.289431380655833,3.6377640816797054,-0.9410160602673621,-11.374388581584453,-7.671535489698819
-1.0800309359566689,-4.277053338810534,-3.7964246943407804,-1.5256100233312038,-2.1768470702483174,-1.4615735585231837
13.844395364221434,6.959722655845471,5.470997363054905,0.73921385300818,-0.9960716843682205,-1.8254600325340269
-2.0715987878790303,1.2446187119034338,-3.9106119710224037,-5.065013710438823,11.258457747659541,3.4345763485169316
-15.315115410699438,-8.634644682373303,-15.869530144112527,2.1103378788066007,25.231989412562488,21.589502894878642
8.141971963529741,-10.372966132671927,2.832824286461383,-6.580787768999677,-7.826813513963598,-2.168923603551923
-1.5963137086738906,2.91658510717004,-0.026269692406093448,0.3757651503666799,3.8034211267145244,2.5541635415057757
2.661428387685481,3.4303471401719623,2.9301787448158083,0.17969980012459064,1.9468582593011106,0.017623475977243674
-1.95665084342705,-5.581024298975522,4.79847079789836,1.6269016786307544,8.499408964745014,2.8311226069726656
2.353634802559972,-16.031860276984837,13.480934535782705,7.1089657394817225,11.753240700478553,0.8332664734849797
-6.582970693096872,15.558549445092408,-4.997081463571295,4.246856051709251,11.228162048640174,5.192070164395291
-2.110309301969,-3.9259099749885626,-2.830147558971327,-1.4855637560363593,4.089621610750791,0.7270941146677978
-4.853504112778108,1.06670849322831,-3.584490114263964,-0.6457236425184714,8.50832174537598,0.02774839340992319
3.480443294057895,4.6637582914839335,-2.799788358646518,0.7005154808116387,-5.106717183925516,-1.6354472869102592
1.447324142680138,9.084454453182342,-8.10495748018353,-0.5215308473503846,-28.09680858482103,-3.5882315454544353
5.809359807021664,-1.7779458416840215,-8.09158208574551,2.066822645513319,6.988395215660627,2.5697487834886648
-4.119368297197319,3.2079350720526323,-4.9701745235142365,-0.7715402567000529,-3.019820647313094,0.6311033675426908
4.339752721128489,4.644742196695616,-0.03936401248683996,-0.5768375275093813,-2.1851049622411436,0.7166380534908918
0.7748850439381134,-0.8371512405939283,-0.43561422263906957,0.9580472913732752,-5.174929584634116,1.218791979226178
2.086080903541127,-5.088238603251783,14.00688889241696,-0.24141419240192463,-15.322541336008879,1.0172723251970566
-4.910731619826934,1.7854050964624402,-4.652822880451163,6.280260943081661,-3.99703205358021,-0.09332090610189181
2.6968260548102703,-1.0981164175923053,1.4511689317709882,-1.7092205350173253,-2.4300053436938955,0.9903329257806818
-1.6474405429826626,-0.26367179536263685,0.39602028381757126,2.000531558878878,-2.6071791695595663,0.7192132556425497
-2.695994970982743,-0.7418405845685281,5.032109151502547,2.448330488769109,0.9954209459743706,-2.7877092212511263
-1.5785708501050753,6.698910570885246,-0.4564273458485464,0.046489026936082395,18.67474632744195,-7.896007152431206
3.645155206654885,0.8928156109962915,2.2105237897869916,0.8787466958452675,-8.590295909409306,2.664419720923651
7.536305162012829,-2.377710114194848,3.8019449860463577,-0.3438777668019656,2.855730792519246,-0.7978100744685446
-4.21250110616362,-1.1335602575079555,-0.38250206942412857,-0.06263729792055217,-0.2706794421400165,-0.38870493196920186
6.759679008922468,2.8101140492242447,-1.8713106619871671,-0.8707871778192109,0.7985567541042287,-2.458992044939066
19.527909421455178,4.108844410660421,-1.936785659983384,-0.5567907134063594,-1.6044856115653179,1.232093930733078
12.800174890171073,-3.414221445125964,6.332526111068322,0.05696145372446393,3.8119361887469614,-1.0228218521697552
8.65414498896993,1.6528408904110803,-1.108287375558023,1.1224507551018348,-4.839523432398941,0.9515347346617498
8.035493079046146,2.6274162688784157,-1.1043091842557708,-0.2213757416400368,-2.549442732951763,0.37538145611804047
0.9980730075083213,0.8256958187932624,1.0027034414460407,1.4664476009431096,-2.3713592004992536,2.263129326341694
-27.648080580398737,-8.46502720227586,7.968915889779155,4.3173814864830975,3.3741559882449774,2.106811453833636
14.038077579078948,5.272106812119434,-3.932244155359501,1.4779848129379451,1.4849270462390143,-3.4131260185790877
-5.755933835297045,-0.5184399173676675,4.391448947044527,1.7339700189150946,-3.387903475952752,0.8491707582696367
5.2336262406698495,-0.14665641453431733,3.112507888391006,1.2991540369390568,-1.821501106425088,-0.13488773209873672
-7.691955968220485,-1.173937106610258,0.142635563482854,0.6171870539926374,-0.7099483615635767,2.42162290923355
-3.4364355452427127,-2.4503781889804603,-6.680442207558628,-4.61671848450458,-0.13690894650318874,-0.3968038010840309
-13.02969519693038,2.2125940474172308,0.7147548336131528,0.8743453365398914,2.7480056079134605,-2.7282841700538802
3.0320725673374453,-0.6015363019428119,-2.6833934323357944,0.1058421912218821,1.2266552665400634,0.8303170526571925
1.434870942178582,0.7504287224048818,-0.40541681775722194,0.6789052423843811,-0.5061640573153325,-0.8414499110078081
6.76792126301875,-2.329847779799784,-0.5654991730369814,-1.169896212100523,3.0473071176286792,-2.113043557021839
7.50446986338031,0.8886654851247595,1.2276304451912035,-0.8950393265681049,-3.4072804963369023,1.5661684559206561
-15.863657274773573,-0.8888576631964538,-0.4736617420889292,-0.27732205214684724,1.846498940153981,2.1301108050358892
1.9863546082607808,-4.637600164661869,1.0523333679917513,-0.8680714898448799,2.950503527028495,0.2069449615759854
-3.395768810490563,0.8147941541900118,-2.1326772197002595,-0.6695143250854814,2.346661918790778,1.3333954648300748
7.694419665062137,1.4235034147570396,-0.024518813209944312,0.0675966926616468,-1.2812814583004997,-0.996462980277127
0.36358129583123233,0.5031386623202465,3.8283889988119677,3.2108466273351426,1.1134398598665296,-0.2334295492371652
-7.424260847540095,-4.606299568874061,1.1386560968742265,-2.161107840788747,2.6253192351140964,0.4148226767642732
-3.2972117802301986,-0.6549885906621383,0.7936309750713321,1.265752880335506,2.740464941877699,-1.9624668591631311
-11.130374300947032,-2.6730052470379433,0.92232016750652,-1.0771517356795552,3.7071932617110166,0.022367440907941794
-6.454855830284667,1.305323860709914,-1.085735656150542,1.7208393360686054,1.3989854712850565,-1.2009221464482716
16.130360174093745,1.8751486957660264,-3.876013064774551,0.8884818696618393,-4.147411121053313,0.28638689235663617
4.988556948995268,-2.342799311840591,1.3997226761517096,-0.32284774020880025,0.25715777525900785,-2.0080436454077297
4.652812597977277,2.1766149106324417,-2.9905129261615033,0.8139558894213139,-1.9260410274542004,-1.2028573586605487
0.8074080384077058,-2.548055203543118,0.5524240568735376,-0.9942422866539579,-0.9102423942591369,-0.5104938506983278
-1.180203219139421,-1.1969106230314588,0.6475377249416008,-0.05527246928402785,-1.7996601539126478,0.8720993712897409
-1.391742463160603,-1.354893493928044,1.193791869088774,-0.43105290397944707,-2.676935960794818,1.4172965724073499
10.301363424115866,2.8585991747450277,-2.884719924684548,0.670493618700089,-6.510002817852044,-0.5693467067883948
-6.047752683382578,0.7391524184724624,0.4485987970184277,-0.0314325005671674,-0.09804189704842148,0.14807734503812636
4.579237926124262,1.638389594845996,-1.4353894846844972,0.8905283514040115,-3.214039222590907,-0.9316122603446736
-4.130427387869405,-0.6997195515498604,0.6313779365285009,-0.8024606279542604,1.2810807730916185,1.2402133717786352
-9.809199963376745,-2.3227561441818603,0.4664988652171844,-0.19182791017242368,7.617521403857996,-1.7246111634955397
-0.5706972868274427,2.2622998802171472,-2.071251905783787,2.006810778577549,-3.597732095708369,1.2629304303870657
-4.002809359101022,-1.6668309918180182,0.2500051431358843,-0.05404334337712313,3.859218926543146,-1.99527141407232
-1.6860859924468405,0.6461588370416602,-0.21593339804589343,1.0378507974653797,0.24039546827447672,-0.7458094388580891
-2.58738439030293,-0.18960332259680768,-0.20301396831170204,0.3513660389407435,0.8510280298027584,0.5246458156154564
4.507698917601925,0.0042738815294214305,-1.1493974743515327,0.047934966870666354,-0.20036616023210563,0.47292533763928124
-1.2103469939957126,-0.5593133501701845,-0.21199799423467208,0.46743840624392885,2.017794441346157,2.0934478418382607
5.771051835758154,-0.2081909020559266,-1.0405989252011265,0.45355417527999314,-2.5175687971723626,0.8110444918512306
3.948846252310567,-0.5573692611802781,-1.6456062110985519,0.6671960531869804,-0.8804805270059122,1.9745144915809414
4.035371254560925,-0.6189952459869013,-0.3805981324478097,0.1725439124762922,-2.662007251460948,-0.12187594687551762
-3.229570609435275,0.3349146274406918,1.2472297312789866,0.5142394675131484,-1.8800792185530262,-0.44478489788504516
0.9322395795571392,-2.3443306735374403,0.05540812640709733,-0.33149896912233456,1.0985528304949064,2.470199244619616
-2.6510445715036735,-0.026937602687414408,0.7070726834572243,0.2833222869659423,-3.0100740412621163,1.5774558714587836
3.079527202722772,-1.7813937767440557,0.07587724258947098,-0.20266012839894473,-0.9757069654917986,2.4605221544110476
-0.055073870289038984,1.7593508687186965,-0.5992123739112847,0.35961477763290217,-0.3413076496494998,-0.4649801261218848
-4.048693270109646,1.380939648540795,-0.842412566418665,0.2950558926202016,1.697203254445343,-1.1019183346028099
-1.5212303477433142,-0.4332675630896128,1.1866268963379543,0.7201441773992915,1.2800345482056787,-0.5919044129493349
-1.8922978790475409,-1.8144829781096057,0.11097047463083025,-0.7549560646976898,1.8965613856111543,0.6156611342614912
-0.18777031208626505,-0.21681078654184072,0.9472734736124371,0.15032179530498807,0.8120834916710251,0.43668271038951856
-0.5469567688651475,-0.7201187618409333,-1.4975666958290281,0.33616965815804256,0.4974024332876067,0.15044736153607952
0.671217903509489,0.3106154147695954,-1.3748021659530254,0.4255931945946705,-1.8581243363021018,0.22881917641711347
3.484950692031621,0.17559941080624242,0.47295091668048206,0.28248469258181474,0.16433668879846086,-1.2240681195535004
2.238843461076378,-1.4396888035743596,-0.1873884313354131,0.019248546206374367,0.7624247125272284,0.5179733074266463
-0.9455520165698368,-0.684983647054294,0.17139075563050216,-0.10672179096688827,1.0867572921521673,-1.3389698015359803
1.4996875568778307,-3.3967249462335722,0.11507512027500033,-0.4134031701509626,-0.5325519651782396,0.9012152350908901
2.5622191229190463,-1.5748365543341376,-0.3637939222718465,0.4704795545253083,-2.055045046910031,1.5012975966539552
2.777561695637753,0.07098241015229778,-0.07581543319366504,0.209160736100412,-1.9894784090457214,-1.1080974390220735
-0.7295311842016562,0.43237981810187676,0.8122931429661908,0.5142881883257435,-0.37806517001596734,-0.8182819126849272
-2.4114131911560848,0.31934151343670303,1.155351354725057,0.4300732581514528,0.7075126891886002,-2.057759036842505
1.6703553511773852,-0.7264820425980123,0.8987439390476981,0.12253143383777626,0.11277557258876297,0.7011987740881206
4.312324878792163,-0.7594989633585212,-0.3056644243412727,-0.37685153678188543,-0.9557131871381728,2.5269970011500478
