Gx,Gy,Gz,Ax,Ay,Az
-13.319324000000002,-16.024371000000002,5.0878900000000025,19.269999999999996,-619.9300000000002,-19.072000000000003
-10.767659311460656,-13.701875757019767,7.395431164478037,-1.623534485923786,-0.6807607772410935,-4.833323959562213
-6.982808525008047,-10.267238899341317,-0.046062064086609844,-1.4423722501339267,-1.9305492180487218,3.566447568063948
0.46817547520960745,-37.86621269518814,4.276319625866121,2.7761524634467545,-0.3879655214876312,0.4599036447764515
-7.849714699980252,-12.289006519784945,12.690654297673044,-2.1798024306442594,-1.3708172179594864,1.839304595720176
0.4278845201735817,-44.441363649739564,15.070114236633778,-0.12703937389293357,-1.0761899045978085,2.180817855792564
24.3803416706863,168.24821677030735,-18.640577070646007,4.61579078646642,2.66572220207482,-5.05223480386151
8.56035481176967,29.751015087021795,2.2712064520343547,2.076527860019443,1.3386885215956594,0.5757134924464966
12.280967073476338,6.867151256772177,-5.546987240254531,0.9475450915962194,3.034372923549233,2.056183566109488
4.842214552175282,12.825882297238566,6.826371163874588,0.9786147791098042,1.9967776985489647,5.837383527085941
7.706434462640402,2.64865492987201,-7.15652779320124,4.0147830563670865,7.147658446838036,11.05854183300321
21.62210201839906,0.546387290989947,-20.80000223060969,4.928599320625576,0.6815412292556539,32.688253942076344
-35.79398230843225,-3.956828138954825,29.444165228052906,-7.020008181671924,16.11251609445198,-47.797102644672385
-3.4006377732933686,-11.930956917254349,9.13928685045449,0.7525199230293502,-5.228653819488446,-5.495795838640052
1.4144045225207158,10.963891761556708,3.554495247193569,-0.9745972012636508,-0.3106529729774259,-3.3081610220060833
-7.155329088220793,15.515301140643333,5.960630663807722,3.030128087666963,-5.6732935980331405,-1.0973210596988827
-8.712647691001248,20.419304456920866,-4.8285000331592425,-3.146423311902607,-4.373711848415668,-4.353172255701278
-1.451911841537859,50.170221449157246,-77.17301300715673,14.325049916137534,-4.4709633296548095,-4.315455615853653
-9.435798955164374,-9.292363463929986,75.63086229202001,-14.866618011432827,-7.006105528957825,-5.281625021304539
-0.42064310816921857,0.7268274464154763,12.432277879214336,-7.1117055254066015,5.318998394751614,-6.733926212392161
-4.048709329573244,-21.654479562152503,16.298424813729568,-7.196794261096853,1.1637417813315964,-3.192801979432515
9.9856645274726,-1.3208024324685361,-4.4749979332131335,-3.1486344589103767,0.2620081589880685,0.4489833975975095
-3.101769245465311,-0.19731873289845225,5.62554243692904,-2.903481355264642,5.620774013955375,12.072045134905022
19.976796613879998,-44.4977128149262,9.657686702919072,-3.8785131509103143,5.184304927544833,19.59841077009204
-15.90164067170224,12.8356648205616,5.126512861775009,-2.261290043653089,-0.7208086509878441,-1.594750137701205
-9.643064411322378,19.459791667405995,6.577290489402234,3.29328024133466,0.7214458388552154,0.16583784032881796
-22.449666660362425,15.682972255572997,9.87376206659736,-3.818767011293943,-4.621401964080594,-5.570325315889859
-2.6707891869907163,23.874165803354018,-1.0485350904431803,5.36901819315611,4.483513159567074,2.851765782680731
-7.011274519346795,19.744223496577174,-6.502782411393842,10.238232358523124,0.8680090792093367,-0.2559258728194064
-11.573602083363152,-148.17984864440075,23.927743129547096,-55.3732162913263,-8.10897384603803,-10.466668512452873
8.027951540612097,0.7204294986384223,-16.463877204431427,17.01062848031875,-1.3571613193362089,0.08457260760472796
-9.557329034007761,14.912034062897632,-0.31456620656201517,4.554615476077571,-6.671442724815134,-0.40782460615031446
4.196528971841357,-9.73466350623544,-4.640266159439883,1.689571368626234,-3.2930713927511848,-4.940599339774155
-11.06928958743093,-12.164572545916865,11.59892015267275,2.0251104022172255,4.805655163555061,3.097719843582283
-7.150899125953845,-16.010489166456004,8.982678701042097,1.1175660915532264,18.94324704643786,8.393727287210982
-10.635630618520613,44.17393491864857,0.7523157955132844,-1.8526299461911067,-48.23404109752111,-26.876517501969623
5.067710097632131,10.182429071876312,-2.0910645366523903,6.6179710984470415,4.628202321830688,4.206035234991967
-6.672203052462802,6.444786822720328,-15.35517263985555,2.110073686482567,4.202391552596689,2.319293901446545
5.411865291964208,-5.66258599934298,-13.243174050396068,11.694615132431561,0.9517411210635425,3.2416997544495914
-7.307081259437819,-13.426049497541808,9.082809106676308,4.868154383071408,-5.074159807697812,2.0786163477420443
4.92273134478016,-42.52267386446307,25.34139306700392,-6.591922028618199,-6.625673947929084,-0.007825038325062206
3.8072700765730003,83.558388516551,-27.566601628791396,29.93886127327307,3.1783198867427735,-3.4172182088921637
1.7295505246830452,-1.9125049097429043,-12.474961274989765,-11.66833781321669,6.604043377608228,-1.4450712104113204
9.340598066544386,-5.053657327173987,0.09313733663250012,4.078078564617908,-5.281923328753134,-1.362081505052401
-8.222606444797545,11.164032792832796,-0.18061129847780144,-8.282546803789451,12.954062709664798,0.6371590670146163
6.589330446854821,13.089243962609466,-0.7798860353195733,2.7950854788417887,15.066877097440058,1.8943286243433066
14.535675302984696,15.853425304792609,-17.0891789291045,-4.836232150540151,-8.963912010138504,2.8794144669533983
-12.64170629398554,7.445001487262103,14.930562931512307,1.4167360135620415,30.44629969311409,-1.4526888285313737
7.330024137720654,-2.8053569736762176,-3.5608746414847836,5.163404205639677,-2.9104808180673625,0.08623965305084047
-3.8292075365930502,0.8240911681015355,15.567352090498233,5.624180511346777,-4.018501580343205,-3.2686018958411633
1.763074229599324,-20.5873938597935,-0.7112112376568422,-2.5528949239822745,-3.6566561431155353,4.144457179586414
-2.86447631425167,2.6839925121053527,5.598695405191057,-6.113153927052433,-0.3648591961699932,-1.8274793886778946
11.51673052457744,15.374616013670842,13.249487692004504,1.3880947009218731,-15.212376059134225,3.479468690150587
5.265882953271244,-37.69406485944825,-10.636035636030709,-9.582034160788599,2.3289052797543532,0.9180332898514643
-0.30348795404237094,-3.9375305076009486,2.115850958337167,-0.8302095281516984,3.516251582501981,2.753110980403243
-4.837128679494575,-1.3420944978730063,-8.029031833422604,-10.883727796681214,11.218716713525184,-2.3856953208379386
-5.064419183788131,4.995538451057737,1.958372242944818,4.5997330207295555,9.452405969985637,-1.8729624100651654
-3.0392985839824256,-11.076357496018307,-0.18548670487636576,-2.2771628258065135,-7.899224284544433,1.746190557683788
4.270218524959538,12.261463225024624,13.540728273212572,7.819613712688165,8.022422514010064,-8.999914665696124
4.788543476965969,-2.0766097263744605,-10.435496600242876,5.321360370229796,-15.169148795683112,6.289848563957159
-5.166905189485997,1.2239898605538517,6.836655267646617,-3.6198861627508085,0.687060865776413,-1.2059570471879424
8.388850063962053,-15.612303677905736,-13.706601770405879,1.8024649508012494,-12.420437081595239,2.962751222825601
-6.280151690479688,-3.722831481958579,-0.12460064116781511,-4.868568773432514,-3.90726957154672,2.4407631424625547
5.8259082709646615,-2.2897509434001835,0.856697743135336,2.461894294427271,-2.9922614943105423,1.4284130957463046
5.758913816155252,-14.10767256018827,-13.91138426374146,9.708954074878061,-4.163386348758963,-1.6274570116905491
1.4268842067722494,5.455886845000408,0.08751711420558284,0.9322399166862863,8.48341007479318,-2.322314514797003
2.121243441203272,-1.659378192462949,-0.7408796107004036,-0.0308033504766132,-3.776145296511757,1.8556959635278578
-0.024040802118966198,7.340999083679112,-2.5258285129171583,1.5770745958288634,3.6582145531152097,0.36288676370123496
3.3131298435483996,-1.7692294266278212,1.5326807118490295,-0.7825159136627144,-5.828621457165166,5.2799321657251115
4.577705139273876,11.100460432211664,-3.844483980997648,0.06275207018866169,-3.0016907834439293,1.3164775797977097
0.35797946895359356,-1.3278551159494083,-1.2240895010678954,-2.0663743803795667,12.209854576372587,-5.267838431603416
2.7860732545391604,-3.6035510529476804,2.2312026424434706,-2.1619621112803253,5.604265842339411,-3.5538038212801015
-2.0008192234870954,-6.962912838456692,-3.42783417181902,3.443453244614787,-0.8524178114212795,-2.2867806568841056
1.6568204471232995,-2.3254471524630147,2.6571288627128187,-1.640920497211758,2.1995006205650127,0.6412010299973552
4.956153559061112,3.6448458390239704,-4.931360602471411,2.6636935201247884,0.30050485699944995,-1.8276711422983167
1.377571704474462,2.4156724220914763,-2.829348256104188,6.582448761850892,-0.44413581016577375,-2.28926835415099
-2.9926538987916746,3.284245441449034,3.347161937813943,-6.104643193544134,-2.4841046756208196,5.833145219770934
-0.5743687323062061,-5.424595335065502,3.9564578383384035,-2.7057997349901313,-4.1776048370318,4.1779699636041965
-5.161560163882031,-2.6930968888118656,0.6926754410649465,-1.59368358021111,5.098365377302214,0.056248065336232944
3.3201182780389575,0.24214118783771887,1.6789945921979266,-1.4517334004983433,-2.768744330053762,0.004384405835792027
-2.0250447535221627,-3.3104991108153397,-2.253660530030121,0.3797594315971675,0.2808873230981293,-0.9789961179522269
4.202223638731355,3.514020677319372,1.6644907515761656,-1.0712308627680747,-0.2918692033315642,-0.04275621814458086
-0.2966047423745506,-5.180136140448882,-3.193364469126027,4.7827861471176165,-4.3868867097085396,2.63496938984616
-4.534109609904428,3.0672574383634004,1.4992654284434395,-0.9604652408838628,1.0112918413292822,0.6468096600155545
0.08670329009917976,-3.0608742351390044,5.207987308301011,0.13419099994490136,-0.9616973372092943,2.441795946947492
-0.7718453096325752,1.736405991219995,0.1186759579039437,-2.2490901272916473,0.16332701150925866,-0.03006264701569933
7.806248131294176,3.983896384869137,-0.5287922261812861,2.221640302522104,-2.022521340672103,-1.2828792897512988
-0.8239822847429559,-2.028976811294415,5.767252904336171,2.467003505356257,-5.045518633048368,2.6965039160245783
2.5076651727087658,2.647279654334015,-2.3102719159751874,0.4428626227088609,4.249751176938503,-3.5793982974444796
-2.3395202507015807,3.1720544756870446,-0.9237007377368911,1.2783760854250141,1.80383076865688,-2.1654595913496237
-1.0011151392080229,-2.481681678492444,-1.9877528796030899,-2.01929646008395,1.5859713304612406,0.699825207413681
1.328620111641991,-6.710085843394566,-0.8940005556704662,1.028529944830559,0.7058236150322241,-0.20027718013526452
-2.7968371022951883,3.3969670218299295,0.08111092396596575,0.2710758360355312,0.35190075381454156,0.9829449013469262
-3.6343296478816685,1.9154742914603125,-0.1315196694212648,0.9920088266192888,6.296761630434886,-1.3219797333102137
-2.4303642963976486,3.9781660767092037,0.9654381601175281,-0.6973409828055164,-0.2369368659193628,-0.7015879970275049
0.7644367586692917,-1.280200964606745,0.2641426678549337,1.6933022051514284,-1.1109729951227094,-0.5863411310235752
0.3849978810871044,-0.11572703052051869,-3.7317218619697967,-2.454016966745257,1.321147646867157,-0.836922299674932
5.466259809320444,5.580937016589662,-1.7101516727072943,0.8409196439907021,-0.3329226006151145,-1.4044407477851868
-2.696426802004741,2.154543683716239,1.572584521390406,0.5783505345028641,-1.493409716413705,0.9476143498865002
-4.855363660430375,-9.905415083533072,-5.153191502574696,-1.177664514215089,5.160794190636737,-1.290033156393569
-5.72999574605336,-5.592468670607546,3.0885998860641073,0.8880747818038592,0.0032265421943321604,0.8354438576522316
-1.7495708060022688,-1.2591139209093627,-1.6703440913843657,-0.2879653968982334,0.6743384438218356,0.7657405425452547
3.1944943831316497,-2.2708740354628247,1.5315405051333761,0.920293079773676,-1.7620807930088713,-0.118669280920496
-1.1035190537074488,1.051329528923689,0.862912642626658,-0.13970705271821976,-1.1053750482654041,0.44583438139013365
3.054800915757247,-1.391716328570658,1.3866716318720278,1.0772757807303883,0.29159740376390564,0.18679285220206754
2.3480243048423195,-0.27510461541925935,0.22259855167390208,-0.7938738966399574,-1.850140227259261,1.4917678898846272
0.47110052258549606,0.3471568422732587,-1.9103590843426879,1.7039168176589308,1.7079718660547323,0.1203563297570231
-3.993792265699012,-3.7446965007920756,-1.346358451238348,-0.7405285032286322,1.2870518786549017,-0.2641456381385834
3.1276234007537567,-0.8486052566256517,-1.1376824542723156,1.2491623502369056,-0.6971908971080212,-0.08985814961074379
5.646018831588625,-0.16542375230709705,0.5672310606707303,-0.13311293936158197,-1.0343206882073526,0.3251779073511383
-1.2862027616622713,1.3517936706693765,0.40828695269166,1.034529207513733,0.8358923298664871,-0.8355336033076707
6.180791028984983,0.507010528332489,0.20254762972095444,-0.5431943885040078,-2.2562852455218794,1.5247241323209715
-2.7122283935819476,-0.4171160856757933,-1.394357387426229,0.12641506279613646,-0.6087108590109658,-0.6235915024221397
-0.8358114030735839,-1.3574637894511645,-0.1708497324443276,-0.6328527525373058,0.7315416969020314,-0.31710424568519824
-0.8034265866773889,-0.980671766860711,1.3378884835390379,-0.8768269435597928,0.1958759392084498,0.4816466261236245
0.18542630639609392,-1.240521583283115,-0.7428217474984236,0.9618465356210921,-0.292742486301375,0.7011598730973638
-3.798831159444794,0.6964142432077643,-0.634229688335872,1.0464549111924741,1.3619540561040377,0.05660209057937085
-0.5628401037051616,-0.6353269825579413,1.2326845857163593,1.0248425881339085,-0.019811668728342613,-0.6275182470356309
-0.23288775584543242,-0.5361910070312684,1.333234960400442,-0.12146122496838807,-1.7264054286023425,-0.3444160974925634
1.7982798565250502,-2.7640696693841997,-0.5600391051183509,-1.1322915852096052,0.5911092278109578,-0.12317492875767433
1.5590627412990847,0.884506496673553,-1.1494238149925684,0.9238604447551251,-0.9323952316180389,0.051423367133761375
-2.5215901575510786,0.151452488305873,0.3880307747808662,0.8102252092969098,0.1335878537677293,-0.009977482791566183
-1.6120910361519996,-0.697890378117926,0.7684189003283243,-0.6449315365912615,1.151501046512674,-0.38606566675549225
-2.2055290598192405,3.862977229909938,1.3103853040780538,1.4050175417364772,0.1658455170048217,0.36037786161441165
2.4172317165587365,2.666645572688526,1.0589369386772978,0.40223441835008905,0.6689574678476315,-0.2731470445584028
3.71204257167788,-0.9262347400754241,-0.37141583728572236,0.0839383072011668,-2.1088661224066447,0.8558078706798201
0.23554864843586554,-1.1353810265813928,0.3579922549505212,-0.15936969901520692,0.671771448386437,-0.16412579814037898
-0.8814673953259753,0.1296978019551419,0.006031189299202211,1.4930533422771302,0.6599197228094628,-0.7753426985430963
0.9107502893270305,-2.4226614498673986,-1.3474847171051916,-0.7789505033615968,0.25393823936641974,1.3560515982290666
-2.8253384330081897,-0.8240850270664968,0.3184272998492437,0.69986525479299,1.140220479988821,-0.5864853091100246
-1.7075493739240735,-1.317669967170473,0.1191183641520141,-0.010836714815948167,1.019254479819376,0.14719461438407788
2.4598164141572245,1.71053578153226,0.4716756883502292,1.462444625478462,-0.7700350022274148,0.04713482599769811
1.2757839821924626,-0.1134204834992093,0.7072462067876786,-0.31302735546691396,0.2954308467931964,0.10390934984906448
-1.7028880129035997,-0.714521326405432,-0.8109002320698251,0.9576885036104829,0.641752657702631,-0.1359150056835546
1.440809634668517,-1.9132686940882568,-0.1888420924251103,-0.7189346825994469,-0.44718160333567136,0.17466270060959938
-2.1846685917575015,-0.06248677365947036,1.1804334256232114,-0.04403991289372555,-0.04663962689842406,-0.04906621172413367
1.4451648659120477,0.39337050206588275,-0.8176432165696554,0.08742852211650376,-0.7738832365230572,0.9241825601421764
-0.6072953629882903,-1.4683683970024006,0.4102596742751825,-0.14038538743521667,1.2111772473399771,-0.15315021962087083
-1.3769894033268786,0.6145813255988131,-0.11570627795527355,0.8317786778718603,0.8793531499990836,-0.1924986002300228
-0.5668864592915248,-1.5753766472838895,0.22034448357697023,-0.3761193263082358,0.6320450800427069,0.19502043409840497
-0.1299559852377381,0.1344908757557609,0.31949606284053034,0.8482403553476701,-0.09015963068645405,-0.9210969130656487
2.9055209718855886,-0.5202524057524374,0.46463190708388535,-0.448981777194953,-1.4105432070837391,0.7836603353838939
-0.16068247645911482,0.3728356485279757,1.1736863058147602,0.015401652280641775,-0.3006166903541742,-0.4854139919780176
0.8787417169900442,0.770005700536802,0.05197753963513671,0.24718913285024618,-0.5369440777021636,0.9471469106693119
-1.6176961927605782,-0.7808033329220654,0.1013398392921841,0.3267894430255391,0.21282993730245875,0.35698833802514374
-1.0995099380713553,0.4305683966193056,-0.054779729732510996,-0.16632683203102655,0.10900716995273685,0.30239578120050925
-1.2413939412204278,-1.4464490124940497,-0.33874094821034884,0.5323404059772313,0.21406888436079308,0.34017400628443295
1.8680389845378218,-0.001137769295350033,-1.0127601355549596,0.5390109289676233,0.21761433576050093,-0.5938844698817534
1.8483828833310305,-0.3614861047344948,0.3672780173472031,-0.24707869926240478,-0.987736328744208,0.4330396938067533
0.5736334917789322,1.0464228343685715,1.3299926577044274,0.06146272351355664,0.24956293149454079,-0.022974459173783608
