Gx,Gy,Gz,Ax,Ay,Az
-7.533743999999999,9.996171,-2.0663020000000003,21.848,-377.48799999999994,-17.892000000000003
-3.5510657787042446,15.969830842351051,-2.78652218196198,0.7148443855142321,-1.095435931865767,0.28321877159160275
-3.3769636084356387,35.165748301692744,3.369044417888295,3.6526081063784717,-0.7512556630928869,0.27751399109763975
-3.030414491112329,68.99109962691881,6.078900176876305,4.535965508133769,-0.7461121330148455,-3.9366530062948515
9.908526990334025,-37.32974078027815,-2.8856365738402845,-7.063126335033473,-1.5784245690541971,1.9563857867087342
0.35403022263267236,-18.69615502100914,-3.520167522433693,-2.543804846668016,-0.4652927872546535,1.4108327856685094
0.9952342080101608,1.5416733549565667,-4.339088769433906,-0.02126624288869028,-2.7417531892635987,-1.0533176070674828
-0.546697975187037,8.141219378764411,-7.947860735231352,-0.723436335371271,65.05996681309308,-28.23081760822593
5.210182390082701,-9.222098833105814,-9.943060662277087,-1.8300114722667362,-0.3161024794656401,0.4884702534995572
5.953144574148158,-10.687762927044817,-16.952475145368613,-3.356193528055207,0.08581157876578578,-0.9381970143656979
7.617091369487999,-30.213408514520378,-35.4003249615798,-0.6417192863842193,0.5845594983074649,0.5973728227263055
-8.06361024290136,10.849877600487739,30.785436197888416,-0.8370607576918836,-0.19746974989978283,3.0322446819532707
0.7961358778039553,-3.0997164400348796,11.538654687742671,2.8017118686261537,-1.6013412805784892,-1.51375953192718
3.6904687433271484,4.058774097973188,9.297602629060314,1.802497953076316,-1.3702152088131303,2.49827212203682
-3.7933348917088288,19.875588864269154,2.797160232313071,6.839941515532118,-17.720666021943632,27.09982082200383
-5.675692586583327,4.981617561363931,10.330514796178848,2.7790967324011833,3.283468764930101,-0.7227262636231315
0.9202241107589264,5.846804483603975,7.219637631029478,-0.5574873081496831,0.23499853107960297,2.3804917781598127
-10.758448533267975,15.541675527451805,8.23978252621721,2.01058639194014,2.90664954214314,-1.8756945497335589
1.4884669745628762,-20.22214044094637,-11.194849997784424,-8.522634855978616,-1.5516572657367063,-2.4032764324068725
-0.2230870286439517,-7.254295670189954,-3.296829549444044,-1.7232495138240842,-0.4901121424593582,0.9723526093964285
1.1913949328143814,3.7211539334098966,-1.6962435851947677,-2.878914587325152,1.2483897267971047,-1.9999103720285891
10.489266129414613,-5.909925177708314,-4.851918187711044,-19.656718991048145,-10.703653539590983,-19.14287182050458
1.68382991232879,-7.646460788357291,-2.643480006481602,-4.408214675266349,-1.7513196539464717,2.347695879691167
2.541255876900644,0.5645602367694688,-1.4496651499469244,-1.5614419332932747,-0.5399159766709851,-0.24221412380874302
-3.8644027136291896,-6.358311689765754,4.032258894608269,-9.377804067167213,2.004419892118694,-0.12616423723719672
4.521889328860219,4.274186930258846,6.47152418283227,18.485688821585835,-0.28929251619100904,-0.6765198430488739
3.417059901605098,0.7744230884404603,5.377542930112367,5.802394473750069,-4.772234341472675,0.031637011199440845
-2.114359885359355,-1.279888365280546,2.9602873512159107,4.253332204041542,-3.876522628272709,0.5122383772887107
-4.273230643032226,-1.0637366038762535,2.3231669293154713,5.7634143654721965,0.610888618918475,7.280444765266283
3.9325343702500097,-0.9138423760739389,3.6251670441312798,1.6705769074298846,0.36883857182356916,0.3975766188390849
3.8218905494717372,0.38879872448987896,4.6221318785108485,1.8239614453296644,-2.9902547880006196,1.6960494526784378
7.82877879290441,-1.9865017284101019,-0.42723624273654737,6.357354563092777,-4.11819156429922,0.8934318837510953
-11.05205306797118,-2.451312804761078,-6.950780420166712,-9.414759922984256,3.858883928437762,-1.045606628450631
-0.23268853582653914,-2.4378307541899202,-0.5763018700739031,-1.3825817563664744,6.894702527606784,-2.2450212385017325
2.847846345839692,-2.268362483129243,-0.9743402557340772,-1.071798068230534,2.7240236929025183,-1.0584856788622268
9.89215632749319,-1.564839603419401,-0.5831459022788743,-3.1639941085953804,-5.225869439789697,5.074903738321978
-6.101317063153521,-0.654341869752562,-1.6793835792143796,-1.445725725698877,2.3662402342300153,-3.0213484560681967
0.07254989726411365,2.8772763151215353,0.5636149226384413,-0.19680594037398685,1.9486638382935277,-1.8583459702106295
-2.5631732161024763,2.611108361771288,-0.03829220123269339,0.28874161952802985,0.47454500489715534,-0.8765323189047849
4.203346988615249,-9.26979686763833,2.520791449452374,4.479931148247838,0.6663028560978844,-0.9725244963737893
-0.7061977865227802,-0.2358706779495714,-1.1234628803265074,1.536508417674122,-5.850725006368538,0.009543777551467514
0.34007450071361356,-0.23926812026469912,1.055602158942964,0.34195576983073256,-2.5231879543781353,-0.6868893992541105
-1.1464445801789427,-5.738534197330305,0.02727722753689399,2.376777568868419,11.224430313817498,-9.41799135492036
1.4662938659808833,0.25237291641515824,0.15551764951110592,1.0675971330994538,-2.6055318770391764,2.043970456504516
1.868587901108334,-2.039404863919941,-0.4729972666733744,-0.40249315364972726,-1.6198271051092665,-1.171435811513066
2.151545073005331,-2.9084632257437235,-2.209880565833629,0.4251547772298785,-0.5562090287950354,0.2919155324970845
0.3648048580860141,-1.6007829704462972,0.05024515819767039,-0.523756552217261,-2.102779275837768,0.23971980310714602
0.14762159523104113,-0.3001785522664635,2.770227655004029,-0.5053195317725908,4.20538139461352,0.6494924817866048
-0.32636350568461636,-2.0281744223170746,0.21266865820498637,-0.2776393972645368,1.0832603815036466,-0.5359765065302872
-2.583719892867236,-0.337639796801267,0.5623342441625652,0.32440668221796,-7.518450112505879,2.7733151791721333
0.09588332840774427,-4.153946711986391,0.06367821248315642,-0.6873644583253777,0.12389191219594697,1.0109549826811086
-0.2085393984482713,-2.456050635683269,0.707811149049439,0.08967415216234209,0.739970800998494,0.37227075532406584
2.4768592343230638,-2.691727311936326,1.212785562971019,0.5361561698281938,0.5676862031001553,-1.5647633375938899
-5.461485307933421,4.781204527157887,-2.169443851835836,0.8445026918207541,0.5849904570060108,1.3503951475353053
-3.7190704494897844,-2.7693784908191947,-0.6806506997731128,0.3503057026768639,-2.163197864485383,-0.03574283458875538
-1.8023915835711661,-1.5127371520047426,-0.07568726968433004,0.20949599952329467,-0.4541892464783237,0.8321249435256179
3.4000264795978894,0.21953327050463534,0.46821894482856585,-0.891658337188849,1.2845507228778108,1.356890455129193
1.6958313554040945,1.9383359880295616,-0.42784552091705497,0.534591891212373,-0.840296954840104,-0.5129325077517449
-2.254789412956147,-0.02893236460907289,-0.9030384019197377,-0.10115631914168932,-0.14170167973986766,-0.7351880909033202
-3.6374386939203447,1.922738247718005,-0.48423569042413683,-0.21516253850767564,0.793123372289922,-0.1593942852097363
5.430571597127299,-4.107958175935908,2.275831205387669,-1.170602991841387,-1.077930145419831,0.36800376965369924
3.027556696464834,-0.41381299952698686,0.8471680284513721,-0.7990859503017794,0.09371999212688653,0.15892274434564146
1.179081141932435,-1.3752088718979567,0.6579637563556859,-0.05047712440080385,-0.4037034157301005,-0.8388467864626046
-1.0759099999999997,-0.31958550000000363,-0.46871499999999966,0.9999999999999998,-0.7619999999999995,-2.418000000000001
-1.155771057120245,-3.5195944886583233,0.8914053496097615,-0.3766087385172229,0.3934702007418083,0.3980357598273183
-0.7828590649349882,-1.4575976366012433,-0.4107096871032965,0.39304807177181766,0.5053066319712496,-0.9159239785325782
1.446983331991623,-2.32633084375036,0.18639799104179863,0.02880955090720083,-1.0336254636556843,0.7090209767350721
0.910620778268793,1.8680160733178826,0.3900478823881951,1.0107940922352971,-0.8710148144325408,-0.37622815523050956
-2.4496354270474545,-1.4773944877819265,-0.8170274333590776,0.30601219865583085,0.12563772846235022,-0.017373385331378957
-1.1445728590053652,0.8927528416830803,-0.46351563979954635,0.3495756850958909,-0.13204569911828773,0.8302241432561568
-0.5082164680799419,0.47516394282909324,1.5791133315029342,-0.07125262074948752,0.2190419751808228,3.069594280090571
4.939122918298842,0.0055718868696548185,0.21955407213081712,0.19590947168737108,-1.2617078859338289,-2.145333162461284
0.6876361590546933,-0.1114894881249811,0.8709987758729654,-0.25858249984515,-1.0992221196251006,0.6617380227696714
2.2233161843402804,-0.3499091575125952,0.016208281629549404,0.31446584018830626,-0.6683597270480757,-0.8782323280668676
-1.6650823483374244,-2.527454533945797,-0.4124913889328411,-0.5505816913553259,1.2909085920744041,-0.43890048309718893
2.6398987448793707,-1.9926225073960824,-0.25939179656099365,0.051992532593253094,-0.46396583220683585,-1.1439722286121112
0.3398723604685907,-2.4204819595627924,0.68615983480439,-0.392648258146715,0.28574088550368915,-0.7820039214490855
0.6388668995038014,-2.876736960184716,-0.7419678480416346,-0.4791855786057213,-0.7124607531664957,-2.206295294608615
-5.718395959662236,-1.9825633864469565,-1.5513317771438606,0.4891596426867183,1.428838249562261,-0.20419086230599426
-0.8054165592407632,-1.1439802007835642,-0.30851524981607037,0.616342862706578,0.3263043447402846,-0.4136300617565508
-0.252694956965954,-0.4730656879094978,-0.1312967822471358,0.22490720128876918,0.12226724768817221,0.5541560820443912
2.546028335949271,-2.5638439651404776,0.3036383904516722,0.1470578578274706,-1.2154915378959532,-1.4556118853042312
-2.700381032681432,-0.5603892022349406,0.2840831690137473,-0.11487475423619031,0.010985885667753159,0.3200225168290888
-0.06098606589667943,-1.1338065719666102,-0.09986758871089396,0.2002307908823422,-0.7377864155141223,0.17965951133379304
-1.6320157853617567,-0.5007068486329249,-0.5630117947470072,0.507079153996342,0.3422664592071788,0.4683466573370942
3.8785881481169495,-0.9182788879964615,0.6261667148398389,0.053552251523692807,-1.8454729261213216,0.1776477571463051
-0.5500230175006815,-2.46623860113033,0.34569219418052066,-0.5670142297320921,-0.7418621272793705,0.6973554978607671
0.3028970470677015,-0.8889520029039577,0.03016346843691764,-0.6940308278616172,-0.252185774619333,-0.9113010241570763
-0.6628868755026054,-0.550433030431573,-0.6135529019677946,0.18514750926000167,0.8288190131009616,0.20989530780136179
1.4445649671503036,-1.3195344764016221,-0.11360176897548202,0.24230969476961828,-0.2795716503832182,-0.36921789427662555
0.37830246050342176,-0.6882212074806322,-0.1481000536611079,-0.2361806970412168,-0.013295963149351886,0.3758539281363782
2.2064848470763074,-0.849120289524544,0.17885530586584775,-0.47443935203179843,-0.8865911791134549,-0.284393688710074
-2.802511880125606,-0.8948068855150977,-0.2227740339462465,0.5171269159248505,1.5830459372363905,-0.15479304123200643
2.5789393533641602,-0.7061799259521586,-0.4825419665319721,0.24669199062835712,0.12501442399766094,-0.902584479753328
-1.689924933819007,-0.08204189881788437,-0.429418289397131,0.9161306625783054,0.24066324627283997,-0.3172901808599491
