Gx,Gy,Gz,Ax,Ay,Az
-2.536517,-5.461910999999999,-10.597472999999999,-8.873999999999999,-431.80600000000004,-28.6
-9.224142258995371,8.959854379548302,-6.653868201989629,-0.17683682497156317,5.3200499224623545,-2.0842126755599804
-13.690887529315427,-11.69660619184137,-3.040827542716171,1.81476205633256,5.093247814649415,-2.644327437249177
-3.996807884869089,0.5069570932848055,-22.99081799274136,-0.6880237753671224,6.028976028476235,-4.055231647546564
-0.19848801039092523,-26.78370013476804,-9.821516832974932,-2.5655441184696692,5.070385571265446,-3.825323277941194
15.714996587820238,48.9237018045104,53.95777261026534,7.381305380362265,5.606648326454918,1.0769225904376447
7.4716516560914386,10.205180904176114,1.0365615025726356,2.022731467220741,8.247829600030096,-3.5337095959309344
-6.343533127911286,16.150615146849834,-4.109660031647882,0.43978254176071707,11.465145388797898,-3.4662753541772675
4.218194078565396,18.422432313876225,3.86073737322361,0.19509501907116,17.51766849121453,-7.13359643142764
3.9706532179906775,23.628053092761572,-1.7289959070497931,-1.0930152048582569,33.722969128519054,-22.533147719284205
-20.648380497149446,-7.419374306158724,5.38287680886995,1.059034194668552,-48.66079038303409,22.503347396511458
-5.609227924358802,7.964104853679181,-0.6550269473223302,-3.328990997524456,-10.8331250191267,1.5401532234518471
-3.284098352758603,-1.6664929567275082,-0.3655833912013364,3.057773495259427,-3.795385990771215,1.2736455748109454
-4.762251785998774,-3.5430207778072154,-11.259624851197763,0.6866843435611405,3.235605862143411,1.7005442745174635
-11.293628577676436,-1.0571473934057263,-45.34477576739981,2.5437195686349408,-0.2601787516875559,-1.838439716469888
9.963704731543022,0.8590144569356097,39.90150163311481,-7.864047599709738,-4.507585257649861,1.5784599679198414
2.150960930112676,10.613102109542398,6.24407462523198,2.4102512950535737,-1.1778102226228984,2.832862102163455
3.9013499333539703,-10.56968017602385,4.623330654037418,3.4090999901451586,-0.29170113484164184,-1.0083309382397372
-13.834686752629244,-8.318323682927332,9.640261611645565,-4.966996614411857,-3.795295190766897,-6.627174690805637
-8.39094076832045,17.128672092282777,9.420104717269425,3.923872610727279,7.567738337754936,-26.862574382578018
3.648177943992147,-12.05182649697013,3.773222139018091,-4.564892805252769,-5.277544744691732,12.658187695054378
-0.0029019949483373164,3.0721217740947036,1.9738692465409207,0.1432762604682103,3.046003120274935,-0.18457417566417078
6.097022740628729,3.070311645541829,-1.1295546386794522,-0.18015576440721048,1.124584180384883,3.6335306682393376
-0.5521280900574336,-5.708031254560276,6.675642562454813,-6.082214687032526,0.043624618143257576,2.0100177073305776
4.926972677059319,-24.991842198206307,2.535493842992155,-14.617727056261645,-6.153242417324181,6.380570241866283
-0.7313170833737432,-3.3656389089433465,-0.6336045421784222,-10.810923590767665,0.7153809114163991,-1.0182209876556687
0.6323947853344518,-22.298319434814054,-1.9329513524596216,-5.055354852409094,3.5548102027336146,4.514837283787761
1.8762940453732964,-0.4910740206525013,4.802127150693352,3.421603729221732,3.6969197857930145,2.310651538249455
-3.549379461182906,-10.146027711020018,0.19760020113428922,-2.8566725975903737,-0.9718296086775786,2.855983649658038
3.070351734708253,18.37694149473372,4.450411515321193,12.139680607430208,-16.76217741298597,-10.559243565465316
1.5658451093740058,-9.72104354371469,-0.21029155155592694,1.0860352946214404,2.796706125434884,3.3522981584046563
1.7201092052815046,-16.185617665138757,1.4785146703166225,-16.576724470067912,-0.45038237188786034,-0.8590482462019429
-3.00039785154586,-7.696386637538165,-1.0137557467986649,-10.144997067720368,1.9292020651178203,-2.1860370169478025
1.8402037251234924,8.225611574039128,6.209697876124731,5.067588112185547,-0.5703557480590686,0.17222518217308247
4.873803698534201,10.683522017870054,-3.7024125083781465,11.610941147933987,-4.245097566892132,4.370792732629588
3.528658484071598,-7.6011621392444315,3.609492969965963,-5.641073589198818,-0.7198917041237415,1.2404361820860108
-3.852814239734846,0.5428569916727382,-3.78686253293241,-0.04263903652017609,2.257753300959892,1.2547311199101474
-5.231108397393623,11.413577611993736,3.830531081539639,4.4257701540119,4.848385928016264,4.017421589664829
-8.79756256752015,-2.3922492758646703,-1.9984869737946116,-1.9841819438757975,9.314723635293891,-0.11736714337376947
5.54936326661141,2.554818000792173,-1.8306322912254358,3.1851438266204086,-7.091647909727117,-1.9767057585087617
3.5285189821978227,-4.981272668266058,-1.1907706531388278,1.0633469700283562,-0.9569936077480463,1.6552288236334283
3.300834583447134,-3.0417435903461865,2.5942480698185357,-0.004200660455245586,-1.2093927000645879,1.466800114525813
-3.032954419172214,-8.898694843557383,7.229238302830044,-7.1419476659196715,5.706498307758472,-3.2418135554041845
1.8116338491931985,7.37963012119358,7.163947671480772,-0.41217428050215865,0.9485740641199567,-0.4681916822979548
2.1651249792012264,2.360546909892377,-4.062862597911083,3.314452315993619,-4.394131836208546,1.0508084238737307
2.2762673263969937,-3.636109205108104,3.6054759696257004,-4.948440556595301,0.34858081322478673,-1.4357211148960891
-0.7227293779412403,1.4483785916418936,-3.106235288814009,1.8198159584634404,0.9073571038258283,1.773045416569316
3.83807569495477,-0.1595635930601329,-2.63198608012865,-2.5496228469841205,-4.59441944208754,6.895249895512527
-3.223676041354707,4.476294528932496,-4.152440093834029,2.1216940209942727,7.348561484836532,-2.185962950075224
-2.790774540778739,7.152339012289266,-3.8255740103252385,2.0466359165203176,-2.388005446085253,1.4910477839458385
3.3366727666089715,-1.6973619105013844,-2.916143681164973,4.834228695876855,-4.897042268960842,2.338701301561567
3.034026400795685,-2.1395186914655913,-1.939528332133324,5.388368573879756,-7.385916787765221,1.7955623494503676
-0.3599813589080414,-6.180269377699049,8.615446674953983,-3.806768993371241,1.2620641296505322,-1.9185294700434834
-1.8528972159061985,10.09135716258643,-0.256549325642875,0.03140732386135503,3.6064255888217724,-1.6014095850961318
1.7113770258028413,-2.4871972294205236,1.6388748476860033,-0.5589092175843922,-1.8539346668078698,-0.6897819042319426
-0.8580530385238215,3.836228713665627,1.2717266284600803,3.322071426749361,8.229461971569096,-1.901380951166242
1.6422495045979844,-1.992341270484813,2.19685104555466,-0.2286713687440738,0.13360342402955983,1.9802987439960273
1.0055356544790794,0.11372071839082976,2.281721130442785,-1.3255291964486173,-2.8558659607760353,3.421313744081858
-0.9321656094460269,2.9468736685583585,-4.7344779172624785,0.5774690263067506,2.182633090485277,-3.2192617264033583
-2.0064704457085263,2.3792275445967013,-1.6466072519720762,-1.4822379924218891,1.927480205808866,-0.2854961366515052
0.49616272428271335,-3.157299133165991,-3.6984932586454065,-0.47197039258654305,0.5169003446838376,1.6280807393466494
0.03987821119453461,-3.6082544340232197,-2.7457529089639783,1.2601070533646779,-2.447238487321439,3.2417423321936063
0.4445064215736325,-0.5615784569767728,5.265161271938388,0.9750063024010167,-1.7969284042280256,0.6046038284751214
-2.774938028151488,6.94891152066845,-6.929985495370415,0.35860751879661645,4.704545112718391,-2.0332276552009025
0.5080089669679015,1.0316211386452823,2.7179363331120077,-0.6940899094992403,-3.8288634771150414,-0.6932753822850288
1.1313893964579735,-2.2081708201277945,2.8590124771243524,-0.28130532589382673,6.213988617757021,0.721396707383029
0.2829979265473259,-4.691348778078801,6.158187602180803,0.21207988869166883,-0.11563738624792057,1.3695666992177211
1.095950516884209,1.4048006069369747,4.875583609914855,-0.9996530663791363,-2.099222965015193,2.397417471274565
-1.6625966830103407,0.9231893657912953,-0.9132139427616203,1.830926531597943,5.289187099074509,-0.564353708924733
-0.3848378298358459,4.866387270874472,-1.589602780987144,0.6834737326855138,-0.5171715914720112,-1.3546532543063363
1.8302144397627949,-1.1380378551886983,-3.6795782417612184,-0.9527026196831097,0.15919054146786848,0.5138839720403059
1.1726606777368285,-4.995984580774703,0.5333524866957772,-1.8075092137248352,-1.57357807320275,2.2913428755465954
0.09740470592418848,0.2990470551736646,-0.014462388792011449,0.9063405835485128,-4.527904735004863,-0.29021525210075394
-0.5943446309675497,-1.2518382366152387,-8.363362095832324,0.2813161540052209,1.4231580456420314,-1.7656541173657891
0.3148341338438727,3.0525455408701982,-2.5411361074385903,-1.0350754907043138,-2.427859283114501,-2.577953968471503
2.0732250511729466,-0.21734218394594151,-1.0029215820490762,0.610240806095137,-0.73186859152012,1.5463659431408678
-1.665938114171496,-0.9222060859328689,3.316887224153595,0.3565892452445667,0.21469649086151454,-0.9031972151704522
0.16780117947564577,0.7069880678902688,3.834573994613967,-2.2360498404499505,-1.0681037918063572,1.9584162903736737
-0.6483733565766014,0.054523454694031415,2.2953452282767794,-0.056746296754783265,2.0915632260071497,2.2912979894159076
0.3293620147766676,2.018441879778895,-1.705784686759868,1.1036133141806483,-0.18423802830601277,-1.6856595514253658
0.6399396578154379,2.503172035161737,-1.2634199068160383,1.0727228218325564,1.1570336997700679,1.1322193826541866
0.8795671155464688,-1.3909954019053477,3.0664947107231026,-1.850177431627401,-0.7086216200723803,2.9044506232072687
-0.12169551932073197,2.045913549771318,1.4497420510982932,0.9211051217320503,-0.9552006199681145,-0.8893911701200061
0.33795801664457864,-3.808580125808801,-3.1836309404105614,1.3965436525501511,0.04921169447596374,0.1527741607259514
2.2581601063252568,-0.3758603570202197,-3.5046083843105613,0.564761441542923,0.8273016632138709,-2.1995445752797167
1.4291252174484586,-0.3119499613667679,-0.42730957078518467,-1.0963763062302236,-0.05998086402681291,1.4978228409830847
0.4899716483272297,-1.8245571042543935,1.3329772639124062,0.031725422077229615,0.7903799440276438,-2.58018219648505
0.6859821074941905,0.7788127341212672,-0.5772496564075147,-0.8863368711359741,-1.5324608208856358,-0.3034277988744698
-3.0312698090526577,-0.19001794643203807,2.5400542245100426,0.4275723558962297,1.6579469244261595,2.3325173609436654
1.4402258210583119,0.33954506036090004,-1.203596605275778,0.5917932708468459,-0.22200608748781492,-0.1546370622103317
0.24531889748638047,1.1773014231977719,-0.24735775867029908,0.6111413578426849,-0.04845744632426652,1.3583590719996887
-1.0874410160330918,-0.9477015008667415,0.7631845668213395,-1.1949179400151766,-0.09659735069038994,1.2367728080705565
-0.04304611308014439,2.6291517976539573,0.90788205097508,-0.420905551991555,-0.24718176815795934,0.23736077322325083
0.08548504576606131,-0.6153111776875697,0.04127245966282045,0.7941670271011736,0.034754939838255616,-1.2912170045044977
1.4669856827736942,-0.18729057920819647,-1.4703942913320431,0.4520078161254978,0.3758851253975888,0.7536140717516873
0.6542017296780995,0.6000703190560637,-1.8375718355007966,0.04003304961624038,0.1914699436938272,0.15462209224149281
2.0240373351250067,-0.4817131585097244,1.426338552186782,-0.002389951259557599,-0.7053961113506981,0.33884035128062695
2.6461878514728197,0.334270484624426,-2.521404548012616,1.931113072008459,-1.9228481650190572,-0.7127702400171527
-1.069730546600839,-0.3428282424225742,1.4481186660900958,-0.4710769139580574,-0.3081101210314223,-0.41301956779220605
1.4664021929431466,0.3471386641306622,-0.5157516932719117,0.2014263667729167,-1.4059055362794382,1.1829010327078269
0.21929086608644174,1.2906893244685198,1.1247104574571365,-0.4565819558942946,-1.3743232627517035,0.3400317384714828
0.4457359004119027,-0.8753159893723845,0.5422650015022261,0.17012364652964262,-1.0137827784844482,0.31339666761039775
-1.102539787226378,2.514180252445446,0.16029497794325875,-0.08209354421357407,0.30462493427200243,1.1955264524357765
1.3203025945321192,0.3285538110908627,0.18885467772372055,0.13041783767075665,-0.11005712078691388,-1.1873921387977806
0.43020350430966736,0.31348158781837143,0.4306332318344881,0.09020826039484792,1.4422739827374818,-0.14586472831916164
-0.7321613909865334,-0.7180967743227191,-1.207426006183951,-0.23783193517068546,0.552907795690694,-0.45021513369918753
0.6350777998450927,0.6663213786550704,0.5799838674426736,-0.722113217830426,0.10587628716202091,1.417669086483354
-0.8395728773791171,-0.494569398276127,-1.58508097644214,0.9554175292143345,0.06303070914305842,1.0639932554323632
2.2918274268381293,0.7441730175981665,-0.056389361754438205,0.9173433767320667,-0.9389547206721534,-0.31441315147836923
-0.1345706579621655,0.48229159203549943,-0.6951965255397528,0.5137147653750045,0.27854482878970677,0.1352737261519672
