Gx,Gy,Gz,Ax,Ay,Az
3.747695,-19.013054999999994,4.499600999999998,-4.3900000000000015,-484.428,165.694
2.7210410374945395,-4.100571124071518,0.715035795374113,0.2664044752735857,0.8340071005784556,-1.4974785363850525
-1.566348609112534,-14.050325463816293,7.74411882346112,-2.0596833022700003,0.17885878151119528,-3.0441693997123136
0.9044409606625224,-17.937935809197,-3.8052349323857317,-0.7007498817422699,0.6653060609765789,0.46693312310411283
4.071512912133851,-14.686512209636627,9.526104473429251,-3.2934958179277327,2.6307757258640354,1.3480013679838798
4.58451577193683,-103.67720108859345,66.71253989955024,2.433901188518358,-0.4165007262753513,1.0219983965059565
14.575966453759614,-15.515351918617998,-2.505354896998696,1.583113405504566,2.300637195360417,-2.514462210119675
-1.4270293237134666,11.132023566138574,-4.1123894942493004,-0.7647949977125367,2.7909648499069273,-2.0952374227971147
13.778779462579426,8.415575345957379,0.9209837893873236,3.3250763647740804,4.408616618442557,-4.044423566067199
18.22165682262348,-1.3890629861130614,-1.4578813260683283,-1.3910669624212946,5.957981994543938,-3.554952214055169
81.50631905124507,-0.26886453028704427,-2.953944382357871,1.3842608721066973,61.32353085627114,-34.965166848134274
-21.139054033399745,4.563536468923881,-3.7038189493733866,1.5338248271223858,-18.70247705499413,13.422084335419525
-9.242137523356178,3.4224489239361935,8.811212056846415,2.8994270895621783,-0.6150189998025475,1.859973024309792
-8.047130043978935,-3.6767249866707927,2.7220962043405237,1.554054592409737,0.4754952986389153,1.8837021295719705
-1.3919945943911118,-25.481458099899864,12.263802540397784,4.775471754756454,-4.00078881336684,2.984161038868858
0.8806709913417861,-11.219472444458786,19.78887687850701,1.9435965498621226,5.4094613688904625,2.316376046795946
0.17184642020049767,27.43171220755849,-19.96593158256197,2.5449087393644882,1.4764822346507689,2.0615623476465843
6.566475324769212,5.651942735482132,-11.797359474136924,4.4209758585847885,-2.9599760077504245,3.348263378538518
-7.842315121777641,6.151118129013115,-8.065383843947046,-4.739429939360513,-2.2583977463692024,1.5219813941711289
1.9452930990323238,25.737887653233578,5.597621630351272,5.723437998486605,3.7696046644920953,2.771168452653882
8.41232854191397,-0.4174277584233801,3.5900382729073477,-1.6038057692755827,7.531090966541228,10.37087444983886
-13.862776707686287,4.719108409862421,-8.801010888810424,1.9266896581987045,-12.288825263851761,-9.502081680454843
-2.549532696616665,0.643272778602292,-2.181908393939368,-5.994494367136793,-5.962879925644924,-2.066508116743331
-2.273071772243712,5.613116819684776,-0.8325134431568162,2.4260870807526596,0.7556623525637585,-1.8247708040723645
-3.7327054119769825,21.18502455762547,-6.904563549933515,5.234277936045094,-1.619486235375205,0.9269902637322393
-1.727042254217354,0.7842637498038725,-6.044508715002442,-1.5522025550478795,-3.1293801925538807,-3.6854490106903057
2.3709298418124254,13.220632221921711,1.7925070619159948,-7.5909525107792035,0.8342399731325105,0.1803167634924694
4.903043211708278,-22.155298989444788,13.62318215520461,-8.719436735484726,-5.616015164180618,0.34393187028790706
-0.9523815096460243,18.90362898529715,5.4793219673074445,8.932069356650265,-1.6380402614614709,1.6642441672675836
1.3074358342188814,-18.646136896916968,-2.166183544856003,-16.401822718369758,1.380841808788208,0.39761792157147896
1.8788474372509558,3.6230701356258823,-1.5889212764531189,5.105457975007392,-7.062259608766725,-3.141438140167056
-16.04781186287155,9.993665250633718,-8.65559602478072,3.8336755903071853,21.626204780148292,4.813417602076858
2.860404386458568,0.8986853047161178,-3.3561479272736428,1.119121182776726,-1.546310786597207,-2.5543001542985393
-9.53031425545236,0.12402348333091398,-4.991304679009188,-2.28937390638712,5.550481232352945,-0.12205009090346408
-8.973449228740966,-5.127375155393555,0.6988979488654932,-2.9948860136494497,6.878628160815434,-1.2238907347899577
-1.6871022770293804,9.256543566855129,-2.778408245204289,-0.7556589290377929,1.6516992134309687,4.2502815449189075
-2.5083533494730066,-35.88755370564691,8.225804736974109,-17.353356751768843,0.24109838462936894,0.1749802347821181
-0.8503323001545369,15.786726942927721,-4.808719070497506,15.605339905063307,2.281428068875539,0.16959365898496737
5.6338128655018656,-2.653366101030152,-0.5036156220670382,2.020009735602401,-3.081041528553283,-1.9662891269441258
4.069989412356012,-6.265416827334393,13.087509099332426,1.2522733677894378,1.2615273355475909,-0.15404501741903487
-0.8847992584655939,-4.507447636258224,4.8572015642202455,-8.094321442365457,4.5208916915687425,4.441210597537645
28.42874512886483,-8.064244466686588,2.3985659118217675,-7.502078803337176,-10.816385491621833,-2.5464745114120677
-4.814334667186782,4.294908266559742,3.2827779312897682,2.386547402311119,0.6404734671352342,1.8191149253532022
-0.6053373290802404,7.345223434299536,-1.8005311652021607,7.062677287191134,-5.3094570217179875,-1.6721008008802754
-7.868090819251078,-1.0327004416068997,1.971136732723266,2.2868345511496155,3.3680071624456103,-2.6281886627394284
5.488124018137648,-6.297721630071666,11.490912831166218,-7.272697051211494,0.6668197653572527,-1.914251353428714
3.390997124913807,-0.9677456129534647,22.09271460644959,4.029858327852608,0.4729193247729164,-3.0715695381906576
-6.648769586842201,0.060811094331719495,-6.536692986386535,-2.827433688845205,-0.6543885010570295,1.7732853932031956
9.784919534171458,8.023615475740483,-9.02078162052727,9.445276254229682,-0.5168130702189495,4.811012543566135
-6.232821138490059,1.054756416087083,-3.482083481002404,4.206774144486455,0.10636480753049815,0.6843112966904983
1.3210202154830089,-0.2076743197854244,-0.6593088592368277,-0.763221159217312,-0.5469069547038721,-4.140201280611292
-9.232516093647371,0.7939196702415234,-8.040982751001502,1.6732256848095453,1.2692380020588607,1.8430834163698755
-0.46828904707120866,-1.4335497520058873,-4.207489542218337,-1.4906897650629425,2.6419919108630285,1.7706457032857608
4.894432553652418,-0.267465889647309,1.6394750149528468,-1.0230612420056784,-0.21653918069860487,2.5309127345849185
0.5501522269670853,-2.3063271692983833,0.9092841059290262,0.8283217559056566,-0.9157136474425098,1.0997288724729795
-3.0250668104278997,-2.0796520045796796,-4.76527821124519,5.731352541042033,1.597911738167838,-1.7629152486257982
-4.999447713225662,-3.887295618752889,-8.232585235491385,-0.13580859877085505,0.314215124176786,0.7179189542954785
3.739559931754838,2.8000855551333164,12.106711549410909,-6.059285281764582,-0.4061294172970148,-1.641437489172794
-3.9906406652841233,3.3414807562833486,4.019664362151786,-4.317345780312687,1.5214544262784166,-4.688512676719638
3.920285721617274,0.5959028128922971,1.4639134236699507,-0.22125389864769868,0.9466100507208066,1.488246270596764
-2.9876449219140206,0.45231693403048656,-0.404487839365425,2.9174628760432095,-0.6458266301707846,2.060568443604874
-6.429726984695223,1.3007931617678463,2.3773185181343894,-2.566931292119287,5.429423950546284,-2.3240367513736637
2.627029425822954,0.3799063095627371,2.640966439164509,0.31257411881940683,-4.790310384001071,-0.8404595185843847
1.4394683854809636,1.5175978143218092,-3.6944852952772047,1.131392184028492,0.5292807799948399,0.5262948882668472
0.2653693026444207,1.2536301989479894,0.7726517293122286,-2.1509564445421843,-0.16486920215150355,1.8745203937694999
-9.278410104112012,0.8410510902262941,2.489763071718244,-1.7510860251514515,0.7293623783190736,2.2493566666997933
3.222615082651089,0.9100119567802869,5.042017403056225,2.529436216272239,-0.8850854074853254,-0.37765603630075334
-0.4106082544637517,-1.9597375480638402,-5.37107042393297,4.011938485160623,0.11345518080491901,-0.6696033763741023
-3.694458146837158,-3.6398694607853606,-0.5392031379472583,0.7002703514861218,0.5278769353240844,2.6101624414810036
4.8830598095013835,0.0967701946411775,1.1797731481509415,-1.5283338094740495,-0.0801944605088068,-0.8715813305688163
2.005619871789941,1.1815064608670285,0.5882108454568231,-1.706529856687733,-1.03917613388935,-0.2531998447291681
3.198266519098623,0.060830243133986106,-0.9064143629805917,1.2127537421446675,-4.221590198639131,2.3595539330548774
5.074999243506237,-0.395548711239795,-0.09297131460820784,1.28423091432587,0.7788809739740982,-2.8634239710715983
-6.897680598100082,-0.05339968108616108,5.0117293657823065,-1.3344136108867757,2.5223053215167273,-0.5254464643521359
0.8739609659008423,-2.5038359109681303,0.27289116047980677,0.4985298358198632,-1.5392308513595652,-1.3439997694349504
2.225160596626246,-0.7433554749024051,-1.3607049768773947,0.6897211251823993,-1.1380210459442264,-0.25844379803383927
-0.2856601589567176,1.9228463394795932,-2.391029786133857,-1.9562699837921154,1.8352967392843362,1.4322129936933674
-3.6520162617462777,0.13624192843830296,1.9302457733955303,-2.4414175156063997,0.4203817622256394,1.517656236004296
0.2572802236818223,4.431340042573041,0.026026714994569697,0.3261473596281712,0.2215000229014576,-0.7746747102373603
-3.1161690557071866,-1.354109852426262,0.10351107058013563,0.01465874970690851,0.9032391305391914,-1.3853189968450605
-2.0111724159410547,0.8861182215203528,-0.3850677806488565,1.282656361024132,1.257895764662743,-0.4049135200652606
3.4196767499980822,1.0848244370010163,1.0630362513447427,-1.2586056168469617,-0.9798174101421695,-1.7403694739880293
-9.454693742434895,0.8732823449285171,1.3450979857427805,-0.8376099491903573,2.6478418082199036,2.8184826243598597
10.277525598186676,0.647506261952553,-1.3768343693755352,1.7353468112117103,-4.641489322537058,-0.35425741714225406
1.8829414951549568,-0.44671233038389646,1.1158352335566533,-0.015368204193378698,-0.6331044231088521,-0.23085413711651542
3.912154225796329,-0.25488437476088815,-0.17712792793841414,0.06822774108434404,-0.47779347863714416,-0.4800105614137104
-4.866075614543572,-1.6992660619976305,2.4050418096086075,1.502389504731958,0.7189891658172203,-0.11043817656022031
2.7136117195709266,0.5116298691467331,2.140389154017176,1.1319150780667218,-0.12119943853343085,-0.5999819003509772
3.800429188995988,-2.5828850521770965,-0.5213253785081692,-0.32896084485135346,-1.9187081299247375,0.44938429322798246
-3.031243253144183,-1.1721975580087718,1.2094761531247875,-1.4805558510235328,0.22452902089190951,3.9853044988957325
2.127176913784653,-1.3155842239783369,0.3946438920286398,-0.2843035691217473,-1.8205176389940938,0.44281143878950674
-3.278819046836416,1.6426600803950322,-0.3443310423873174,0.555611331243161,1.3024136867994154,0.6898842940195147
5.9529227370282936,0.2583814704099695,-0.1901510964478696,0.27920794060079424,-3.154231980337694,-0.9818019928790663
-7.449936160466299,0.46177463067702695,0.16906435591843488,-0.7794829962329989,2.6100103530125685,0.06470423562218988
-2.9756382202021268,1.328250940890758,0.9311335880434922,-0.5319086349530872,1.0524548444014006,0.7763233033495576
-2.4995017429405486,-0.4189432490185123,0.7010950711170737,-0.4240773511695958,1.0201796703245996,-0.6815477616744335
2.940861399513641,0.8595022787833149,-1.658284441294417,-0.2778014057723671,-0.07648330406771175,-1.2827202511820488
-0.43395758314873034,-1.0820941269863777,-0.5858418084351782,-1.1922551184416883,-0.7420701856038286,0.24800295521505494
-4.322379528604647,2.437387820216445,0.8885815336036559,-0.37911312187210344,2.412196687401203,-0.1395835298140805
0.8703842446606185,0.8903569156077945,0.7502338475282657,0.4275674986361869,0.27590904379043846,-2.9893864472681635
-2.5867435673934054,1.2301725263745082,0.9238270579790993,0.5076110158601129,1.1182401398419428,0.24998931131327035
2.5493615221234776,-1.5060311243984794,0.5847826168272119,-0.21544632116620185,-0.8033864142719231,0.6257575726588424
-1.1405236187622059,0.772831078094791,0.2968507209522365,-0.5755201998879745,1.151719321206157,0.07321325388441824
4.933551436102826,0.7934701974974294,0.6260970714930659,0.8039649116975767,-1.819862927507197,0.22766643737847425
1.1216476240860878,-0.15655268332134625,-0.7134515573501459,0.18116251643544096,-1.8777012025608664,0.6200718192893265
0.05412744709369133,0.5053412534049005,0.5350627394200282,-0.11878058428397728,-1.2571457685425589,2.0146135539001673
0.7715248998400027,0.14855000298846754,2.23758479020804,-0.6702966097806141,-0.5758766190692739,0.48963333216047544
0.7762060191111241,-0.5136228085506961,1.1950889539720906,0.5750695135987641,-0.14950769130969452,-0.731465638173695
0.9110345604720885,-2.4679291277430053,1.060725587798926,-0.1369602446093514,-0.9960425419500604,-0.05489817819438475
-0.6846867199180509,0.29537196477528027,-0.007165707137720346,-1.220825975295278,0.3415811498197959,1.1585090602458201
-1.4852007093689648,1.0407945780995662,-0.5187637605382623,0.14185637066327247,0.0726331305852177,0.7228414944418219
-0.15799286423361392,1.4169594000572172,-0.2607843658838829,0.43194595309363415,0.7972847373032718,-0.8673793071000834
-2.4298678845800756,-0.5753050782722657,0.051634454702902344,0.20973885818329602,0.44991282942430477,0.6689132946877838
-2.280879367668287,0.13964894834789007,-0.4383766488366081,0.07958441637764518,0.438916984767837,-0.14621034085825113
0.7754366920950295,-0.37373041341148816,0.5374043219692592,0.21818877645204832,0.6939061156455546,-1.7283306473431939
-0.3888824753181894,-0.5024880995652691,0.5625225386559263,-0.29145077057806584,0.5101419805354247,-1.286348740275848
0.4204520960640054,-1.2702798096555774,0.4769702363048877,-0.16026507572189513,-0.433943659023444,0.9596011390079331
-1.4540831767527143,0.31229110427024154,0.1944251180971991,-0.661022110963865,-0.13689352796751802,1.4475047413162918
-0.8677069968589024,1.12171476533547,-0.6185430009908415,-0.2501372181083775,0.23881592690732115,0.2422964619026719
-0.8506698050726932,-0.6857993823242677,1.4428360168654462,-0.14367250663440892,0.15609785468784718,-0.49701231565859766
3.109427109351106,0.8649581994661923,0.41311223447472484,-0.1362250598500489,0.5439346067350942,-1.6955783928533315
-0.9232078136044288,-0.6927518847765782,-0.02818503733833294,-0.23389529240294793,0.23989237230884825,0.5680809845171884
2.306330729677301,2.027410963252337,-0.012303946861091944,-0.36799854345432714,-0.9395103326290004,0.1164353379056764
0.7468095591431029,0.6036617432349002,0.6327446929877176,-0.02428047606017658,-0.3752249783519274,0.5225899054080964
-1.422112769872637,0.16438417259893884,1.1866647602802884,0.16055669845307904,-0.16189554542269055,1.8149060748941728
1.22781356240991,-0.11934234747448258,0.2512896983751308,0.3782251214863161,-1.5016134293252672,0.10400799508732367
-0.7162297594626444,-0.6822464406316189,0.4719038189985395,0.12222190167769562,0.3044663792761426,-1.2052511076249057
