Gx,Gy,Gz,Ax,Ay,Az
-2.1087220000000007,29.44186,-2.1394130000000002,43.266,-547.112,60.438
1.0388584005008017,31.970958216309835,-1.4046639556816771,-0.8513835174653825,1.1648254820145971,-3.684734419218423
0.3772250802072825,21.384899002214812,-1.640897996606685,-0.6196014927233411,1.718747260591444,-1.1861839739763285
1.0704872580680729,-1.6384330793370383,0.3219526800493644,0.18105804223882238,2.284430360394206,1.316933391536725
11.174616474016236,10.280215198289701,6.771313868156851,-0.7808281368104288,1.5782354793024227,-0.6487553100164716
0.06683404766253664,22.826120611631715,16.769285847614757,-1.3108743929475164,3.1705351815084364,0.8386420629165601
5.329109313672885,115.47842917137316,-83.02271272871074,7.084978195151551,1.6929758858592363,10.54303049569935
10.898520716412156,23.850430134845283,-5.9747071239198055,1.2540830346087026,3.279601382532764,4.46429066393112
-2.1060534647184106,7.597888284686455,-2.4887359841691037,0.5037283158508945,5.67967471630618,4.22570125081711
9.952201650900522,5.615474928510196,0.11384540152598355,-0.6507816862688264,6.530942441147345,8.098817525565455
9.323503658305146,21.42898953669167,-8.561166716198915,-0.2965793512196471,9.708085129363129,11.454225758583346
35.88461332778488,24.490882336138775,-6.562518627236493,0.8769223084499023,29.517723871710764,17.55995342843697
-47.37376998840823,-1.7798840199625179,11.061609474343323,9.447095459208267,-31.504340648829178,-31.671340155616058
-0.8861270059440822,18.290513823515926,-7.302581156002146,7.249879671178422,-0.4613450986839725,-10.24764055028422
-7.470861977686056,9.575290776210931,-4.409605996687331,9.686548731637586,-4.973057999387564,-4.609624434542041
-8.761991990147378,-0.8552657249024715,-7.68127010730543,10.659963718301595,-0.2552882621370407,-4.139340718358719
8.25366627922499,4.349744159928417,-21.313206482636904,14.00136230554826,-0.7265085697374918,-2.27697046731684
2.9005565225477916,19.34231249904968,-37.112166742413095,46.5090852418843,-1.159442052465634,-1.581224608073037
-4.8903519949895555,-11.716576720018391,27.244320022444928,-30.279965231510424,-2.801920939465211,-2.6931923575497096
-4.900421873074734,13.718811622600867,15.197262178056189,-0.343235200073763,3.3687673007435253,1.3186900981890957
-5.161428146613592,-4.351529718651121,6.326503627565543,0.2187851010519478,-4.817164885210505,-1.4199090688268579
-2.7473169726977176,5.0577846459649765,3.025105220466313,-0.30862947752855563,-1.0881027477693905,1.825631224225761
2.473506784012674,-2.286880443520631,9.325297901319827,-1.3599505930450246,-7.711451626837176,8.33545533811092
5.222579522641821,-2.94682814170495,12.722915507921652,-11.109928237438627,-4.592180228835631,36.361546079680295
-13.18408529472336,-2.23124382205181,-3.3169888803608014,7.7819279856431045,4.842783680062704,-13.817863271347727
-4.5541051924210585,2.2701402044111543,5.630878901701065,4.624475570560911,-1.2279521794533368,-0.9594196917541782
2.764710593900583,5.834065834263327,-0.7817148652380812,7.355298854186156,-3.691648170035908,-0.6686581493738114
-2.721089403618638,6.336161669834734,4.891068579409504,7.381360013034574,0.18477971424325051,0.21196339162257005
-1.8704711253733826,10.685057211351447,-5.026549092995236,-3.692417832396563,-0.46550190153572935,-1.3941021879014301
1.9047113910431177,-6.2342814550715335,-10.436307990319253,-36.71626291654221,-6.678880041722271,-4.314587171539646
7.402877143471629,7.568776442950165,2.031194819009159,10.10465539096935,0.4592921781224315,2.272583067719797
3.0227009247881336,0.7629524248177941,-2.9759682958994755,0.9081995541686974,-0.8308807997962115,-1.5333402800207032
-4.195016869872424,-9.972418635936982,0.9809399551834401,0.7975473282185539,1.0112377865731992,1.754472303823544
1.7673560055680289,-11.401351058664225,1.278114098185175,-0.18205999835661402,0.824319691919067,0.2781972277432665
6.082778003226352,-1.0872073424780986,2.582032429762772,-0.6709154318404764,-3.8462579828166104,-4.440781900060869
-17.59713481537943,-9.588578669151401,-2.1218251320432193,-11.120890311015588,-1.6950530881524735,-0.18278927220949814
2.6496777696956997,1.4410375509558788,0.6313562782708199,-1.6568738429077643,-3.3056439650460114,-5.621688819538691
-9.200544970987847,-5.024973696191841,2.2334417509690687,-2.824624043491246,3.244302242217578,-0.9665668397547843
-3.269236879617115,-3.2280587290917677,0.6990371012917772,-8.534547326523992,3.2297603795991687,0.29813107834771535
-3.306953589193986,2.2758130249240613,-4.1387384156392235,-2.4428085629639673,-2.920301622360147,-1.3561248632224925
-9.550483835990628,6.861381981354322,3.4096517122962657,-0.17131196896067458,-1.8173157286685402,-0.966823514230575
9.078310496166397,1.7525216753816317,-2.8837042244065145,7.852731667096002,-2.627103565550711,0.050404562434212874
0.11227178294176282,-5.953945388410506,5.89079417094628,2.6458532521143816,-0.9040824873399114,0.7352740188798644
-1.672442826854326,-3.9562568916996024,2.4527841900973453,2.7641342167033804,0.7909075506680158,1.8014629154147603
-1.6469825738256652,-3.522833712455552,5.103672598423864,-2.2138769330097334,-2.5444089225539233,3.281218871598311
-3.4634287436626265,-1.6346685448816898,1.3971993734491799,3.3594892143422976,-0.9576403179619346,5.483307646903889
-2.087660052878099,2.008382744643924,-4.50036604781971,0.7153736762765788,6.447694527530141,7.349143503291922
1.6736826601317008,2.109353915421293,1.4259992319501331,2.507076452112079,-7.9539096159232034,-5.804642153106133
-0.09297684923381433,2.8022483702442913,1.243917766616362,4.014349003391412,0.4021318765898967,-1.128718447946829
-2.4112280909923403,-0.855506108571171,0.9317890951467807,-0.7595713558667234,1.658609276076108,-1.238626352305706
-2.302522191664714,0.30262747810566815,-3.551237142281483,-3.875863036788056,1.6257730793342988,-0.20839096952365638
-2.5858904067805466,-3.1222530960942723,-9.540711419010663,-7.241676025153286,1.7404204275447142,-1.2946742830960547
-0.48539979546211354,-10.32719379875006,-8.405496122656336,-9.15025524951647,5.158432342548771,-0.9581145912302533
2.011778217381085,4.0308053675341995,2.7770731716782224,9.589783080892403,0.7441386321053508,-0.4833030065430939
-3.0429845575080483,-2.630914481743449,2.773187747427358,-3.752328546415623,5.950671473813101,-0.27552559626678796
-2.9950982891602482,-3.3752025929211973,1.2666745781533963,-3.7060435132282783,4.904758640321647,-1.5833848754753097
1.8403250485684095,-0.10500696410403654,-1.7365989554234644,-0.6129879637209221,-1.1770557924150484,-0.1699094930562003
-0.04402893362067295,-1.7337925544238406,2.980149801804608,-0.723416493087607,-11.67235303388509,-0.08450948327304486
-10.889681671508534,-5.983191529620319,3.2926733256632694,-1.4756049660132522,-7.245496187223636,1.7621199009554653
4.217269176337801,1.0634369054210249,4.746370927577055,0.04257913094256072,-3.2330656414479506,-2.6116818371639807
-3.7383626887668537,0.19695375055365982,2.2587724648708356,-1.2510779824130784,3.2958499324404276,0.30324510624061335
-4.2586239707675055,-1.8507930814447646,6.919360943320821,-3.8125167249030305,-0.5220841985228558,0.08183352113032161
-1.3457877989186313,2.580849878739089,7.5287387480929056,-0.06447089834351827,-3.1930808375437616,0.4225335871694616
-1.7655532142694452,0.53987409189591,4.22204340024586,3.2140962616961537,-2.862515479602532,0.4124514817036332
2.8435013430484064,-5.836357545815339,-16.441668001960057,-0.9314454818575227,-1.456837148263002,-0.1252751187471905
-0.3015855876778415,3.3758211745033773,6.497209249519893,1.418361525185266,0.21083974471463274,-1.144754285150022
-2.4756209024175386,-2.0286692311899985,-0.4648585966602111,-0.09548971755608693,3.0797795720924013,0.7260520801322596
-6.165934932659121,-3.015353978751475,-1.2206930148513275,-1.837408477869499,4.829843736565949,-1.2723714430190811
-6.293923044705133,-2.3558785528270403,-3.9870686096234413,0.6915977462219411,8.364345437239335,-1.1798956005861385
4.141199979312034,-0.900987524892168,-4.121711220114248,-0.6796963597976472,8.531781402873921,-0.01739380255721338
-0.3853356189314515,0.6147488404254144,4.7081598123654045,3.002879889719366,-17.617808476784177,0.9150579248958267
8.196763317683214,0.820364637213333,-0.23300529456962726,0.7732970974125422,4.262633564359341,-0.8758249897127113
-1.377220194023093,-2.2908383442268363,-0.6254119257315773,-1.4306075937655685,4.725316613988636,-0.28947015617367855
-2.3340394907351873,-5.032229573167267,-3.5727504643102197,-2.741709088209705,-1.2660029882484425,-0.6779542703084402
0.9788880742544444,-4.42230667689849,-2.5237148000645155,-4.293223202133175,0.3673197411043747,-0.3297681680678247
0.9659698049939417,0.7403845660895101,3.3369473785505583,-1.4533649577821854,-0.8539845055768238,-0.6703463776307155
4.136672997455208,0.7863513157495627,-2.4719712264051523,1.2898357645726346,0.7324103823863956,0.2990445972750351
-0.3108634446323731,0.9945799175268344,1.9333994820777587,-0.2508670460253677,2.873280403759434,0.17521431332818138
0.7309752845870459,-2.6109606413737287,0.4350248534505492,-2.230289760259867,0.00947243552032817,0.8897464712550824
-2.9025396536577013,-1.7635117909812474,-1.215285247488824,-0.5863432882611614,-4.609016629536549,0.1827066593856646
-9.666400981674595,-1.1542535569552814,1.0074548251719577,0.3608010396015384,-3.8272898550702097,0.27389405831690106
-8.304582502183788,-1.3274593815387385,-0.47974142747166315,-0.04770747441514245,7.8953704327362235,-1.6879508631835631
4.313013723990407,-0.8631975824879974,1.7247379745591966,-0.37393750972354245,-5.032066496999084,1.1142216604845885
-1.2558511354987312,-1.0789233759215304,0.37756237073406207,0.33845795969645753,3.32788822334645,-0.7246286982408054
-2.5538498670971927,-0.15851077604596214,1.908092054246055,0.1897526789373436,0.7569633704369139,-1.7384008119303624
-0.2638917793063117,0.8910785864715836,-0.17047459401716347,-0.2275370102667476,-1.7259819381717243,0.6047997297230704
-0.97764730521868,-0.06891829397339205,-2.870273478212331,-1.831157624321118,-0.13396818321313608,-0.6309414026288852
-2.46828892766421,-2.599687556553407,-1.7780770327639215,-2.0156191615638765,0.5804792712439806,0.10180017145104436
1.0533770815215444,-0.06421142633124521,-0.8217064564066988,-0.1291459298775894,2.331723920961425,-0.2883598792752426
-0.48466422240551,-0.829449581939949,-1.0574119963593558,-0.11564419578137153,1.9059758201641173,-1.170120912821533
-2.162235416670664,-3.1054284631306794,-1.9870119384872675,-1.4963127178667,2.462484385038799,-1.1106017994738717
2.7205302842528067,-1.7746205703417695,-2.512068169354091,-0.9842124198936455,1.3938031746864716,0.14466434133154404
3.4001717230105246,0.5281227714012853,-0.7559954876017168,-0.4918943207599712,-1.1227716339506735,1.4641858746043468
-5.051314359985175,2.9874931784028917,0.26912384523843014,0.9176130965596216,-1.3888134485301982,-0.7612064030953865
5.334992620967248,-1.3337723283186915,0.019294452751003943,-0.9552344713554899,1.1231835201979152,-0.4313617473839244
-4.082417942707088,-0.6606577622512623,-0.8828246403646822,-1.1084298916454345,0.9876755125297667,-0.30010034320437606
-1.622707013762766,-3.012951207039971,0.1941067737406703,-0.6766450116240048,-1.0087626619156582,-0.9949725633521183
-0.7290958348047476,-1.176850434375058,1.5809835566682637,-0.20883192916341686,-0.44660642089456837,0.5014126183784776
-0.7104665770860579,1.2678127997495356,0.5986225682676182,1.729428160159981,-0.03914382032361985,-0.6298158509583592
1.6410494028848774,-1.075809101480559,-0.5031927210939047,-2.188772404420121,-0.06953474040960456,-0.35657310947929777
-0.4268874598383967,0.7631818511767354,-0.36411243624068673,1.8363349118977204,0.13032877715511437,-0.5505323910023878
2.281265892015527,-0.9698464627086718,0.19740104728148467,-0.8435700927569849,-0.1810011745372226,0.741987084666576
-1.9359692334014373,-2.5189569346169867,-1.0720870124779156,-1.0898810903848655,-0.6264512062692587,0.8166495521957174
-2.744035699776136,-1.169165857840187,-1.3347611222521283,0.16735068158948108,1.0890989573537446,0.09040956756856622
-1.542105455225367,-1.852693584846004,-0.9063920274972339,-0.29230921499180823,2.0459083160711566,-0.9991318251137549
-0.19874731943582843,1.5221741694948001,1.3363642399578948,-0.15171215220151124,-0.9785405402649587,0.3819438132655243
-0.21905302636355073,-1.2039479605468362,-0.6043943429985096,0.035960718868893876,-1.7608916048009082,-1.262408329122544
-2.061167834962558,-0.3166948174006444,-0.363845250637715,-0.45021877441217456,1.3583228812898407,0.22815671071228064
0.02284330173192528,1.5008717043417485,-0.024664683205108173,-0.922929336841914,-1.254451567452549,0.8854687914238221
0.2227472182737673,0.17228680436319532,-0.05542603218554176,-0.8572165417470364,-0.7534301971066317,-0.5062701178372523
-1.9489530520734042,-0.5995501880567896,0.30172065849421825,0.16104219636369244,-1.3240038562381038,-1.670466545192768
0.6681842263438832,-0.31007371675199846,-0.5217334106050988,-1.1808372194119152,0.42288468136283275,-0.9937056862375213
-1.4571832688843245,-1.5527167895852099,-0.614142251134465,-0.2030198065344957,-0.6599168345354993,-1.489301800707381
-0.46918674131647786,-1.3650188795983602,0.5215707614494706,-0.899872787386356,0.45222504679241715,-1.347074594875031
1.4851927174840904,0.5367475071900499,-0.09267822904422579,0.1888065316746902,0.2390412245435939,0.3309200133626433
0.7984932944712638,-0.09581278284495415,-0.05134062175665648,-0.2082532619776169,2.2503782480275163,-0.19375980289352968
-0.7618990775801824,0.4187312807279976,-0.8366108644294495,-0.3068735555830896,0.1666887249267297,-0.2726461691515754
-2.070668951538414,-1.242136685935828,0.35525033438309767,-0.1303534161047899,0.9531038275723116,-2.0901505414238537
-1.0327081653099763,-1.3539271851907615,-0.30555350235900564,-0.841253161741442,-0.9714827195745008,0.9163685965346485
-2.540403457589559,-0.9822749911821048,-0.01501324867979547,0.18957439744796245,0.28570006627561995,-0.595431938178651
-0.06535082974886836,0.5283966602894785,0.3916306180756167,0.4774505922596062,0.18345864575948012,-0.22649402821056974
-0.13040162947188605,-0.15039588304485207,0.16424163021297772,-0.27609129337452953,1.1067369278056773,-0.9174983223416735
1.4237396501581552,0.15235481749761604,-0.6065749281079978,-0.24049971821897784,-1.0611637802627798,0.20193944727576935
-1.35073935156796,-2.595140539802002,-0.4788091685646625,-0.2914014861456794,0.42551428500985533,-0.4592431010491351
2.1740061243492534,0.062409443513361085,-0.8286993542013894,-0.18073583766397214,-1.4566847618740093,2.4080939593623123
1.1392293522493484,-1.3809055005513096,-0.026779141105822024,-0.6575567223736007,-1.4588141094301115,0.11452379151816494
-1.621749426425642,-0.23426361703327436,-0.29566894233467006,-0.19391135566200335,0.39006417507427393,-1.0205543341056353
-2.5190790361618287,-1.7076712965331904,-0.42959407404616357,-0.7227405686229108,2.0636904228725843,-1.9111593778135312
0.621561548050612,-0.15311711678434828,-0.0025824446747084173,-0.012047629839643248,1.577311304132524,0.6903865943205029
-4.113141771138051,-1.5547979677775945,-0.3441724808256516,-0.7815383469453245,-1.9347279892979228,-2.9589893822437614
1.6994692310024975,-6.60354944146957e-05,-0.439098319655813,0.32474342513532833,0.3677679628805523,1.444369025856412
0.39057842882175225,2.022389969356871,0.36507910483848494,0.35667404363451977,-1.0915490030831085,0.6941959463062354
-0.5083496827831082,0.5482513936560566,0.31066829927635603,-0.48351513910344235,-0.7424244470804588,-1.404110607927247
-1.6968674423760373,-2.231396624094221,0.17936817649683517,-0.874244853292131,-0.785710175409319,-1.6122320654547515
0.06363941246360441,-0.5615863965733808,0.2177472159959017,-0.8940203868988803,1.745175683714936,-1.7746725540849377
-2.5129198918791866,-2.4666171582106036,-0.7344306296553474,-0.9656528757318429,0.4939108964669837,-1.738720931366709
0.22140696565559748,1.183194340411568,0.4214258243406789,-0.08317855292242152,0.3728670864889086,0.3186439043111061
2.610889863508934,0.37226504645323655,-0.03752733834079175,0.47870089633982327,-0.1217898609969208,1.3662845684071359
