Gx,Gy,Gz,Ax,Ay,Az
-3.8159099999999992,-19.824126999999997,10.149145,28.629999999999995,-352.934,84.74800000000002
-2.2091795282737703,-15.957346885702329,7.352261874192825,3.0524774855452748,-1.9545509115121595,2.419260874922409
23.840729001059234,3.0613700756199513,1.708455519466708,0.22678427402211798,-2.5925649722719584,2.2079892505095535
11.292830740899664,-8.157027581220985,5.910449089548726,2.2167528226156525,-0.9607782290613741,2.4632847623540477
-2.294827624600175,108.01931525594804,-53.706930917412876,-5.923130679146539,-8.228025737020936,-0.24174246366616425
1.9658231460436948,6.947242169473087,-10.653179217609399,-1.2735338866759698,-1.4684746494989884,5.493409142177189
5.262354925387001,-6.4401477973746495,-16.171447983127408,1.5945319919600034,-1.9056949037734845,7.64415495466109
17.94687833576157,5.383574849789003,-4.11046126082708,0.4172259720428865,6.142917257641621,24.29998538123679
-14.132707112112152,-28.073452110064547,-6.360584576789812,-2.573025285496626,-1.8762441147327948,-34.11144013641472
-2.868853043250841,-41.183834535422676,6.663700644589425,3.545189625574354,3.391669607850555,-9.051045488118463
-7.26463376295324,-16.84806392499563,-5.96761843009709,-2.2991052306391726,0.6827462704300427,-6.506551326557811
-0.722660745961353,-66.28220259810466,-25.99076802404948,7.452788302237881,-9.917514686441084,1.4613343354255384
-17.450028312653735,51.43382335234797,36.14779351935148,-12.487114976949236,14.012927533097173,-4.85771285796492
-15.017590626825486,33.16709586082663,37.4947873704003,1.1946137492769704,1.2782259735538535,0.5970770974813284
-9.66372717988449,8.895817716045325,11.598922144781094,-4.864954143994073,2.5660074047520736,-4.631681628986732
33.97815230322589,-1.3383313658581706,9.208823601944397,-2.62058697953926,6.622127705503203,30.607199108884814
-18.60599428330553,27.056399727697105,4.51258924582555,-2.521248523822396,-1.0440320820551157,-14.57503851926154
-5.527972356793657,4.782966531263352,1.8379208640935722,0.52223535990127,0.9856871072960037,-6.495169174490949
-3.9105396189354735,19.069537072522643,-2.302527706208661,2.7358044592575688,2.5235354722300984,-4.468426471397163
-0.39307919200484465,-24.938704023012118,17.506330140595136,-15.366551255650457,-6.422881190864803,-10.265193917596708
-4.705632355583832,1.991434547018081,1.7476887499545422,0.9994637561632824,-1.2847535355079955,-2.378941478431102
10.488177274747102,-5.4368144097175914,-6.9242416498848565,4.511777090425372,-4.52908825122555,2.6664365735424673
-17.157302026345356,13.613318709991294,-1.699200636235098,3.8880973987852285,2.3395773159336315,-0.9558132577010425
64.28961887877567,-23.173023725985537,-3.624575303766812,-9.881101934582016,-28.323512032826855,-3.1946213805980843
13.339604416433854,15.451060259392492,-7.1046373861413645,11.736336812677624,-10.898227803946728,-5.0293849575728995
1.379972665733216,-1.9069541295518473,-1.8529259909268325,1.1286585762761987,0.24781723198333339,0.508367408558039
1.236445330890784,0.21942672036265432,-8.934551951698888,2.345433862431271,-5.741344086371415,2.5852390730630415
-0.9956502351444989,-0.1591848576772339,11.012749457283247,10.761026869275012,5.280289692871271,3.6822970240541792
-12.510519627215169,17.514481808961822,4.877484766418151,10.230216010557672,6.432570316756728,-0.6852061894397405
3.599850552944795,3.173084309371202,-1.75305379789845,-1.1414461978291899,-4.281858493863192,-0.9957271206661863
-10.964591966845555,-8.40129437328713,16.603972236767227,7.08254309893694,17.17440028008467,10.172841407216366
2.523875838275737,12.18398548255038,-8.823528901549713,-8.10097820964707,-7.033122240027414,-13.648472469800613
-8.033928832995768,6.161799580671874,-4.532379845316488,-4.346820045733288,2.2285136185392957,-8.523311104995088
1.6371676631172352,7.654557895668701,0.4427776760186459,3.084931619280599,2.0624005160409355,-2.325818279813035
-5.7149992716820375,-2.5568890711254877,-3.948635299403933,-20.312411539617404,13.624787443197274,-4.273038746165874
3.1284227760174184,5.815890723747414,-3.9170079962097093,8.171226587270617,-4.801693339454301,-0.08931949982845216
8.902182000873845,0.18294554037676058,2.4395820031931152,4.961114863939211,-10.294248435342105,2.8636286541975524
-3.4894261905718116,11.33586059718169,-0.2143148729930642,8.69361387346643,4.451801146083985,-4.236414194371638
29.115932501981607,-8.372970918507201,0.26140047908617614,-3.1439628722235176,-27.351039817277574,11.858880919269712
3.209464510248604,3.1863242752903798,-0.31491719683542563,3.9689768557664524,3.9406018784660457,-4.497482619432555
-17.43420177854986,0.4882211157137464,4.644146985663963,0.09461135883416882,8.6732925448876,-5.36921775633476
-5.9602476052506255,4.481339770795078,-4.456568537881569,-1.8685865171094225,9.345884568955407,-3.5115617768802956
-11.666322499040321,-9.148453522879953,9.798139030073866,14.397256633749329,1.2661972482463337,-0.9020054736488206
-23.11763464906799,-1.5776694875377943,10.668197421138203,6.284326147042318,7.632580613635472,-6.612804629975888
11.769973267423017,1.1866153974578837,-1.8870938966693305,-5.587922847839637,-1.0778325489676766,1.2671568403922355
-22.102603201226422,5.062237469107972,6.263091185036385,0.03263674482444168,6.721813430354978,-0.6701855244988266
28.354224435847605,1.9525354177216365,-5.844109599360136,-2.8086862085105118,-2.0651601045471195,-6.75822131893029
12.828061444165247,9.142426910135447,-4.228533615967297,-6.830728702893372,10.70904669552071,-9.151924056343974
0.4921258053000557,2.309113450573705,0.6606049416233208,3.2810158067327233,-1.6124866490034402,2.109692309497249
-6.688552241836507,6.991333362290053,-6.035904396215949,-10.78743593396231,5.071547190563997,-3.8090310117749375
8.67147075891133,-3.0067761314200654,0.4642690029334349,6.272480293544471,-3.326742210805884,-0.6609951679932768
-14.367262084848921,2.534951022678013,4.406807521388383,3.274148883898511,-1.673093310739212,1.8821848287133174
4.529898905529131,0.06906217201415554,2.42220434022408,2.542044250892412,0.14447665231201934,-3.3179171504773977
1.499548658939525,2.7274378488211455,-3.569611446591916,-2.8415526202230676,-13.628427054850876,9.069427159849097
-0.1652479487996903,-0.49123100918964924,1.1065141039815964,1.3351443036187944,5.526625503375346,-3.462446182338775
-18.31701017221076,-2.637327658576174,2.3251066553686504,-2.0063639921313157,9.977873748545019,-8.842932494133434
-0.8038767823845918,0.8807365709133564,0.8107297348494585,1.1746989493212385,3.347287657861541,-1.7914617460550382
-11.835170009534277,-6.547237578820986,3.0832182604370493,0.4489599709263783,-3.792419336693725,1.8042484811499118
-4.13763825679544,-2.946449437317365,2.489875069469316,0.49510374756124187,0.9911749969327139,-4.787801753641861
5.36196204018551,5.218944057669891,-2.540546053230059,-3.755925201032956,-2.9993175779852033,1.6128973309591288
-7.976483944648371,5.863655936982937,-1.4244995213454494,-0.8500153993078937,4.171282998579416,-3.593736060016328
20.815209054792955,0.7795003616904133,-0.6450813078848857,-2.93953144738438,-8.596456792036488,0.8814003527354449
12.17501183489576,3.98825505930721,0.6416106489763455,-0.8266768022434521,2.2528380639286287,-1.17537989287206
-15.135814142241609,0.5270492707816263,-0.6634844998242453,1.359781994635017,-0.15040071653994125,2.390203510999056
-10.8832396910617,3.67246351034047,0.4311469292562022,-3.0532754505085817,2.174150711598672,-2.1590446072700855
-0.8560198357099322,-3.3627393141048776,3.189581177657548,3.6933812208543255,-0.8980912013571798,2.1864083173368427
-12.679965675055499,-2.9701630534038985,0.15899183911774667,-0.4356823155086136,1.1171144991911754,-1.3804310204555743
4.0756335464290405,0.9934017990362306,0.8005119667597951,-0.1379681410228657,-1.3161952184407069,0.9430347325043117
-9.010950311431861,4.989363175611375,-1.5382328379892147,-2.2392817574504296,0.6581942005101167,2.2026984044407816
4.979177978431873,-2.8240179614474723,1.9096039823075157,-0.021615073898986648,2.429911795306101,-2.709078742099322
-0.9003712275967799,0.2489347090743761,1.170967245211116,-1.8655651795340402,4.446311591672631,-2.2576104089918867
1.3322358794492914,0.6471216740058052,-0.5686248030086285,0.9637971876349598,-0.1138208463537913,1.8106532089799334
-8.649841448464755,0.8996264073233604,1.0562868948154878,-2.5017805300109304,0.5955841996548927,1.924262792652803
1.9112082022106893,-1.2686657900936003,1.6808842556037944,0.5800935081590739,-1.1068119481233571,-1.6737770298793775
-0.29145870420614095,3.6744973362667652,-3.433566832644774,-0.1907945968891674,-5.239731495278214,2.313671662692552
-1.4621458134457614,-1.1472996218968055,-0.13297933032464349,0.08755571197882617,2.785867195800515,-1.7043656671264813
5.951466167305386,2.978095667708104,-0.9018698936280733,-0.7978970705534265,-9.576426375814853,1.6818768346057456
6.3067774526409455,2.129233511028277,-0.12385161653758958,-0.023162807677334307,-0.6837103254824268,-0.4039265358273677
-15.493580218854877,-1.4533801480476742,0.5182974939891443,1.7692302367151773,5.853767762360467,1.7084251387264031
-5.597072969116967,0.14504857339160887,1.4738545631694475,-0.9556008142121932,1.8762763889468381,-1.1909241806960056
-0.8778537605680412,-1.9648079157941394,-0.014682346820188874,1.2567453825402373,-2.4967497876818747,0.49465356887738965
-7.194391023361474,-3.459258480562686,1.109403727913757,1.0524703681469354,2.2968057224346996,-0.9277028506892478
3.5754650090813556,4.078908323829896,-0.5059626345376101,-1.6796691113707738,-3.0210352273490764,1.3714433144551406
-3.3345867306060186,3.687753057252405,-1.2407464068185603,-1.2577297333463897,0.5721062782981641,1.4805695636743263
2.994392053955745,-1.5549458442478903,1.4539061334328607,-0.3477873920091308,0.3103344297066615,-0.5166570073183802
7.38313529823602,0.7063022580782918,0.9901928709815822,-2.0258052599967433,0.6241583278142917,1.4986630342051008
-4.3334744764089885,-0.5696325332039796,-0.6772707894710281,0.6805860572753708,0.10220914367778472,-0.39827496817649183
-8.019619621015554,1.3229252875993986,-1.480828948372594,-0.5636349127360128,1.0629056409557949,0.019285394623162366
