Gx,Gy,Gz,Ax,Ay,Az
-9.254347000000001,-9.913928,-3.189896999999993,-5.451999999999999,-429.744,25.511999999999997
2.919336483308146,-0.11401068137801729,-4.429831270503811,-1.2068766454382567,0.9521596763844322,-2.9098716239775886
-11.425388700078619,-3.8587774961658665,-3.6018238669997658,-0.01965363068183701,0.8054302879356209,-4.751136795362739
-7.033449250091346,1.3626070581663268,-8.364899885190352,1.089180486205485,0.8533302632274629,-1.7695826714419
15.182413081798067,1.6664471227636013,-12.15058839661249,0.9923946972357307,-1.1543599598700123,-2.217411346960109
3.2883897138377405,5.125651795720844,28.351804047920222,2.1039701275264138,3.7622604718399817,0.744981403739573
4.864267078770682,13.17442792161865,11.631432300673398,-0.4010789903892553,3.387401770029877,-1.0935982857591813
0.6439550312580158,-6.681060498314003,7.1456190147012375,0.29546541772474605,4.204191709205337,-3.3894582837376017
3.773541332594508,-8.302166723006708,11.278894826428921,-0.31681345389845317,5.252886692058615,1.0857643581324645
12.277810690100438,-15.561312068608885,14.02768219779384,8.823496775978736,86.43383172951701,-25.845737404715486
6.640638439620815,-4.091347698289461,13.058356126635047,0.11462254852796483,-11.053541741591532,12.262390273914843
-7.073549826707269,8.677580659510692,11.629567300200218,-2.3309178959198227,-11.061518234795592,2.0513460902063647
0.3737325354985946,8.287060613081191,11.721431025191414,0.010032055244188265,-3.329695969754649,2.3877589428797448
0.6883108161430354,0.9982814670696795,41.71541875854959,2.556834373424695,-3.4615398573701732,-1.4234021132201284
15.278836355151197,-57.24455761754097,-63.07469682637819,-5.77907965671926,-0.3203863836257028,1.7169811869772285
5.2215639365128865,-9.814190131277126,-19.170707811008047,-6.654531155293029,-0.2326143564643628,1.8839135823967559
-0.7940665979418,8.345674949599832,-6.691845299977933,1.1908935664430191,-1.7962971174476174,3.4560293687255097
-2.1653200518297395,7.516041225795425,-6.349251842573255,0.5091339162384281,-3.584337270594247,-0.04600114034209701
-2.459932709989612,-7.33165654392826,-13.434986432848728,-5.909468391701383,5.867629670218987,21.659633338550705
-16.199915385502,2.803003168755648,-4.732078550222547,-1.5164827931991165,-4.478648838635152,-15.523140095581606
0.7785514458170528,1.8275438787002294,-8.247213139626192,3.5502479277948327,-2.4447691302390986,-4.957246250188723
4.449971932956533,-6.8312161122928075,-2.4907402074990626,-0.6548154587240297,-1.31856057405605,0.3123189151073609
3.904272754542435,5.860232209746501,-4.584822586907976,4.9773629195600435,-0.1273178729418869,2.39313604278299
-6.497697367684557,45.81028273872022,-21.478888745409517,11.975229638565864,-6.507223346990657,-2.522695699389115
7.782641687892863,12.653909004307692,-6.245874164095801,10.9138887885703,-0.9094043779200934,0.6767849250196081
3.4566248179943684,-7.1138401415022114,-4.693509503893148,-7.78526710091649,0.6067714435346526,-6.2539876123878235
6.080659854774389,-6.471362372628105,-4.393878561057847,-4.254916284358959,-0.3504054124929536,0.014599632218458503
16.340053893914224,4.838870411168504,-1.5220025036342324,2.852344034093165,-7.291975589105503,-15.832901005652516
-3.7520261179612233,2.215244398855832,2.4874609065221183,4.961226557147279,3.624574293787642,16.188092427057086
-4.7444654428346285,-2.4115790638179266,3.0668187727494516,0.9730130081929882,1.0758084334431133,2.7653768852718956
0.30105197981112397,4.258927984787393,-0.757648506303727,-2.22018723642507,2.7156658483078386,-0.897869784310571
1.3962301543757625,-1.5826801381703999,-0.7624506316014581,0.038271980748385115,-4.203312148954197,1.4814374898666203
-2.983707707295718,2.764264261340096,-11.268163645273269,0.551314267985,3.670473362786995,-0.6598235406491315
-3.924040360671746,-7.263217140907734,-0.7958355666757733,-7.50355808365892,-2.695844341918124,2.8414041306256363
-5.800139662151225,0.9314896152403378,11.015221161841987,4.409718861920206,-1.482566789886683,2.1310792278321724
-8.353172717763343,1.7999154487778783,-0.1557393647757459,0.683567102340864,1.3788224091118066,1.2927958127715746
-14.444961381732128,-7.442563760110567,1.5709373129416626,-8.815856833118918,7.298256983591418,7.196140050480146
13.401573356420267,8.622750735050477,-12.463055903423763,2.1850220270487863,-3.712625565575998,-9.631402967876275
5.363910457994482,3.1026073891479955,-1.1010128685811065,-1.7503313852487086,4.717497186475157,-6.096415700767862
0.6901678125357673,1.7989341003090806,4.5997266238868395,1.4056125530457366,-1.0675555234801135,-0.6609823077608493
-2.3328356165191444,1.9996120376271267,0.13621816774668316,-2.237379028186289,3.770517614712208,-2.040503941362877
3.8259437259630653,11.311192074473537,13.11024139904594,4.914198202546033,-8.923724730079256,2.0610621779981635
-0.702074876425367,2.220998235890299,-7.894899363082003,6.360639422045929,5.408212484918071,-2.8810367769618583
2.8364039573715165,-1.900699904779941,-8.545910123814373,-2.1798496333622364,4.230142281458107,-1.7728055071638575
-1.3972432251772418,-0.7234428157627688,-1.2493434799154048,1.9414303386297727,1.3684828603341417,-1.058639332818462
3.5956841887219557,0.9741032079345959,-0.39384925166163054,5.13215311035394,-0.5868286134156234,-3.665264066672213
-8.84143676449103,-1.710323485411143,1.4142237683881025,-3.3314707737168936,-5.962179594496584,8.025200759617778
-5.365650133579372,-4.29711787070883,-4.023790921312151,-1.7667068613319685,-5.488305000248095,4.2132982404303085
-0.32280542060906825,-0.6912324696157213,-3.8628620571643797,-0.4466261234940747,2.9435890519225802,-1.0687983526577427
-1.1178390145867803,-4.359124172726363,-3.6234182349461244,0.8415135230556741,-1.1584873335638002,-0.13512443402818497
-6.415048523944504,-6.9786669951947795,-2.5817268435742484,-3.073764789396761,9.01202346992531,-0.9958336103213685
-5.689275080228242,3.2183881983744045,3.074935190008687,-1.1301726337374909,-5.241231571456872,1.9060224141878166
1.6678496516217258,10.563677096728625,4.136348099725398,3.1246257563646767,-4.488229457596195,2.9885689285228416
1.2770179917433866,2.9861206541098073,-1.2727635432967948,0.8584241731299169,-1.326999280824416,3.000217681461412
-4.591028830720864,-0.2790611139245269,-3.654044182447951,-0.7758484714005338,-0.45125420971373287,-1.756746856387151
14.460566583819325,0.25166520407890536,-0.14883007402533366,4.9308634937872355,10.66173221318526,-0.7797049832651362
3.1777263692105935,1.6682101960844475,0.6073753498301624,3.0905094619896003,6.837372611913871,-3.38994854150945
-1.4561887332352317,1.8600336504604573,0.06863622170620554,-0.5212181366583093,-7.0503333937646335,2.7108587636647794
4.057121823281699,4.475104102050013,3.3136423652240983,2.0417021081255706,-0.29609886072677677,0.5037113556662018
0.3296721477018306,3.574357495069408,-2.6908506437350477,1.218076406172787,-3.619977957856726,1.8573312281305454
2.304971023809576,-1.3084565980534721,-0.6000319282704933,-1.1706613565986053,4.09860406589932,-1.0436840174409328
-2.0647308758373155,-6.561947010796294,-2.94077760615336,-3.175724713258684,2.5301130892894053,-3.392202230984992
0.9828918418856358,0.47609666028948316,-0.7493474090333696,0.2531831613308595,-2.5521668886704116,-1.9812834509788237
-1.3530883603118609,4.6511715228575765,1.599120512728067,-1.0288178752637611,-2.417757234003869,3.3984128567453604
-9.705464881419449,-2.1576740816724462,0.7564019218200806,-0.23565206331009902,-1.9853221049932048,-4.280788531586616
-3.880753659412719,1.5535104847252843,1.2833515471663155,-2.283441924505123,-1.0459004059817016,5.089057515233267
4.51025133319337,-0.4162272423103319,-3.1911373208509675,0.9934401283478227,3.7484308115603078,-2.8119826601222773
0.4672629153064545,0.02464595856305074,-2.5493812368717785,-1.0738232081714782,0.7967215933847936,-1.4076640895012658
0.8479539357809014,0.8780003608924017,1.1237203309116715,-0.6433599529107938,0.276190769923369,0.12486136027146011
-0.947431541930521,0.09728226174026222,-1.5661183662348388,2.3499699907916822,-3.592989050832041,0.1275172575152249
3.1933766769276217,2.069560433001887,-1.4561187946733058,3.5104421243535375,-1.6565637671751965,3.588801576360359
-1.2975589894977602,1.0946617433374026,-0.8616170346929707,-1.5586870983283312,1.4437171600791243,-1.2349447398116782
4.581857830143999,-1.103066438862157,2.010472758105678,2.534189154386806,2.1090735631063238,-0.48696820874974855
-1.0376999133034028,3.760397091452277,-1.9489942435721639,1.203981341651065,-2.65983195372561,4.451445240486401
6.709830392181347,0.8623333306889774,-0.0790274161139648,2.342700153299091,-1.769414239064323,-3.188405840627716
-1.863041333006712,-0.8383434062183226,1.0146292426842205,-0.32194907713804355,0.6134625950184409,0.34972138108114903
-3.501924958830414,-0.38078000226760356,-1.4589328130210415,1.0124729257422587,0.23647412103697352,0.9464968151129478
2.069993814239933,0.7044244350780953,-1.9232192444799137,0.32819896271057536,-0.4508715474678494,-1.5957783882757883
-1.034614680306859,-0.35585203181399583,1.2101075037453064,-0.1454803582124849,3.3169235302406395,0.269751646796048
-0.17055332408323776,1.9706005300940221,0.6996579098137483,-3.024380493236773,1.475035060786793,-2.019493373685217
1.0431099043340586,0.058136392396926584,-0.07571820759772135,2.3141751560062334,-0.010490268425434213,1.548172099907625
-2.509843552901123,-0.5307464797186741,-3.1615526872238924,-1.7438628491738264,-0.5488648287150406,-0.7766472691060994
3.837232910269255,-0.6173670752989382,1.104663717232857,-0.4579459315083616,2.6440409965873157,-2.9523257914950145
-5.3496299765954,-0.1961207905565674,-2.420858710402599,0.026971184555816374,1.5401448570785798,1.7459711501344846
-1.6315639876742656,3.1231011855686512,-0.19934565450210062,1.333150272105352,-0.9885722973343363,2.179614076577554
3.872297509838498,0.5464651313109312,1.0456255342664638,-0.7189980333084466,-0.515503677514022,-0.07081906645907177
1.1159593689800462,-1.2995429451782194,0.6019564549297818,1.553318159070715,0.29672500141801117,0.33179689865280837
1.3288294543169021,1.4117737280235518,-1.6248502053717915,-0.2916514103850274,-2.1604921077992696,-0.28150389543136556
-1.920948383150876,0.03282874407673436,-0.6654989000646083,3.008996701652199,-0.45523742727968186,0.029403246801521843
-3.4437481245184145,0.7827031562197911,-0.6929541647567337,0.11736225789847632,2.5476762925956136,0.14589365476677685
0.3046629923173856,1.8750287841336521,-0.39081740593846104,2.115690096648701,-0.9984092818215504,1.0921749704698243
-1.8102626427507225,-0.38689066739841116,-0.13642711878786973,-0.3175895439626879,-1.9908595670520262,1.589948941815778
4.16896761191223,1.4499058098478441,0.504747949084666,-0.3978846069043952,-2.0652411469171614,-0.6411001655802168
3.059067922981577,0.07065331400190294,0.3219941064684541,-0.44795199591318247,0.5314070817110874,-2.0390711735602793
-2.2980480527413345,1.0794264073595465,-0.612873970101899,1.5534009846478893,1.4191882773975495,0.7373945233628025
-1.7326602533603843,1.8083754704390647,-0.5952777333393882,-0.007737857107334989,0.5692246627775626,-0.817699661047629
1.0891980034008004,0.05525550796768253,-0.6222435882801317,0.21065213029289542,0.3929719508170696,0.39414994916039237
2.9873464627449238,-0.43787806690633896,-0.0735871263407652,-0.9364246055209111,-0.5377404031713716,-0.744229286966325
4.150224954210581,1.0277558216452798,-0.5914766304026928,-0.5308986334744712,-3.0111129145068496,0.1909411922190669
-0.5628668526987906,0.5715354953571403,0.7577591791765701,-0.4378461440935853,2.0891237585457967,-0.4364680023908268
-1.424723865432919,0.126378847736413,-1.1534527026989725,1.4612403538758023,1.6395774604022177,-0.9790100130127447
-2.41375072663349,-0.21807965003776775,-0.7167091816896237,1.3992401015632185,1.9438956116295647,-0.003365731140052952
-3.4278066800483744,0.24392488418233416,-1.3999170098026688,0.47579449638447424,-0.3209350854957742,0.9004893707251682
2.1139643444802827,1.092847505724366,-0.3330569267984741,0.028073220696001072,-0.932521128903501,-0.6245135592746959
-0.32325332660704476,0.5800142656697234,0.2811339461159184,0.6162214814883061,-0.672367558347866,1.5211068380256716
0.024612181282470003,1.0526656109110588,0.5170593937155061,0.791774770791485,-0.9977654351145544,0.18314068423630214
-1.7944109940226305,1.318389333544242,-1.4829265561909055,1.3425126248382029,0.9509068267004371,0.8797687163146382
-0.7092000060548309,-0.17777854298075546,-0.7980912776210249,1.2116506068482211,1.7690614499279937,-1.514675172746811
