Gx,Gy,Gz,Ax,Ay,Az
2.1427700000000045,12.041217000000001,-4.895052,4.959999999999997,-507.53799999999995,-7.569999999999997
12.467062266298326,0.12015903548211561,8.26834781764824,4.92029001131358,0.20597885251424636,2.747045696664778
3.28231105181393,-0.9747834384244594,8.431382668821378,-3.8505919085934344,0.7957629950352394,1.0497233148325265
0.5405788468679157,15.255154506365441,12.407923733263685,-3.4659252653434525,1.6309949357828724,2.4319499636399122
10.99838207907848,-33.72156853945708,1.960234998889856,-1.517514675553092,-0.404341632607542,0.9663757572090176
2.0167306921386645,-203.02460150301278,13.306847837015058,0.20085934371931913,0.9169047896966779,0.2769756328438541
4.500874942457977,18.24334235968611,-2.8055111467997964,0.19980239835970923,3.8401656290317616,6.952661531158077
-7.70045896246455,-5.880911065708622,-10.95895444994086,-2.3790676203783625,2.8171477027985694,-1.9513435498432514
6.444199454244912,48.42599370942939,3.400902109863778,4.8548312705866845,5.938407839179513,0.12407363211395661
15.98378968060343,34.33346693071727,-4.791404315603164,1.021535317768956,13.277229689809992,-4.579279888382193
38.76556167437876,9.450831893026223,7.3608189966332045,8.019774705912186,54.46149859312903,-38.83342817451393
3.6154861406266336,-14.912087021493807,5.410902347272302,-0.8909399932250155,3.815078014557331,14.095936837061387
10.021188357232743,-10.270567728353022,-9.301514439800437,5.8873702705609094,3.4652310873941383,1.4920269001423345
3.1652439588964887,-6.125636120629253,1.152130931691878,0.8586569776661389,-6.58261506140469,5.387474720666678
20.59847539662542,11.656746130300068,-9.943501753120204,7.487388140586858,3.4517441852523865,-3.9517311919312794
-0.8027744998937992,-59.489286670001626,-51.92291053301265,-4.370996053480905,4.321761443221614,0.8803929269742736
8.848669978858435,-9.174139388383747,37.543846575029406,-14.797355155213296,-6.5555887007779745,4.577056007633343
-1.969936058265379,-8.74829805266021,19.801335697675007,-5.66901267059148,-9.180633865296487,4.271661632499114
4.766276295619657,8.323267533248963,11.244222474652304,-2.394072938411044,-3.94849289822178,5.68539507459021
13.518938738281335,16.054231142214284,4.727736988119539,0.5861114353029073,-9.836631469506095,7.0040847237004265
-6.654914302033136,24.054011808248674,7.305502739248141,1.1285514278803248,-6.035357130919162,8.740277488948877
18.891375232404485,4.928609673641349,4.213081351998602,4.9964324985718145,1.1015511732773449,5.34618330923421
-4.320482217898602,24.23918000588109,-6.366580111682733,7.107258004914717,-0.430821957437554,1.5884677937388394
-0.8336845173798926,7.672522621795694,-0.09874748352437801,5.504225174752625,-0.04860203549221223,0.8788547930223496
-0.465827825213471,16.116406241969194,-0.6322056886758407,21.861815109486628,-4.22453676031191,1.9338940530026556
-4.947804769955205,30.428504146959266,4.557788680561876,2.8995756075139134,-0.041689644990918984,-5.872009764616259
-6.437364758002306,-14.524551987988577,-14.073059796219239,3.3094103980259026,0.03315188990299167,-0.2787158591832799
-8.753083123755738,-18.439741086196598,-4.660586981587097,-4.992744935356109,4.661824883702459,-1.3275072562970618
3.8996325755267884,13.904950584221009,1.7385748853200425,4.978984893498542,-3.073173599858184,-1.5521705355315367
-2.262443725166776,4.069921061774183,0.6389216204730737,3.1293217640574365,-0.23129311147067363,-1.9030136671706448
7.282067684763982,3.5178310520210827,1.5057684792881711,-8.992539777312238,-2.772540676691041,7.956035079411647
0.7862848367078406,-2.0774846446823423,6.440546695391791,-6.595482504933965,-1.509741701777875,-14.596527376915269
-9.82700090792193,-5.4022145105712065,5.57859624399694,-1.1680783607249647,5.891748822112934,-3.1424508372879263
-3.6999865854127316,-1.4105070743628438,-2.535852483391855,-3.3663823862955202,2.930789534592865,0.5569981294750799
6.887026951997139,-0.25658370751686643,0.7114887149348671,-14.17782470323186,-5.579177785186149,5.805005793827531
-8.136076857609206,-12.893694177201368,-1.5921321157123822,-5.678471414804996,11.005998391633948,1.9401067897783477
5.006625346846108,6.754941026924583,1.9531230782500133,-1.1147605028739314,5.330580168978663,1.8202214116988296
-1.7159849104928158,-0.26538046053291753,0.6556392164621256,9.984772814784854,1.2851216781601251,0.2892822027047618
-11.868244457084224,-13.376690942943512,-5.317878262649858,-1.512926481377129,8.7591087269299,-2.757980090823599
-5.4597478469687015,-1.541678508378824,0.22242426378111904,-5.2462550245375015,11.335657075491339,-4.534838270533161
-9.490454153339318,-7.0042802975750575,1.283649044147436,6.089695560421124,1.4764435782313061,-6.044136889690053
-5.567745406529177,0.6559855323805488,-2.9160738745027523,2.216178688864948,-2.8407815663231624,8.006547550266513
-2.566362576167331,1.0508440269535662,4.190331829320611,-0.030227663436902048,-5.88508795104304,3.9403792786488974
3.964149412329606,-1.7848137590621207,2.575702910533286,3.8874098579090473,1.424949663085493,0.7178621146029327
2.5468782575517244,-5.724399682202815,1.6349483374318798,9.350582074955305,-0.6123379074970758,-3.2915632942995847
6.688252776272748,1.4172294454759113,-1.7793513915074743,0.07608140891464671,-10.721451092840478,4.107918985683011
-1.6545942723352045,-1.2001674654441468,4.547792227193339,1.9482693550206882,-0.6787616977290112,0.17465278044726817
-2.555458408808514,-3.4130916872665567,0.1318605113885586,-4.64883912665891,5.274857859201146,0.14063410307850865
-0.6152374261418347,2.615018992409565,-4.435661285487101,-3.656238186546703,-8.440744490550603,3.221020718608245
2.0584677855321147,-2.380277950729698,-0.20991186009293755,-3.8340630914698655,-5.030951180980863,1.376053353342532
-2.1128881115589517,1.5587927735371223,-0.28647003673321625,-4.965537050583939,0.5264423985391617,-0.8710655206506116
8.997398535755474,-3.748330702481736,0.513387054331621,1.2832257917930443,-13.016817234942925,2.797109056708294
2.821747873190831,-3.40642508964589,-1.9799912784660365,0.6217466280678748,11.111547572321696,-6.406135021828854
-5.281517235841533,2.368736333721252,0.9983241654022378,-2.298409153830111,2.884880795102829,-1.921639747286354
-13.020214385172364,5.471960712144274,-2.2416455096376966,-8.301555698076037,9.845056938815246,-4.900915209692634
3.309275249006764,-2.1185564822279703,-2.5265697529181406,0.36156861150392366,4.441812769898522,-2.0840096382772564
-4.939876769349336,2.8842565433653564,0.6071963876813924,-8.176254528392851,2.1186595299232196,-0.3940412426772937
-1.2108732209198183,-1.725278064543725,-4.030799074749442,4.8448154370548,-0.13121928280373074,-2.751339359544737
9.433367244232377,-0.21782808748892252,2.219732393742549,5.710327175978081,-1.8619361547141438,0.8687440204335504
-3.375813854297964,-4.2197824653360865,6.1082304508119,5.472950107697315,3.217886600855854,-1.469518161722062
-0.36976485826886885,1.7010623685867239,0.6393374947636336,-0.16609051128178265,-5.7855145099986105,2.160546516213805
-2.180251779310205,-2.559646386697124,2.0425112104895042,2.4190240273885326,15.38746895997997,-5.937827973990324
-7.0001478741958,-2.6170185170453752,3.354294913079486,-1.5209041769379419,-9.986491871068157,3.7820375936910877
2.4596341174342418,2.490718406603853,2.420002457523789,1.0235068360913568,-5.828840271197235,4.216628632241133
2.9066691546305936,-2.855546380082597,2.5085726557717263,1.079584656860477,-8.643318667354238,5.951936476513237
1.667165019615289,3.6132642399194452,1.9531902669594525,-0.3066007605077502,0.1502804092292529,-0.10341298176516028
3.98954927515197,-8.876481147715175,-0.7861946278287985,1.250275065615285,0.5350634440960338,1.0900773929256535
3.028038750259515,3.884128001933191,3.1137744962034914,-1.7526225299588694,-0.9063561906162438,3.024469167992011
-1.0856710691569484,0.7151858213486542,-2.1578395886255475,-3.555521881182444,0.9758336765647333,-1.846264145839868
-3.4602053309474683,3.1626822793967264,-3.46139351831253,-2.1581758851774793,-0.6008827695770951,0.6176403760042772
4.467258370532661,-2.324081722275154,1.1115771697334096,0.6575722071553229,-0.2814827223635883,0.07943123529341364
-6.352316282126025,-3.519813594934215,-3.279307623984583,-1.0591698460799759,-1.125876862987133,-2.329454394661794
7.441830413838684,1.4155806103986681,-1.1605238315662476,-0.924942451154058,3.1184132198644323,1.0353984251491863
2.4699551911757363,-3.6131057531048603,-3.092377736416803,-0.9708409667310403,5.9252996943001905,-4.289302234347686
1.2916619014268993,-3.4807410555661704,-3.9139843511559422,0.26616078223187206,5.25521351341636,-2.398159767778409
-6.625315582980326,-0.021991974711360298,0.32892587722538164,-1.7085844534662367,-1.6599205961242507,-0.7174461560278658
-3.3153733607885187,-0.9947180570501537,0.8306161567140017,1.6578600613802341,-0.5982663527969501,-1.920166057747766
-1.254483987823291,-0.5800809227012602,-0.5301770725676902,-1.1869298135654822,1.0381171594534713,-1.6567611580339017
-2.2196729073156476,-3.7529550084932755,-0.7190276933805196,2.403694613702658,0.2597218354372254,-0.009297548525112664
1.8310249508004135,-3.288403269693578,0.5974582736480619,0.2170436676327165,-1.2880238898326364,-0.6029316307522855
-2.9406434054197788,0.6132444518366738,1.697182891683829,0.2311746640160388,0.8843468520995164,1.1309711732312338
0.215655645464346,-0.6465700673851664,0.631804196931379,1.272412686193169,-3.288866509880826,1.5161345429898154
-1.476809065291819,-1.0093176313910266,1.1534038343923911,0.28812169475821314,-0.8599278619097878,-1.0109551041535039
-4.758929636479058,1.7928323537580841,1.8895917095597303,-0.338700394725224,-2.3384962481771323,2.1010796917008716
-3.430122270792585,2.0250251470139693,1.8392927447201466,-0.8502772693343298,-0.3084281596645466,1.052501001036731
4.071222284053232,0.13965602428935636,0.3619563131141611,0.5093874487062184,-0.13042467854488837,2.8981647892229834
0.018486264981965483,1.4339934600422877,0.722568277340943,-0.3791296924582914,-0.025348953527509738,1.293176072669235
1.3304548832845702,-2.3265979827373644,1.3339319848985767,0.4131211130769838,-0.4058209357453336,0.4812839636552908
2.9968381020935126,1.0825186127374722,0.2817247788789419,-0.6678711450305791,-0.8666408021832082,0.5861846515793072
2.1541906485831896,0.21714584195818598,-0.035622708456754304,-0.6381954892931234,2.0438063384173257,-0.28205182133008944
-1.342364871341072,3.093876506218343,-0.8934692426334248,-1.6830764098863489,0.41402842074966545,0.34017409260933595
3.9389454355714326,-0.9267199007952268,-1.2330508540648744,-0.005967107866069981,2.0665144506633437,-0.5821027472500727
-2.2966389426425655,-2.5611428392202935,-0.7497290737920252,0.6013886204955833,0.10352032549390777,0.5260950702039565
1.7866957965202401,-0.7064577390415772,-0.22401446855167523,0.9465492154189132,-0.4313224493046048,-0.45158524154818375
2.192035072082665,-3.748066463286296,-0.59343838780261,0.34966140871688123,-0.15590648230751286,-1.090210939740557
3.169752738253672,-1.5209300586685799,-0.12991189453543295,-0.6348527158797423,1.2964043872480187,-1.659832806926806
-0.5974336331214858,-2.1124801549133565,-0.8605970698923139,0.1720596691957178,-0.03908561927851892,0.05852540634486686
-2.3316020965280804,0.14514163936863844,-0.24588647666840394,0.07429658257162776,-0.014999023560168752,-0.6330185258714347
-0.9861335854065669,-0.024383180060370324,-0.40178444047495254,-0.10295034802996916,0.7106259214980395,-0.29302705105417287
-3.045015583645234,-1.1328059412053435,-0.3110987278787008,0.5181014485222944,-1.4807205559168997,-0.6495555229496393
3.230726268875214,-4.240730731987912,0.3652887655592759,1.0374410290802487,-1.3195220258870495,-0.04991590772245787
-2.3672031534075435,0.6647372384854038,0.8042143117154653,-0.6408435942354291,-0.3971169201649092,-0.09779409822010587
0.6566646980162157,0.7147168141846272,0.695839289793353,-0.3049827340085039,-0.3362940262523948,0.550124871437467
-0.021618973043511236,-0.09150760684804915,0.38562575504569185,-0.22900770671430476,1.3834642702694304,0.3526648344475161
-3.7162015813945044,0.5340075497205291,0.48923257168494594,-0.14709731706537044,0.0028753541362265544,1.1562940460861857
-3.241114069739687,1.1621825728750774,0.16336278668396464,0.17874312196691183,-0.6368963904221977,0.1152964106419614
0.9586680209832442,-1.0604287058953907,0.8381709026605515,0.04833115340397731,-0.38311568359520065,0.6940291489877382
1.5635974348539425,0.033820484810068996,1.1201122386257962,-0.486497291621308,0.3432447400029153,0.4240948570950078
-0.0006685572209551571,-0.7820612652993911,0.87939459654066,-0.10659352704018368,-0.5691706469710165,0.6884793947144996
1.460310382538418,-0.1768049950438741,0.45635153876190476,-0.36844150543673476,0.5865513154436155,1.0119831787505846
-0.8469314264067628,0.3711066245381564,-0.48624102576659295,-0.02078245078198132,1.020939546701376,0.06058273874052812
1.0140056121006258,-1.3906701669589057,0.09109584498474749,-0.0005731666977733529,-0.3128386125554027,0.1899772336739637
2.7548552383108844,-0.380711961404983,0.11989887643564318,-0.04462057522525062,0.151913745756619,-0.9168672394082419
0.47210433749603475,-1.7090745290323115,0.4532195818479255,-0.4497070437929693,-1.3623653630284165,0.059497406617014595
2.536201396366211,-0.12702781924900497,-0.25160199715886034,-0.13463865266402686,0.268727088505532,-0.2905356741188929
0.5455689560387935,-2.3849134192982206,-0.2874263987695598,0.31778043393538213,0.801528248060614,-0.09538552415561426
1.8734375496459155,-1.3297317890684137,0.08521095337358622,-0.20434573132422462,-0.40915268745002814,-0.7886153621489359
-0.1672369257559364,-1.329824429047574,0.17569974364789642,0.3051314808562229,0.22112712967563397,-0.5867216070841058
0.0559139617401172,-0.8969218109256503,-0.24190312932980199,-0.30364930446212357,-0.13036430140270316,-0.40387522628465694
2.09241057383351,-0.6349827164390949,0.26934195239464703,0.08385915581705938,-0.29786910749284146,-0.3506844332160251
-2.3758470256857183,-0.9650593806286042,0.14556876358806847,-0.05480215636358554,-0.20111364940501786,-0.31232322357116
-1.059377663458747,-0.9982516138349792,0.2144349661606124,0.503443550972816,0.8747327071273776,-0.29644190237438306
-2.3225344655227254,-1.839511799820662,-0.04862057090116639,0.14968640239859252,0.20712550220234333,0.3966197023951691
1.2034951046065974,-0.5222020957763202,0.3641637967250649,0.15518018413120482,0.6824329246677799,0.15757485971367646
-0.9461865859730618,-0.859224088949675,0.1685821391983419,-0.02749749428723116,-0.09912363718729952,-0.05725523887392141
0.4598640524905723,-0.3125555784932984,0.3909708244324287,-0.5215181653322254,-0.3356852451944573,0.7815018218390674
