Gx,Gy,Gz,Ax,Ay,Az
-13.551134000000001,-10.290995999999998,-10.801357,-9.850000000000001,-485.6640000000001,60.79399999999999
-4.932029440917321,-1.285018883425304,-5.755769036499932,-0.6157490874311913,3.357552722789979,1.4543577558110468
-1.3360240126928224,0.7808579324958356,-8.927132828569812,-1.0859151012475698,2.6642591749919498,-1.1768839859591123
0.8415208682590767,-13.243581522355228,-9.204550370008652,2.0312878381819055,3.336116503843149,-0.8376458384148889
-0.1922622682953915,-14.988514749839148,-27.97791565496779,2.57129527875541,4.087441312440107,0.08845589204913384
6.380845039013497,2.7568096313241908,43.93426407861653,-2.435320992314631,1.9981549198287638,-2.3137377584277337
3.301257756031518,5.3880042295549,8.609325681013656,0.9365814373781477,4.715270394426385,-0.8864220799051926
3.355249382120979,-7.967172232805963,3.8111515513216463,-0.15862083864007515,8.066899934376305,-2.8152350743434726
7.317297739502834,3.360097204754296,5.377726495273045,-0.07437065425784839,13.94466144504451,-3.7779151972608167
40.657378774832395,-0.40767937065217386,-1.4546989192631479,2.4540551467640217,50.95052523635005,-4.503482496798728
-21.27692718347183,-2.3983972281394643,4.555205422170729,-2.4049757569156527,-16.71012087006391,-1.4876320458134926
-5.301221267745319,-0.6640669936894252,-1.108891056126909,-1.8631710382667983,-10.375685983933746,2.440985088317003
-2.944842200489306,3.911442551796645,0.7542586418163859,-0.5875369365617735,-8.24881116816097,3.5913169849036115
-1.3704694461080884,-2.8729398251328013,-6.964189166910563,-0.6340586145186102,-2.6676667656115427,1.892639507556272
-5.4922608937237305,-36.9803228394857,-53.98710663522391,-12.305545507473653,1.7669892082632548,0.4611505480267519
-4.369561357764668,0.00020729181078760206,-6.878528833341004,0.30176945586527854,-6.246875723727705,2.850698001659822
-3.034201918238344,0.3704995694141964,3.615611386406073,1.084536875331561,-4.208069594610114,4.136372970015679
-2.4435717471971117,9.592587854622348,3.32527540415194,3.662929729113892,-4.547949444216492,3.161182641964249
-9.800334449396168,-0.45745819597663395,-2.1656856222281196,-2.610839535001511,-5.501498674762871,0.12478035207461802
14.366559510139759,-4.348954756447183,-5.812107908489464,1.7126825483238648,9.531109261991483,-2.535349554185867
3.903198532742844,5.054777609040517,-1.0847401620247248,2.4441466928223403,3.5892743546179204,-4.731122961645326
-2.7961859396552162,6.675962589024913,4.597790461163425,5.438141553224438,0.514402347691048,-3.354528823861911
0.08155039650539209,12.69067623997295,5.345113952834389,5.975211521086343,-1.020992751365354,-0.14484646379669028
5.60987078986034,10.852935992981694,13.40817885563716,21.172379617831936,-0.2886725445783749,2.3096266644231505
-1.0349003446030527,2.856137476027043,-3.1348554689008585,-3.317041321104785,3.086518283461881,-2.5513564667143602
-1.125422712848425,-5.268241939497321,-8.654084683913608,-8.115446712423784,1.3145539729964781,-1.3875176707370052
2.3755546640221494,-1.5020146959985645,-3.3748901264452265,-6.289807018900037,-0.7811439963752187,0.9882948212888956
-4.6387161835271185,2.7868721552780107,0.39419262209395445,5.400975704495695,-2.74013980259108,5.6573780392537
-4.6688422986317635,2.7203976567237893,-0.6948276095787858,-0.3200307538681213,-9.632435532950417,-2.664287769724287
-5.625805750790693,-1.2586335323025617,-7.81096052921639,-2.1594462401458174,0.41259182558119,2.4310477010900096
-2.236349254570465,0.687382565692017,-5.10424654264208,-2.230330957613525,2.205683358201089,1.2839377289954244
1.3224163531472155,-4.0860394652468335,-3.1752080590447562,-3.4571640445589757,0.8463538930059684,-2.9693541331459485
-0.48568423257797244,-0.8502140315926383,1.0899410984025886,-0.8254977661281484,2.131575233719101,-3.240917263590165
-1.073244023041163,0.20063061396630544,-0.468457946297123,-1.9752457963420824,0.8228159026774879,2.0076558152997612
0.155305056128336,0.21067693360934592,2.989451438044886,2.7093974215316208,1.503840366553351,0.7407292904278602
1.2386620435662887,-2.15414957418316,-0.4714097104208075,3.7031140430860807,3.2558660065129033,-3.2676787168543573
2.6115038880408816,-2.8797996339219174,-1.13911589788707,-2.150484992620655,4.886862068842916,-6.684034073619127
-4.773838781035136,-4.372811608395242,-5.81548961367236,2.9549344183700956,0.3500413178174102,7.9986097029596195
2.880810750528026,0.17695968269934892,5.465687923780978,0.9232529833996601,-1.4487222801874662,-5.062370183524722
-0.41533286253565493,1.6003554888361409,2.544120538627687,1.4103967322373214,-3.068322130755871,0.6633285907571922
0.33407246874962304,2.324591441332352,2.5493392715433303,0.6538296095033137,-3.5206053530435373,2.2369278785204747
0.9348513015782897,-2.280277214435177,-5.314774683395543,-0.9172114288719124,-3.67894127026337,0.960712985071532
1.250735144328823,5.901817277724463,2.1978667090971986,4.316302106643749,2.877173106487764,-3.3113003949228688
3.2961937114962154,-1.8561159554869158,-4.738275938218654,-2.0602554792926804,-2.887720585778205,-2.0113217490687374
1.5531154514183085,1.9705133056988462,2.6604959832267143,-1.6134575663913142,-7.539555879091267,2.3467472353602297
0.3083687961014745,0.8598802382740146,1.7463886280733754,0.3867733428360306,-5.456624467819877,2.7466527599602326
4.710908932800053,-0.777369846606996,2.144511658180663,-0.04619728655446853,4.477650257704925,-7.223711244685166
-3.2759023250250108,-0.009717612843064494,-4.834860682721388,-0.2609009908043217,-0.9652631502596176,6.40479865025974
1.572919846907916,-3.0169430853319827,-2.144193243690265,-2.032104393333428,4.493327347026063,-0.5294429022936851
-1.4228876277373599,-1.468961835588121,0.7002462391578552,-3.7390165577538936,2.933137829365756,-0.25666851747396136
-1.3243797860101836,1.989942574151022,4.744670736954928,-2.989969582558002,0.579497261353815,-0.48852477967240904
-1.7937099652941053,-0.9111401528358014,-3.259808482739772,-0.4322761295858917,-3.0978472295472113,0.48981127106306976
-3.0132351209838966,2.807642288923048,3.6821250201293707,1.5023745776830326,3.7737415903117415,0.7237039144483121
-0.46171750215457696,-0.9248273136270461,-1.9737257171279587,0.927017116686718,4.35811624761764,-2.623076441203188
2.602059995960995,-0.7236622419759887,-0.14479104436799295,2.0450098114232116,2.58711906383984,-0.9858489070335144
0.6854338784672023,1.713922232023533,1.2394586515600545,0.4153433867914258,-5.66509756016872,3.2075107887686896
1.5964468250527417,0.889410644235777,1.8279344678972902,-0.5852262574836828,6.55663003513288,-4.93062027571022
0.7629219349548948,1.3848615203404961,0.536816397167143,-0.47875858104701585,-2.347337148419488,0.3916878847602736
3.841947755762462,-2.278046008661131,-1.221968951895665,2.981229010426752,-2.0014150104278676,0.04952790080593594
1.1471384206005317,-2.153856735972652,-1.2806863177706935,0.3587521394932552,0.993257501843906,1.430624072086942
-0.8918240485638709,1.5599202208416023,0.7049585420309492,-3.3002068995432072,1.8158321556105737,0.26812274571634775
0.7954353535944301,-1.4353517007641994,-2.5161108135522245,0.4439323257779956,-2.2037829420737145,0.24059962508725952
-1.6759833831666027,2.4237675246155996,0.46153520280879834,-0.8408543095767151,-2.948942424043064,1.0537843461207523
-2.826505072013113,0.8637593218292878,-0.8407019598285169,-1.059577860751267,-2.4082101495689647,0.3537902796823223
-1.27024606889124,0.002202485426145595,-1.051853828352706,0.10346098048164937,0.1035677278330569,-1.5852893425078896
0.44219048119948035,-0.7205225317527952,-0.7395420309015328,-0.31205072391390504,-4.382441567584422,1.224266601933396
-0.48616605132453716,-0.20865646905059607,-0.383500365593636,0.30496347835706633,1.97280886359114,-1.2436238260290366
-1.9320242059115715,1.1715362793433814,-0.2153503253935003,-1.520593204552429,1.5874245651687309,-1.1400809275709705
-1.0979156984942968,0.43107861413378945,0.7908845321438656,0.09690613826740602,1.1790526922452602,-1.7732203914113414
1.8823155122766053,-1.2877941178559442,1.7618594582704703,1.5630665600152938,-0.6345427585141126,-0.897683797106586
-1.269626675618766,1.4705604951214377,-0.05399786966304054,-1.3823100602076672,1.4730146513842879,0.11691191247734767
1.031758782530252,-0.9161133759499935,0.971328400336124,-0.2820871821651,0.8179511557761807,-0.5416530230087442
2.8769286032484858,-0.22553584184336967,0.2672781151312034,0.29590692097935506,1.708239158329485,-0.2601207695442872
1.3932639824982693,-0.0716471979529748,0.08935644957375088,-0.36279597657243,-0.6076266547953415,0.04423813700426271
-1.7759464088407224,0.9247808224521508,0.06581886676262283,-0.0028476602193619194,-0.4998035903810031,0.08669961066181242
0.804040990103492,0.17327008328050686,0.13257850918500869,0.37381204620038777,-1.7055845185703102,0.29934767075912716
1.3637434592456463,0.15721374873333882,-0.20941599957661128,0.8259826484924948,-1.371645850380166,1.1671639045014455
0.6010786218753419,-0.9013851509514863,-1.309172269679249,-0.3656074782689995,-1.930335621052399,0.6495426317482713
0.4883248980793202,0.10959528531765733,-1.7063809471042721,-0.2562325310076512,-0.1783952195601315,0.14505601812031166
0.5885009569941383,-0.5537610894654985,1.0351935120929805,0.8162696304562969,-1.1674241183554908,-1.1139508235745632
0.2310374736769507,0.3786903689727692,-0.41905294113865565,0.36826764149994634,-1.0416234968304483,-0.02735645525667252
-2.0482799483235685,0.3389670284374626,0.3174215857428046,-0.5125202797487725,-1.3117156842662063,0.025620707833961975
0.18476225759175563,0.5360898950899324,0.2709010497771014,-0.38120006894992,1.2589888590388885,0.12793334532820752
1.6967576164992133,-0.38910662214127795,-0.2524451173267612,-0.6001968689952466,2.6921732808108354,-1.7302855261261985
-1.5559228619186845,1.3915141649591791,-0.38260563580207324,-0.31251529246556875,0.12297210918601065,-0.33909155782340233
-2.272389211109616,-0.18745015093728173,-0.672319585889921,-0.09353123314020478,0.6379093768603568,-1.6702827690967232
-1.0338358322028016,1.2668808075576536,0.8492619205093525,-0.10910037783298021,1.5825854006847433,-0.342053708889015
-1.9469024197572318,-0.5381076561279632,0.04682281429796975,0.10546217478919567,0.8574828031929482,-0.03845962974551276
1.1292220142845413,-0.6710222884586883,-1.71748614631328,1.0213966890828268,-0.8821263173120062,0.8810752030058969
-0.14665067779756458,0.2305964658876436,0.09883180660968183,-0.2947515574590782,0.7558471054530667,-0.03892514839008275
1.688270665010351,0.013794090203624765,-0.32233163178639224,0.4235133896879735,-0.06314389248390473,-0.6903627577601085
0.19102829568916152,0.1844894526614793,-0.17620151721900223,0.8385043075023528,-1.6051212659746388,0.2906838027043874
0.11046554391248653,0.18985883389426195,-0.27015055455068815,0.28360265719574884,-4.054170902384648,2.2155739041642577
2.8356269172819775,-0.9494221436961009,0.4587306719780587,-0.28813702663358687,1.1963888736496382,-1.14342630242998
1.8617102040394975,0.8113750994477298,0.07859144764259596,-0.48425674162051263,-1.441543987506753,0.7057694906181603
1.313238355395511,-0.48701044790270687,-0.9383150286571829,0.08689970148465298,-1.1426285862376586,-0.6477057658962504
0.21689807023964247,0.8312720083788728,0.26707934202207284,-0.585834299478517,-0.9138066896324586,-0.6440875161901857
-2.1180401891177083,0.7488267172563641,1.3226775950750853,-1.6604353216186716,1.2992650317286523,-0.7982611929712029
-0.2667510852124782,-0.24722593404722926,-0.43916071770213755,0.5334009161009172,-0.6680351712135328,-0.7330372660628572
-0.6670255493289248,0.01879238203516996,0.5987810185712255,-0.40741126942560485,-0.39841755299594495,0.032508187159044244
0.44642975457294076,0.09714852865480522,0.05659003475262503,-0.3391900984775392,1.0067741589093666,-1.0078811433855868
-0.9566303582572201,0.3420999865631506,-0.2088009581350832,0.3713793439534271,2.7115595458821544,-1.599320507272597
-1.5761030971463024,0.5549159179833876,-0.42330622061836065,0.328326468638961,-1.7510818807151423,1.16227601044128
-0.7385742510495312,-0.4693118558944184,-0.05575073479075354,0.8774600589439343,1.5690276410520951,-0.3867145310059128
0.30990836575624103,-0.2452968128469195,-0.7312375972596694,-0.37174478336561245,0.07395500736560895,0.39828400647873563
0.71690712955064,-0.8795695483633548,-0.9079272254931938,0.5716026669994316,0.3601633568887843,0.2847929892825858
2.4687627901457794,-0.6138023460378088,-0.6254253811659529,1.3910906315440033,-0.5713817925384355,0.5002916578933672
-0.4972289029252296,0.34417104396455594,-0.3259531234389691,-0.5864653688354589,-0.047570153333550746,-0.16878361295128635
0.5799581509167024,-0.720501617103311,-0.16168883916693544,0.051856857393262734,0.1589277960285651,-0.22228440817035078
1.2408644942641165,0.1972537850417855,-0.3471381114508417,-0.4508519996917152,-1.5016319056196321,0.37268979724013485
0.31797489205364493,0.27637735719501033,-0.1773310965117133,-0.5593863114436847,-1.412748782121418,0.13119015376403764
-1.0672189218614685,0.06951678574836133,0.41419119455538067,-0.18074589463047008,1.025883591959809,-1.6097398146593145
-0.48308282946913306,0.42882807105791265,0.1351454367555968,-0.8646467797336455,-0.8946634475133659,-0.4856920412569968
-0.6767499937240843,0.2555751502981294,0.5236516612620541,0.3366981008695333,-0.6758161279305169,-0.5698968368078325
-1.4649087956000224,0.8507438010967348,0.5988468739910263,-0.6671600321017214,-0.3728045480766809,-0.3131598329520824
-0.6358185194587727,-0.029599429268370947,0.11103405901953478,-0.9799259840485796,-0.23098737574210837,-0.2699923334045724
1.1093365836189601,-0.508274000551621,-0.5994007120041204,0.6819181872646963,0.4096981200110141,-0.06074535261594438
0.13329462392450825,0.19480167612252536,-0.11916840157668701,0.2890436340892103,-0.017142476224405068,0.16616100861863575
0.2518440293340718,-0.2641776571329126,0.10749946036199767,0.2921701417604528,0.6957425546171436,-0.29822979294010077
1.4357635329892173,-0.32199589954205354,0.05062144021263293,0.05674770478633698,-0.30399889810822667,-0.1632363329997235
2.276432540711002,0.034354679561141466,0.06378495780926974,-0.1749293205391193,-0.018790931231833063,0.44236607148054174
