Gx,Gy,Gz,Ax,Ay,Az
10.525505999999996,-7.342018999999999,4.036835000000002,65.82399999999998,-556.6320000000001,50.599999999999994
5.853726050055646,-6.375542792108082,0.7679738732261556,1.0966092230470073,-0.1804535761001839,-0.13852945795302413
8.444048037114202,-10.303589315961554,-0.30320439102484203,-3.5341512104157737,-1.0824303569468792,1.5915829864276423
-9.802262332161167,12.481583520558937,-2.088124002424374,-0.7575292929420737,-0.48335013685958095,-0.10014985415880046
4.3818450940648015,-23.369774780286285,6.344102054852146,-2.336099954900049,0.8442924344528231,-0.3960891095555977
-6.912975070394834,-115.26392177157335,48.12606161733286,-16.627517114244995,-1.3183555687722257,0.4100766236574493
-14.895714203207755,46.32798592233798,9.313414873848465,4.015910287295803,1.7809053851847712,-1.1013053287496701
4.278146474004988,-10.655967357540097,5.402520243724728,5.660853621667067,5.0773086147353474,-4.450812832529926
-1.2802201159407014,-11.364342825417445,1.315497569064743,0.8424468461482073,5.702836214863424,-5.155232130487271
2.051296486958626,0.6506720485171109,-6.040923367437818,-0.8769218980140882,7.241245178250008,-7.8082830594845625
49.328814871442816,-22.0067118627114,6.980702540730383,-10.651152132878806,55.49811873903175,-17.58037038760603
-13.33419866816202,2.657560116952344,-10.786081072024615,-3.04082138793415,-4.221072738049214,-5.698153547252942
11.966395229051376,-26.925249446723875,-5.460176732609394,-3.122945253934289,2.4662621324906997,-4.851335048900615
3.683633837915924,-7.202126626017614,-3.015086951840428,0.19392438863902867,0.22864374764411588,0.9434455912026561
11.847508762459329,-2.7876012560613104,-10.33726446738584,0.4004457583685723,-2.422674204910521,1.5502520709375656
-3.0749813353889763,24.138609025153713,14.314142827474392,18.521093340207667,-4.132924441715313,4.247807220122177
0.2401015770449677,11.126280539079858,-37.96793443411179,-3.3096852395447227,-4.132354756311047,4.06073500760079
2.514786649551796,16.927086196659232,-5.6763800453295845,8.140964946426289,-5.429402540134455,5.941555243101387
1.231084987756061,11.764528504827425,-9.739016557829578,-3.715984194718437,-5.451194017634725,2.35942942675174
1.1776816082276098,-0.1584066552037659,2.3661166071089736,-1.6077352187623706,-5.677339074292498,8.864688624575376
15.498176432501207,-27.61208078008947,4.63668011270521,-9.975519584929202,5.93683800890025,11.174146314855461
-7.631498104425686,25.76982989740094,1.8577047436655056,6.678646553998502,-4.9623711058812265,3.931651832402113
-1.6425148021604794,17.680422353557418,2.2980849072355443,6.62412338209331,4.855459683987497,-1.4638932931185331
-1.5208323137578614,3.90188372809111,0.6767271610035615,2.2993685138186284,-0.19003221331834214,2.3237551017013063
-0.08147810140005379,40.60229353669636,-7.120592559245299,4.469244870769653,2.883231148877489,-1.8628979420519949
-7.4425967225122465,-9.048776658706998,-10.556797512128858,6.624643290829803,0.17107005376801032,-2.9939152014131385
-2.243201785338911,-1.9561687451210883,12.655050178341273,6.464374686146732,-4.061566248036724,-4.983183624535769
-7.0426592709920195,-27.602697984195164,0.4164550776371554,-3.7742129640718995,-5.151909025560792,-5.792734380912641
0.7129868093201336,-3.3041787561197866,0.6272439528268662,4.956250643847241,-2.4138478624065995,-3.722519505414459
2.3974851441975553,-7.016264679887265,0.7293683320314074,-1.2165657250222215,-6.161868019423815,-7.476787937891008
-5.52538241239929,-0.9780516553131786,4.312254727717505,2.574342531513018,-0.9736503681515583,-6.253984331559481
11.46569499359764,-12.935608048307351,3.246437248105295,-8.410765724935631,-12.850150046040444,-5.345179105693437
0.7378033415513522,-8.827642432562346,3.6977960057377257,0.6134108983588575,-2.1479425319121788,1.7848593470599083
-1.2774480244683017,0.013567537061034265,4.038204709946106,-1.363087329122405,-0.44983336760122566,-1.773704421628588
-0.32554502894711757,-3.6017867569487283,1.593878220782648,-4.7826793615388095,0.310050820191189,-0.8076772103728838
1.0265787142912266,28.289984794621077,-5.235889904961133,8.176233090649536,5.360178719892071,2.3980431552027333
-10.107736742908472,-13.778255517392639,0.5257089808978317,-16.428454973709716,-0.004911044999846903,-2.8283683497892462
-10.249188887061068,8.507839931115349,-6.352786846612379,3.5221401627013136,4.785311355557158,3.1339643679995737
-4.709199099999489,5.435983610877512,4.232065583539405,-4.312746929764609,2.855362756415088,1.42473892747102
-9.07626863842573,7.207706972808343,0.989266557085161,8.235696837981427,2.602715675046501,6.254940170453766
3.282164657808651,2.324329793891051,-3.1425115704617728,3.880315202856551,-5.68483164304937,6.7811007662098275
-9.732452064333033,7.98911676350445,2.254610563742993,7.260758797053606,11.178055899160471,-1.859113522889741
0.6734784492862338,3.2058995204010485,3.0231494034419177,3.686355787392188,0.8160823827195849,-1.6155030504723742
5.623932135710953,2.3236348218110656,3.251675374025592,3.401145794695365,-6.7404724990341895,1.4009456889093501
6.303555669304329,-0.35316735022605306,0.4879959514724317,3.5869396007487957,-3.0737451109120006,3.8518316119112934
9.19126111213995,-7.089953266379465,-3.9246281855690195,-5.267974189447596,-7.63087552900795,1.5276401381740667
5.00069278251018,9.001321025049654,4.194171763986397,20.175138396064057,0.879409562509275,7.008552105793233
7.030252810705305,4.142328557548414,-3.0623195841567084,3.3601950668418095,-5.4831341276978565,0.09103386788252466
2.932833696816525,-6.242174908314897,-5.388573238967149,-8.477872156399224,0.0698054539692411,-0.20848212381440057
6.513032660192407,-3.6091390931661493,-1.011753841068701,-9.704537119420959,1.1096698429018024,-2.3985522109611526
-7.837098785496819,0.9127255774073588,-6.40601210758879,-5.292362372737218,7.273872861962275,-4.8570298217552015
13.600028992425246,-1.730830764836726,-1.4181629265764597,-6.235929642467976,-4.817395629032661,8.721837904931286
-4.823461108412866,-0.28680337133080586,-2.375566948259598,-2.709430437148739,-2.895393462322295,0.6885537963241517
-6.083164979456367,-2.1235279319662004,-3.2002788068635954,-3.471594660009563,6.179770432003469,-5.608239817144659
-5.927423258471603,0.29883848572794514,0.9811933497710995,-1.7150473814375333,2.906328753146835,-5.409604229411454
-7.94477310863906,0.37665077584224776,0.7760839548969977,1.0785004849190623,6.400105637525874,-4.17190484783529
1.5398542293449,-4.099466340555432,0.2752741527107929,-15.764633203391995,-0.8560829030736011,-5.786051036443675
-7.029475507066096,-5.119357676590605,4.905609248826686,-4.901058118867177,0.12185375487464714,-1.7566065458505544
-1.6513619990710808,3.696118016261697,1.8347347279363084,10.536597611470162,1.672007473733297,-0.1275064616213285
-4.35048351908276,-2.8288473563542693,2.8855017011663664,0.7849766944990582,-4.147221630918592,0.9372372195397505
5.391070456908457,-0.3035293138642806,1.5873258070112346,4.038208785888322,-1.9348584775575317,2.3283108625266093
-9.268858616723422,1.7018753235531479,-1.5019853895657929,2.746217960658165,3.0252322680822505,-8.804377217740498
5.560241989036632,-2.6928998488439646,5.629494900692727,-0.3962321171399237,2.956615526227181,1.6002357150367559
1.5411797235933369,1.2597734436606591,-0.2708119993434428,3.80172814668292,-3.0845522122765874,8.011983036248333
1.0050777656248915,-2.962179397706152,1.3179548796858054,-2.260024320195686,1.6188437075614237,2.71943905664648
0.09591760678275074,2.7768985373278237,-3.3372205255519543,2.210635645265125,0.1492641286049364,4.66466811239316
0.337465795950075,1.5372356404878242,-0.39679838432158987,4.411778525634695,0.04567032537497352,0.6613066291334768
3.0179873720599795,-0.0903202038576369,-0.2868532418498243,1.2833917167603368,0.39064931421250065,1.2348642400206973
-1.7300636383479286,1.6368193536648903,-1.8703549295258086,-5.415212422892206,0.5464687778319205,0.9936373325198997
2.7742113065255363,-0.4364290138360852,0.11288270557103103,-2.039507871243204,1.466754471609213,-2.036396763361944
-3.5987289886961875,2.055941648829262,-2.237392889065096,-0.7180691472639464,-0.4564324460751984,-0.6396262334798015
4.754426495037634,0.27019853645855096,2.738971486424165,-1.5240891107872367,-2.69902104296548,4.429656684231952
-4.559416465574298,-0.29612744052854656,-1.9128667245902888,-0.8430564029051475,-1.128369306742155,-2.5744536555887545
0.842108793052093,-0.02271564551860883,-0.2760760436008939,1.241007061990823,-0.2177426818068261,-7.121106002838205
1.3845307749446358,-1.1211501271900317,1.045980081906402,0.4115771577751799,-1.2076415990011369,-1.2505615052369299
0.8052812371155486,1.492216162709018,-0.3794478163435395,1.0133777038761504,0.16710577735039772,-2.6839778813630284
2.1113328808084892,1.7018946317975523,-0.02419291261590195,-0.02976511997552911,-1.1697699837087794,0.4411398456502511
-3.188768301524778,-1.8784105999031488,0.04955695509830584,-1.1691866418187278,0.19292412458462022,-0.7736691878662426
-0.8359909209235088,0.22582346350608748,-0.1225197515439809,4.393912829241633,-0.7371467418463011,0.688487883895148
-2.0381104484371213,-0.2066464013182227,1.6743106884239058,0.5952767976173414,-0.3580149799451877,1.99452260260669
1.233678400802161,1.551755247278165,-0.48903436431990854,1.999997051323867,-0.36538027661093203,0.08011117277592239
-0.8250264268573806,1.7124414868611495,-2.641833563284326,1.7991707092280134,0.7176405996800752,-1.3663809113850447
-0.7351135635084501,-0.20329769190761793,0.6566291991993072,-2.591242931833001,0.26827165621102433,1.87916188005082
-3.713066872807307,4.491375409018642,-2.082631769508763,0.9756766248089411,1.0419592732858878,5.828679809288962
-1.919875632576123,0.4825826208474858,-0.0530918153766997,-0.9201153087277304,1.2106533398570252,-0.38257698709852994
-3.169955094599011,0.8496147380092582,-0.38628021996256484,0.35224582835711443,0.5095217825147654,1.5842316592901566
-2.055455213593922,1.4773156315179865,-0.838650976700232,1.6792781251017301,0.5064035060479284,-0.9461865124822733
1.8449755841159918,1.3809767791478342,-0.6219495040347767,-0.8663594578483692,0.13667426878733385,-0.389072832049241
1.6409706707780964,1.8911846742601055,-1.1454320774621067,-1.4392377610617852,-2.044174131783922,-0.940203273510455
2.3449912347608306,0.10123570015172373,0.9671454438389125,-0.6374311951911782,-0.006752376502175639,-2.212220022184468
-0.6869321261160851,0.7916736323463338,0.5892335546102943,-0.51003427028979,-0.8715354706849144,1.0185609256607588
2.14168764071266,0.5876246312961015,1.0617298182100101,0.7451932324848105,-0.7082643395094101,0.460207964161201
2.7078943405123574,-0.47194882075760025,-0.8368747052643348,0.5409420091878475,-1.4189023384343482,-0.5007849114939403
2.0027189426706125,-0.36827077062030594,-0.3055090543292428,0.1738622823615846,-1.0230734620355997,-3.5947835308115907
3.154852553747862,0.44570755854274136,0.21876688368348568,1.1712524552642916,-1.7606826608700397,0.8426031797018813
0.437642695118895,-1.2325466472301998,0.7209927067957018,-1.4530455797841992,-0.59807300185183,-0.16238470733697696
1.4780540934055333,-0.1644126718293202,0.012970348476730016,0.32970138041085706,-0.26138492774404976,1.6710764094392767
-1.9865494843797693,-1.1061798953440083,0.3450954172973814,-1.2777557973988598,-0.2843155255858968,0.18954852259120614
-6.321156216112093,-0.6638423091893009,1.1455897191346538,0.9010309786225974,3.4163215980386488,1.2932189737347615
-1.8864309604942489,-0.4929742896478341,-0.07596143089953356,0.1425703207234198,-1.1655286254221644,1.3536383691886527
-2.3245052492008837,-0.865067225227492,0.027424236823584143,-0.2898337199189053,2.2479180500463345,-1.0741083350793388
-3.472669133392006,0.191360332279357,0.1661386501099696,0.3104106134854229,0.6667896340863864,0.4418111714268358
-0.6642338293333385,-1.0139893539575795,0.38616358260891775,-1.5754177559405753,1.212467578051248,-1.0214415970979442
-1.4763358190583666,1.8495745644547492,0.16305925416662925,-0.1906837599535546,-0.338809342214536,2.5447891986803604
-2.3522598376069666,-0.5926139736019947,0.5671909042380188,-1.1624394177067339,0.9951319966885014,-1.2790472397596075
1.2877951048540737,0.3572908524574713,0.4540484418271478,0.5833612229961,-0.2868751565787033,0.2524821697742572
-1.043048305622308,0.5907558363460205,-0.08984320113858046,0.4894175368408784,0.4259336107201081,-0.8650958112916004
3.4213829683447408,-0.09988588615675398,0.1281644165344551,0.10337274854731314,-1.1707378121631504,-0.3568977559622267
4.39070401790236,1.3657461668070827,-1.4900814818718717,-0.9910218339539434,-2.273615222182574,-0.062346344079510174
2.4259865382516552,0.3757231673594021,-0.31945065273040985,-0.09892302334903683,-0.15883775769710215,-0.5754310731547767
1.5993361693847752,0.324374070257223,-0.5668779304169435,-0.37516129262953657,-0.4108846636998807,1.4927184214541893
1.25949187661742,0.640592984273501,-1.0172183051718422,1.0201381794338362,-0.16811899471073488,-0.18606764574988477
1.5949690662968101,-0.37756512570473744,-0.6108355529445777,-0.2664054517309773,-0.6619571358718175,0.08408441918690282
-0.42554420978076757,-0.680909180295859,-0.8631920630875338,-0.171954801331428,1.2782973704181952,-1.2710151636710694
2.4712251417404203,0.4654975784130467,-0.33862791710707235,0.5163869326788079,-1.0054934710960504,0.20486013134691392
-1.5312723372381305,-0.5863354055231552,-0.2804057444779853,-0.47570762601416455,0.7305302402163641,-0.5663836900511111
0.2672620155610883,-0.4502164920338288,0.40558938310142956,0.8358184536781712,0.015106993981793174,-0.013920879692378062
-2.694138457187427,-0.9231854492778742,-0.25622899348916145,-0.583096431667284,1.825230829400302,-0.5034763640307803
-3.347929244661003,0.47335329331002357,0.5580602052991384,0.32135862185796343,0.8917294970430343,0.7212179267021323
-1.5564024151266158,0.03198938052755086,0.7933320654087788,0.8571342065950891,0.7731770985331641,-0.45547809747779744
-0.64370513016294,0.0350607951876199,-0.33584868913662735,0.018327094337087575,0.06342552840498833,-0.9038795306879941
-2.2726780715608808,-0.2276893709604218,0.36199057727600253,0.2340940403166367,0.045113981221378385,0.004603802001648408
-1.4817195174325761,0.8017901909333525,-0.7271706811371641,-0.5362180064208644,-0.16596398266734133,-0.29328232698427165
0.7270027170531415,0.9721112276680947,-0.13513284058771832,-0.4468663732776238,-0.9194912136075001,0.6538187761576267
-3.30799856120867,1.04550004177373,-0.16674584525133834,0.7744106782017465,0.750290965665636,0.6105409678990872
1.627396524069178,0.11766715509934436,-0.16507710648150753,-0.31448352190626183,-0.5892000841143786,-0.24655192132358972
-1.4035602144840453,-0.039606689803606994,0.21712855424710756,0.40150030893590416,0.09198901748235408,0.04030818808499369
3.1414471311127965,1.0575023976890643,0.31901889367141456,-0.11806087694302501,-1.5145935839477984,-0.33950820323429803
2.164366316598844,-0.12708908178397682,-0.6335776981327919,-0.5520151543820162,-0.6772728553848955,-0.34437864641258586
0.3588482643923607,2.077767762158811,-0.21611242696558913,-0.039926462898569576,-0.6233234561057639,1.4597164613481783
1.2586679261001386,0.5433139962511017,-0.4673112290933394,0.48816375814877266,0.13853652358552843,0.41771546352260536
0.40391996630599536,0.5344990623514345,0.20558004719445658,-0.06674869438936663,-0.3850206128901266,0.5174557640222928
1.382449470421798,0.15153247750055646,0.3148151737158564,0.6446328278629873,0.5769757758837659,0.11910850987719165
-1.6852195268261922,0.08037662727779421,-0.2211771073304824,-0.34483639550414874,0.5326988811471799,-0.07581951304483406
3.4836829445768873,0.6650522254408028,0.565348224772916,0.2362631427891325,0.026958624268614728,-0.769836244168669
