Gx,Gy,Gz,Ax,Ay,Az
-8.101606999999998,22.83753799999999,-11.601477000000006,17.712,-425.926,48.231999999999985
-3.201657077810138,44.19876251618411,-6.410976429020845,1.1768685658877835,-0.885367455966293,0.733381490658289
-9.103232720038092,18.481407077092644,7.326856774470186,1.103298023518983,-0.8503796715650491,3.159530041230325
-3.2365737743207945,41.46563629263985,-10.373461294774684,4.039631971113618,-0.10987894264684131,5.874155167356233
9.106076710682498,117.52698199073183,-18.4685588255883,11.834198304948375,-0.8141117600665038,7.214693849325158
0.9885378063512897,-76.0526592141784,16.543157900887778,-6.675841826908347,0.47246205590170076,1.7036726603556878
5.531727197560742,-29.808775820716853,1.6009723910019593,-3.7355809335158234,-0.10992750100623927,3.702118547318335
11.534981605284278,-12.96884301343446,-1.3790107848030555,-4.31980615889467,3.2819900047157398,6.243457647261725
13.268036327184149,5.4507054052170645,7.242346346113293,-0.6666864864637403,-2.5614655411427245,10.118749122209147
-41.63803564462957,1.5630127396005058,-9.160423844820686,3.375314894092453,-10.941127848472519,-33.241542364520775
-2.397501089274143,30.790631594253888,-3.255870899726826,-2.060198152112888,-11.280940869759295,-2.514420528240146
-4.585455417715871,-15.098115345373316,3.334156871519263,-1.7906577400383044,-4.772286397074535,-1.9814205091743475
-5.340426896532621,0.20276558972371994,15.810702456600625,-3.4075566593880247,-0.7890756433996939,-5.599659649902703
-2.4105651902973544,67.45428163229268,66.07624071033342,3.4373912564341804,13.86091717949682,-3.447455465085771
-1.3068141491216423,-19.879628267604637,-6.152460028061259,-6.575041323095525,-8.66358056121904,1.9681476262205777
0.894740086807836,6.2932970884850015,-0.04700133930723718,7.217285759456955,-2.269072696711406,0.41634698819918226
-0.17058055541394213,-8.790565823157456,5.692701294052018,-0.959959955580678,-4.627312542719178,4.60666809866995
-14.170142920510866,-25.833655510909693,-4.993914502409792,-0.8662156330792028,-7.575702183689307,7.774019965837906
3.1050197564097086,-6.023787324034366,-4.344523543569618,-2.18992952552073,3.602884586109885,-9.053407841797574
-0.4015029533515505,-18.004563897238604,0.34248063022177666,-2.621489816064848,1.5741424058099176,-5.05383443148342
-2.4044152561760725,16.4012399580949,-1.1879864958526278,7.365014679827864,-3.596930063208693,-7.141971123947336
10.300718489848126,-5.7427248880672135,-8.778867283672533,-3.9168081886136976,-11.069874891344707,-3.937713114141482
-10.908522531149869,-42.891579511791974,-11.720452082137616,-11.926677535847586,0.8615922410448352,-3.248049920379916
4.619330893223529,-7.4412327539571335,-9.7656190104682,-2.2383072878938206,-7.020711102681522,-4.672114518299689
-2.1564140306573147,-27.027142296839195,7.889647405136134,-10.697009217714252,-6.405507725213017,-7.204613506010573
8.127312090733364,-3.8367752174717014,-7.763269744161888,1.2933316047678725,-12.83036031124123,-7.102026780155038
33.78579436377153,-18.48084541828659,4.149468924285797,0.25171351215838567,-44.238687249845434,-13.136028768704968
-10.16707858463693,5.74101059446482,-11.262130237599516,-4.415695952620884,17.65495237653858,3.6653864682384394
0.9554387281628216,0.20056074045474936,-4.3300653772050195,-7.577503625628237,1.40817471082287,0.35859584456972127
-8.754442558410627,-26.078752394195163,-4.28275128001197,-2.285166401941831,0.5946379719431744,-6.272909386385187
-16.839861766431603,-3.411724272664614,-1.0032343563269626,5.894339827410895,3.469127226690664,-3.9835119746084535
3.170567927492743,9.677544096056923,8.483597420261091,-4.087807118654387,1.044523558960727,8.357001871172404
-0.13990978755428837,13.784160766555079,5.847024911192179,1.8360535442369175,2.1045540758836565,-0.06368184307490221
8.484092508689757,6.596055532493626,-4.871699738706233,2.972054633774302,-6.5899619905509965,1.5442674018273026
3.0973548389527754,-13.189202032729861,2.506917926793821,-5.936810041718936,0.7353286134050228,-4.657091618624488
-21.66380314599884,2.9982528913951665,-0.6324628408545476,4.449916320004476,11.622830444446691,-14.898017189743562
10.2744028868273,-9.617459047734242,-1.6054227245234651,-4.133092592501402,-0.6270849475865298,-3.1802035874875845
-8.598177516541405,3.9686349412941855,-3.7110616127029066,-4.623032415650035,-0.6700640828755384,-5.1477552969796765
-1.377176718725314,-6.300930742320567,-3.6511839703649085,-14.85441144168463,2.014407960195308,-5.567304580620716
-4.448678988594807,-18.096390200297513,-0.5485683694413632,-13.248395651328625,10.569584765906606,-9.751820913722021
-1.195118231743813,16.807113851839482,2.653604380455482,3.9779150108200687,-3.644481591720232,4.021545444157984
0.7544897211791138,-6.842584623488526,2.347945808768406,-0.5123240792396055,-1.2360691963683632,0.744931060650108
-6.158661434744414,-0.9333174668277575,2.591666185900926,-0.16752402274183087,-7.245093448050964,3.6901934518296233
1.5809426014282382,-4.232618701720073,-2.181568204677903,-3.329838308148948,-1.2957308717936216,-0.8554215504769578
-21.145845547999937,12.125808194351114,-4.908063526205201,2.01728253125019,23.786067652911306,-9.50556958807991
-0.2522384962123887,5.235411862787606,-2.102586313516816,5.141077208333438,1.8045397538452415,2.1927556891678615
0.653313524302245,-5.149099986095091,5.754607398366297,1.5075324242949701,4.757064717718902,-1.9092683424391312
-10.338137029831099,3.1478107583452912,-1.967487060562579,-4.058795270142425,14.615810309951993,-5.08365149210793
-7.365389421597051,-7.414100509201906,-11.579630461427278,-11.846231318097391,7.840686988806004,-6.451942245611732
-4.475535806845169,-2.1410552822556164,6.935483306178023,2.742092277846434,4.810176685689228,-2.69405375211318
14.16856329896494,-3.936184493903272,0.31869294481419147,-2.498284917529423,-5.71600669612196,0.45380328075802934
-7.3777108144270835,-1.491453984828938,-0.5164579090201112,-2.1719883827706408,6.152667347244318,-5.3664138098132685
-5.212856103052784,5.260022605977785,-4.831986673024764,2.976770006137937,9.537609597061193,-2.485227366722432
13.961412526214206,-3.127502720401622,2.8705899501484247,1.5506150923380393,-9.194840399220507,3.330653879594735
-5.785390043103269,3.2417882062677768,-0.13778731207798717,0.5847655729548668,9.135272537818368,-2.058528842427527
0.6807546601658891,-0.4293277209320072,-1.9165091765456845,-1.2572275270744693,2.9958088249676935,-1.2108274082243538
-9.57867899606394,-5.77939801192987,0.9117179307282424,-4.717104167479728,5.287076499168144,-4.003147310609286
-1.4829959980126373,9.843172371908798,-1.2047239615900764,5.155956021454326,-7.598347306702871,6.411798274123057
-5.208274453572939,-3.075164745187657,2.0849684329077296,-5.595870358847206,5.405604192347311,-4.582758096717285
-9.803188827185775,2.127247455619892,0.07073218368775458,0.703825085277344,0.7896615367974538,0.7825763472910146
-6.030311369348109,-1.3424534924574545,-1.8057403538503856,0.158779616634258,3.2654019256667173,-0.8775775495175225
-8.777579892368943,-1.3540753725200463,1.2574453907404808,1.562317496344419,5.68391311389613,-3.072242388373127
0.830334649836065,5.676889357889079,-2.3745266595990153,3.156524554555875,-4.073225225193902,2.717891468207771
-5.279676004135471,-4.638844215185625,1.6228962062781125,-0.9009571697158967,4.6384330351940015,-4.268539433609118
-7.190592497632874,5.3853282709921775,-1.391996840545013,0.4182653639504055,4.356357392288933,-0.5134721057723233
0.8984768813808981,-1.7177084209748223,-1.7721229976016295,-1.3577535584982274,-1.6024418923551245,0.648192958529979
3.5578289359637876,7.785715975290915,-0.12076851526900767,8.740627839273397,-3.762845769739321,4.334007258560481
1.8694778195072168,-0.6750426938938618,-2.656382168191234,-0.3577780383735816,-1.381006781734519,1.848294492951082
-0.8738834109039227,3.7041015323202604,-2.5498379433180998,3.5091147668373557,2.780911293167732,-0.5349775379821549
-1.4132698275582767,5.0101946343491885,-0.1339631064422071,4.8524769190244506,1.5998140614422884,2.0395594645292885
1.5977341614465077,-0.5017552761056621,1.3133448370301812,1.6452039816019899,-0.009897989264849638,-0.0049741029102514656
-5.282511400586816,1.0600640397263468,0.29274100202295966,-0.010523338415806938,3.811858732519337,0.9123862989955276
-3.236553751957802,-0.44095351684226847,1.1386373687030866,-0.8861681115935152,1.678674754553892,-0.1007451356772342
-5.178936650768119,-0.43127907462796156,0.43735934610659705,1.824801908763497,1.4593665510584237,-0.36781032206146214
-0.5558734572855931,7.470758477806116,-2.1254744275249986,3.622659489048706,-3.354975762831881,4.857488688131078
1.6560345888386319,-1.984229445830376,-0.17894884847722867,-2.3735286007639345,3.1393431627781756,-3.0297767385039425
-0.007859462930679184,4.810040033278229,-1.425301742124586,3.569158857750278,-1.794875060799477,3.6360511663538437
4.294231294880461,3.0023175256429786,-0.5831546073702203,1.7268612243106964,0.1312473076233504,2.0755058515278897
1.1868793850192978,1.2127649734168398,-0.3146669668430542,1.8972712692416207,1.5468836922653098,0.7312659167011718
7.260060272367594,0.07240540565728515,-1.060895083997848,0.6041068451063922,-2.64806599055254,0.45003825172989764
0.165742414333374,-2.392347275265662,0.4636895952230867,-0.9525302519798489,1.483607360740041,-1.0031672601386235
2.924530481178262,2.480642821515196,-1.572056800347967,1.06118985819035,-2.082008080921633,3.4496402303629408
3.5945458307662985,1.9249590597943216,-2.48914122965659,1.8797214754226785,-2.597922575334741,1.6853464566436342
3.757823337725122,4.463242487387419,-1.9746967005007563,3.0910697573888433,-0.7220554802041614,2.0146747542650942
-1.2625075360019282,-2.249008979631345,0.4546006814389931,-1.2941949233086913,0.43545555225543,0.0007246581371929128
-2.2874241831253874,0.4892206512265649,0.01189664820834227,1.1723225152738226,0.7795566358302792,0.24696790310534295
3.0916046946593214,1.557416922637116,-0.7765454556350455,1.2429139502220652,-1.2138065161957146,1.5547572942948615
3.4606613358159453,-3.1610424993444495,1.1285505508197968,-2.6838383526770553,-0.5060751936434091,-1.186861030735113
-0.8571466275814177,-2.365309363303796,-0.48697697380040594,-0.16210472737315312,0.6352194810332555,0.5968056869905813
1.8304731579328717,-0.5784729686443751,0.7920824137405147,-1.5122512602855507,0.48924476811184064,-1.707715992085115
-0.07470256915127971,0.29799992811343645,-0.934940469183396,1.670695587542666,-0.419402763738067,0.9713345650169363
3.806906126869765,0.5899493051199549,-0.4124007982851173,-0.0939261662629412,-2.407092457609622,1.8796604520291778
4.18001708464661,-2.4515876575013418,1.4194284895655978,-1.1383731658707188,0.35142648905573304,-1.5657170080583942
0.30862641225533316,2.1216628671214464,-1.2298662029034364,3.0422309381273958,-1.701797336780244,2.475176975944466
1.9709151901786128,0.553917550957492,-0.47000241485974087,-0.4210795686273948,0.9606775192955646,-0.46855377426521333
2.054111282479527,-1.493419575106604,-0.7542448450490312,0.7592735035226428,-1.5418063107080715,0.8550026218058849
5.33133694095981,-0.9403612404353412,-0.5213960343174436,-0.5197704011632404,-1.3352008946908498,0.08496266959068546
-2.059940214787682,0.43530624058338796,0.3533599215077788,0.11911340879084006,0.46025849424078824,0.05064196922842412
1.753884917576147,-2.3124134454434015,-0.972601520722536,1.196750149356023,-0.9512636096020457,1.3262437814305832
1.5688801315892684,2.063940110321439,-0.6340010612473646,0.16187907658084955,-0.6475701165175298,-0.5166653672944724
1.6717689846109665,-0.9874560006516884,0.2394289985054498,0.03389088380218891,-0.6370336403370839,0.37803740986844325
0.5006561657440685,-2.6927276304276813,0.8099826667733531,-1.3150283618771206,1.0133159872460449,-0.812423000465941
0.5253460747989154,0.2191809410795894,-0.02275892803698054,0.4622060135983311,-0.3294738936301247,-0.0644331841811383
3.7798757487384735,-0.6973524620827433,0.13308710892056655,0.26881556612942925,-1.5981308141906823,-0.12729045476554257
1.6709270541101102,-0.6841855006978598,0.1068643999870261,-1.6570414360270749,0.328542386503505,-1.209791770978353
