Gx,Gy,Gz,Ax,Ay,Az
-11.612603,3.857875000000001,-5.497784,30.985999999999997,-508.77,12.613999999999997
-2.8421449975909328,16.8726985445913,-1.255678220433645,0.2992678725532849,-1.3127847695818784,3.5992826742116697
5.868413151229437,7.403771394594997,4.820585645369852,4.619916607754961,-1.3114014880442062,-0.9845824933677002
5.169623752180167,-2.412190590512871,-6.8808197286310335,-0.470080779170719,-2.230304859062688,-0.13995628230354923
-3.409284462213155,-5.444681884981147,-7.316656173431333,-3.6564105109813614,-1.2339585500727956,-0.06858983360953042
17.45573261618368,-115.24091391562311,15.274069995990613,0.32936825889539484,-0.5298791371052866,0.9995982107061829
0.054257571148575934,1.5776642255435374,-2.6162273079762444,-1.1562660911224052,-3.144200624741848,-1.469555266468047
4.571322128820784,11.430593318432631,-6.658941908907422,2.3584548198472417,-1.8600275099583974,0.9647557575069807
-5.097808243125225,-0.1970905550894297,-3.326862317107209,1.2921881450489279,-4.6747612922839465,1.88862159501107
6.210249723486186,10.741675970657681,9.17117119621285,-3.4821613584882294,11.754697254111374,-1.51872296227842
-15.087650448499218,-8.316337427013202,1.4174828854419816,-0.33406459534858945,-0.3742302977737102,-47.620693675773325
-2.828987266526372,0.4965317702456739,5.229235775293334,-2.969958802064248,22.793449968577068,-2.3827527585959927
-1.2381727674165224,4.232093637477807,5.219559934099488,-2.453665973733027,-0.5877215221027119,3.294899551667706
-3.682404170107942,-11.006067671189166,-2.015035482647404,-6.514754582206467,0.7842169104562786,-1.0087201420277931
-2.1559048663106397,-10.266700790467864,-3.3786421533071858,-10.957229737218537,-0.6563933981944936,-0.8695590948581999
3.4273071910159176,-31.28930342983854,-65.19490686173204,12.661411419550829,9.235257174582301,0.5807268009599932
-5.796701816737537,-1.8926802467985182,0.6110832138857949,-9.48441389940265,-1.8185750565896135,0.4214147832849459
2.4129775569918115,1.7682364070462187,6.354366799202063,-3.635889473427563,-0.8985706310823957,0.5700778457152142
0.8250066965525148,3.503575844661652,-2.2571707742648766,-0.3019412066763768,6.768597585203376,4.894156733252136
3.504081579969517,6.620248767441845,-0.8113683847120782,4.437245618287876,-6.133426078098342,14.102073032554227
-6.56597773349271,4.4895642680508185,4.843455312124522,2.4053227191883275,-2.734614230209311,-22.520868793629393
2.2404045483417954,2.6393662082672615,1.233544170805572,2.931437847603621,0.7551494210166265,14.118808486514844
2.0615369257030163,4.213771449456255,-1.1800385003065417,3.946290388884113,2.318169615432785,5.746555115007972
-0.38277393177464225,-2.562614224032844,-0.4107297475027153,-4.130444809038857,5.842981124315939,0.043191145518945595
4.9645550805906495,3.4813277054614353,9.863516422616172,8.65181435085357,-0.98415392940794,1.846050434885379
-2.151559970294615,0.9231058098784247,-0.7249966020722625,-6.0023619651462665,-2.6169414423801407,1.5404238069302147
-0.1447098881464315,1.961885838001903,9.68878950676406,2.925849678213349,1.5522621363467084,-0.7455399296378813
4.19797058564849,-0.8744036140869447,3.0645221741957265,1.83604129499752,-2.0092420802095496,0.09826912851359526
2.794569004419192,5.445707576393077,2.432362714291313,-0.10826893262585058,-1.308467381424673,-1.8466599878607344
0.3947740947036352,1.402040386239619,0.4096402609668134,-0.7660208360982195,1.4431994632659042,2.340523284783144
-5.965971689297826,3.0024087964462653,-2.833482828445506,1.424973323974803,-2.3296721639560403,9.12889898876732
-1.9395388682112276,2.4960808765676332,-1.2533549618345952,1.1400795819402514,-0.7104457618842375,5.147210590634819
-0.7434940225398734,1.2500982268626823,-2.30717172211261,-0.37833602193877247,-2.009181220360131,-3.632556484089981
-0.408999125769838,-0.7494510435608819,-4.830616944953879,-2.3772224060700844,-0.6068942692299005,0.22893468503950717
4.707100346000921,-2.209317765344405,-0.2574650325557014,-5.34799106271997,-3.0018308342306863,3.16391446945345
-0.3763129137409833,-3.6411048103631414,11.725059270610872,-2.0442739751193426,0.8739883445084542,0.950216169597948
1.9913525109310757,1.2968059257841655,-1.5458071325590264,-2.7359930872530773,1.8133967035955953,-0.5556420699801978
0.7858535187069995,0.21019777033684028,-6.124986312041841,-1.7386235464201043,0.23655736814261985,-1.7144329576167172
0.0256706510761866,2.8457991162304466,-0.2272769255620002,3.822906709808626,-1.7588462434092387,-5.033928491140608
7.655104929097719,-1.1624853160208997,0.8060907395239649,-0.8844891839391384,-0.8701469752514602,-5.494466893854035
-1.2076409982049203,-2.863860488987158,-0.034448543240464535,0.04233688496339694,-0.8128743147721627,5.987681406424526
4.115807341020563,-0.8948329023282696,2.4057826972669556,1.6518176573786627,-2.5196935171784687,-3.2993279284998254
-0.5632420860840545,2.6721237153803483,2.0246030549310197,2.795047378826622,5.0763486556316035,-6.110848200436942
-4.513114572111351,3.775362739379157,-0.3209834289436767,4.159904228274846,0.6173023017137367,1.0537607471713508
0.15991445765292422,4.343994997086607,-1.8140065510645602,-2.527058352755892,2.8885210962573176,1.220047257041108
-0.583618596672159,-2.5187296031325603,0.6237970110549254,-3.1386147865793608,2.4176042938650575,0.3495436439317115
-0.5126460406931803,1.80056571692554,-4.6222366543407105,-0.8514397982622517,-1.024857305318005,-0.12156160040185505
-4.877476191947473,2.5222070475854794,-2.725948356919374,0.19364912752623525,1.675638174875249,0.09751400714368552
-6.822167657569059,0.49103727557203325,-1.9480256380149394,0.7431800625608413,4.174426228693619,0.59798138603762
0.5763545671945992,3.5885834716619853,-1.0090985186272992,-0.3776080589470352,6.628447557008718,-5.626125286322701
1.8412932672310396,-3.058761827742403,0.5869916759355367,-3.3976690171135924,-3.461441079754849,1.0193169210612043
2.1466888836639004,3.7544539375973027,0.11190964267202425,1.6894229101377867,8.170368341200703,-5.465460869887578
-5.225796614162871,3.2506059264171205,-0.8201958342160478,2.784879856207153,5.652249057613553,-0.15685388391795663
-4.838582189507966,-0.4498648108371981,2.184379883984668,1.580832836325857,-1.7315357500553208,5.974006825509567
-0.7926428526422726,1.500504994886906,2.288890672193608,0.19073172723369575,0.23724512854949587,-0.1113446747788398
2.6708784910861274,-1.1055297241688824,-1.9396483982799806,-3.0904289000237775,0.4737228986172295,-0.8190226366283626
-0.21363234288979205,-0.38048467457143165,0.6593439397057245,-1.2113017996715698,-5.261383330027931,1.048803440875238
-0.8847273622980936,0.07639913560068945,2.954920497054368,3.5836943511653674,-3.7493701654051437,1.646520177659022
-1.049637916543094,-2.157271753291881,2.5430407164481665,-4.356827474398842,-4.089115840465413,4.122242486566872
-6.588594325601152,1.8223611410724425,1.044444398921305,2.22991474992036,5.3983507812778395,0.5074674032268425
4.082750315204717,-0.6180165125944144,-0.7968687152673082,2.2703464827107718,-1.729405841557193,-2.521306574291456
-2.7833501968117558,2.382110309267465,-1.394772446582592,-1.0040380906771564,3.593654765414451,-0.14681877809614496
-2.4563046876588306,-2.2820130847257962,0.24264213601030804,-2.0352569254171717,-8.648502561364413,3.1601577684967754
2.3748776939108502,-2.891214916876487,1.63079173594616,-2.164458939276531,1.4840359273266668,0.9192771638811572
-1.0922788109735952,1.469374843214149,-1.0701370033977389,3.822442901125464,-3.6728295033368816,-1.1642519125539192
0.2789887355826251,-0.3404555976911341,0.04179321522729573,-0.5201176285575795,-1.2753874924694772,-0.2576596080630102
2.058333408354901,0.40113590819993356,1.7533254883655358,0.9990645199825625,1.005514568864988,1.9063726082711974
3.0439068143458083,0.322137647411762,2.1166598052354875,-0.8476377550334455,3.4904920606466803,0.7309404312720902
6.0039470744995835,-1.396122968294312,-0.7288625165452758,-3.597620426542369,-1.0361442517805175,-0.5111524448814848
-3.8907051096477403,-0.39557364628688363,-0.24472913967269905,0.30199123917712334,-4.515215873837289,-0.17308521647674602
1.7397242255460479,0.005264804315879168,-0.3789852709632847,0.7995015538984844,0.933965556830755,-1.3185527144632054
-1.582639853720508,-0.36630073938256735,-0.27203372964526196,-1.724192491468675,-4.075730903408116,1.367074592306382
2.5470351962532147,-2.098985887059192,0.5023032415433786,-1.6434389965168295,-0.8999795191181275,0.7399509336958539
5.371789841413758,1.1272197976421352,-0.9098890960848381,0.31178957019359627,3.5988540591584273,-4.08290878496113
0.9121762181447047,0.08645154424345836,1.161118808294006,0.18609934532418637,0.5570004839336544,2.0882530191071553
-2.1456610788015538,-0.18796461679862292,0.9379940622637998,-1.7991749570039697,-1.8521845425626051,1.0965757562915477
0.0036189151564365307,0.3801041415956419,0.796951565280716,0.18079280600368897,2.827517642266125,-0.8963816300473497
0.012340828589193942,1.4900869956715344,-0.506587707232823,-0.466884974721427,0.449030038676528,-0.8996452705989658
2.2532146162371056,0.8963928622396953,-2.223560002848518,1.9993211591950866,1.1562157879277022,-0.13864278621997617
-1.195797627376976,-1.9192365251042292,0.8706581488852327,-0.9326355229183616,-1.5650878773052128,1.8518461947785503
0.5841889824396092,0.7642150830237346,0.9886370950511714,-1.8374042204474488,-0.19071118314389723,0.9819480289062277
-0.8169249850448723,-1.8002173524687328,-0.7166798456015557,0.42555308165841765,0.2808046754575817,0.3424790792063668
2.2486916474264196,-0.8429138310781382,-2.0323841789707138,2.0231418339479466,1.6134964175868747,-0.1093132149490934
-1.3891959626164816,1.2474648901612362,-1.4458364206696381,0.04044233801213526,-3.6743548444184766,-0.5114676512758172
-0.696125017241848,-0.4336271482710098,2.6397772907639485,-1.792828494160708,-1.4578849987161158,0.3761413173352452
-1.7553423097748295,-0.4423824490408368,-0.9355358622565682,-0.7217647183134797,0.5541264456554398,0.0432771523363803
-0.35046134368601267,0.056146704150441984,-0.09195878707440186,-0.6023421819795631,-0.8742302613047036,-1.4914952586038406
-1.391240561830261,0.5619664098973858,-1.543124513706787,-0.04867761826631822,-1.2020060444395275,-0.4415754382681121
-1.5413184023910285,0.38635275062657115,0.900274050427827,0.5960579897022756,1.2896815900068548,-0.25028526287223496
2.389164714254598,-0.9338973678111148,0.5009630830449772,-0.2148566723358104,0.058356704151115935,0.2856177969672178
-0.7642631628727878,1.3722732120997319,0.05835581673248441,-0.4099191806672875,2.007256212321809,-1.6979156426266826
0.8264665675317018,-1.1434125322948847,0.4973018145190369,0.3239122992075387,-0.4610639463883506,-0.3169239290790149
1.499717954418282,-0.3146816919480998,0.3162427220039039,-0.19870108638549328,1.565984706971641,-0.8312820511490964
-2.6491868508865917,0.15770881680932858,-0.27058884756131674,0.9648232056839563,1.4843510429901636,0.3533435740246982
0.1546197957345631,1.1426412170450349,-0.24268648574318907,-0.42654209411353333,-1.6275718364851084,0.22105517592061896
0.7287364025253442,-1.4930140096963527,-0.1296928749026529,1.0245059027589403,0.09864802139116274,-0.7112079102764337
-0.4405741878208207,0.3849366011802853,-0.44397074173894424,0.3043914422500844,-1.0178892578340908,0.20350099476480488
-0.9252471017011326,-1.020994024707277,-1.2986644847717765,0.5604731726885702,-1.0970704915518539,0.2695145205341718
-0.2841211938435444,-1.346989779414508,-0.08540342578783378,-0.5568635287790418,0.28878103320538767,-1.0007245514885255
1.491991502124328,-0.009307547994633403,-0.9968046793160852,-0.033503376408688945,-1.0615087072403047,0.4056074320956299
-0.9040586974788329,-0.052301110572242626,-0.4267387838846335,0.4203068710637208,-1.08392179943246,0.4515692502762163
-0.407083858295226,-0.24831960340601922,-0.03019206802384672,-0.534641387587288,-1.858577439856119,1.1532601261651014
-0.6972022255430739,0.6623985925747817,0.6017721775531284,-1.2251493599682497,-0.8627219057954771,0.14324970318227592
-1.0460893348493792,-1.019476507787168,-0.6887311875520544,0.6241350006287717,-0.29267829863371797,-0.7354334260515263
0.7061254596211982,-0.2743126735408797,-0.31239248213743925,0.3326045863988285,0.449819488167724,0.7731829751524777
-1.1982636630881425,0.23838294829450501,1.0207899087948973,-0.46329762835478405,0.68833785846858,0.278252395976302
0.5700992608092466,0.3603242359289924,0.334643205885617,-0.24730498851920418,0.2599985537337053,0.1139539612915319
-1.3562486023552869,-0.910680650770561,0.7895875522922411,-0.031844579081076074,0.9289858717498796,-0.15180597105891436
-1.133547261484034,-0.3521501214648781,0.250579299621354,-1.2185187260432626,-1.3476939164903516,0.38270821876126493
1.2194386773377817,0.005666202044997237,-0.14734090494208985,-0.08915051831135351,-0.1671646066751928,-0.3789547151932532
-1.3569963157027776,-0.3087028609939535,-0.43779185107989427,0.3432165984428206,0.12039509592706232,-0.46312396002985734
2.13770476504496,-0.4508691639840563,-0.4910807697913294,0.026184254771425858,0.3757941365684081,-0.60192605378029
0.9241722586817904,0.8319220140358354,0.3166118044027539,0.08857859563541753,-0.9161856153326281,-0.054519371448239845
-2.452449021731221,-0.16285004971056344,0.727443101741687,-0.5996627870284165,-0.8182656467418409,1.360576058919087
2.1916824990667063,-0.8682535892713387,-0.5227469387570673,-0.03707732907402994,0.5492829757378307,-0.019385189017343096
-1.595592446739115,0.34268696654449704,0.31334652961763687,-0.26472282922704793,-0.05595136452642391,1.0723507613293486
0.9120580227145771,-0.38717309683799755,-0.3712481662765543,-0.31387043575136553,-0.20449284577034066,0.4160464623821992
0.3762138245753226,-0.44099624193152415,-0.07439454577201499,-0.1700186805494303,0.458736292355195,0.782294940564427
0.5874993885887383,-0.15329442573096397,0.19274369555188475,-0.3881677633761028,-1.0492995762401045,-0.41331190580541644
0.09009616641351026,0.18189630810289037,-0.49787135099874225,0.2590101930745513,0.9568616495114772,-0.27596077508906525
-0.6958654879753063,-0.06934082699868227,0.29129490141416614,-0.6287751530291297,-0.02662130267997033,-0.1302645491288532
-0.4914872859884497,-0.23746008511264138,0.3080480231966324,0.050018626957480716,0.28483844031857963,-0.4619399117757237
-0.35775807800923043,0.036028339266515885,-0.5476582247271324,0.36269091485451366,0.651980701892291,-0.9109265026131714
2.132528640983086,0.055554581527564095,0.7349123473992849,-0.04139439372221454,0.12098734654387788,0.71635634247255
0.07735889210480765,-0.028149616325449156,0.19728352175789687,0.10001927760470242,-0.1486356949725285,-1.1782132615786638
