Gx,Gy,Gz,Ax,Ay,Az
-2.876255000000001,1.8234820000000007,-1.3281010000000018,-2.321999999999999,-497.35599999999994,-13.203999999999999
2.06615570587333,-1.5511384350826967,-0.6558459562103056,0.4821490151328539,0.7620465364732905,3.37627805480444
4.9078063546500275,3.0811737980421516,3.426191976496613,0.9964177973099154,0.8163726542840157,4.0347769709982195
0.5997382170827301,-0.5632082820928674,-2.306377566622737,0.22274999772181142,0.5813807612420618,3.47759654613487
-0.7012839581486631,7.898440657114606,-2.665640040276047,-1.812008984194836,2.3418834587011075,4.938606588260533
15.439280371956277,-28.0188922298384,0.4228881787611636,3.1569153999724655,2.215406822526992,5.754148294834926
-9.80679228304975,32.02046074729884,6.830990969797083,-0.39807466886365805,-1.8756081555456199,4.119329050895901
-4.323672709476509,-8.133530079243508,-2.3144344225008084,1.0413650700947876,-0.4897473136657666,4.099682121977423
5.401271116802972,11.494155755610581,3.545565025555158,-1.0968444140146096,-0.09840867661045305,4.606524934354501
1.033014146698838,0.7629894189168245,-3.368785715535989,-1.020108582201667,2.1473286835664247,7.709250137791129
4.846949022801855,-7.267315872166927,-0.33980230226623975,-0.012709542773055471,2.8049853444993698,17.1731251049226
-27.662485983478348,-21.664049520287424,2.7543710003570103,3.9024517255437567,3.5758303320561993,-38.34763279019404
-1.9169309798249903,11.631418629823955,-8.153296684054999,-2.878725211046457,-1.618370416572387,-2.425390136997395
-1.3254720987531032,-13.449723524213825,0.11893249306511855,-2.7602173029980914,1.2528444796056486,-0.2683269085875142
1.6622944039643934,16.092994083633133,-3.695782316275944,-1.524597768546919,2.5053608535060157,1.0934148180555288
-0.6720625339244275,-0.6644416161249291,6.58267516762016,-0.7765450233295692,1.6172228193052325,1.8373432286373554
-1.789657186629897,-91.89130680417409,-11.685461608197357,-35.32410765564867,-6.8689061086605205,-8.70982108117519
2.267771848886037,-0.557474050636313,-5.405668758268649,8.972404255319988,0.338887345892975,5.777980671829937
7.782750343701853,1.0706281509607862,-5.258204449499098,1.3905270180576317,2.5917846267586,2.067056130816943
-2.9069130448808522,10.205386413986478,-2.6262031073361354,1.086784677753073,-0.5117497489679645,2.7967973488306592
3.9696096287059133,-19.750058139016136,-5.033861960220465,-2.388235148952957,-0.6232962770301027,3.632342145388904
24.378818825511956,-17.310750863750698,-8.507364006018046,-2.642160610413267,7.877825559750825,25.059836200754397
-17.944199665266332,-3.153327592388603,-3.3594058028445453,0.5666605674816589,-7.142582827669832,-18.99234329433014
-5.489938206361937,7.737762221078043,-1.0240498388839612,2.2884266770863997,-1.183303353802379,-6.1286796854051095
-1.0168042556029775,-17.772408885674587,-5.489934174865181,1.433211412414816,-3.9728696454433825,-1.9025761053890575
-1.3284800397938192,-3.388020553311559,-4.065516668700358,0.1113701726044638,-0.608921310992947,-3.319190078528387
-1.1396961501285263,-0.8068311645765744,-2.1799694131878447,5.503432311727544,1.0475099430978752,-2.637891022067044
-12.641726073940891,34.3394971018478,21.137752634505038,4.057098161937824,2.1882354165784244,6.346836580383664
0.547736409831317,1.320663430429769,-2.6138495596657623,0.01040982011413059,-0.033824671178380415,0.4823986525391288
1.529150355177313,-3.141502442882401,0.9234923474863457,-1.3615529532274029,-0.5510495946258264,-4.8294785681615995
-3.8207154107729027,4.887208171508823,1.5796204076339992,3.345995356740053,-2.8268359462675448,-1.8969897734097168
-6.042358818028926,-17.109476212270646,0.9459387389556311,-9.623429018557498,-0.7111434087274733,-5.828302441163097
39.62183616613481,-6.534937133109306,6.842443606273644,-10.392472678872295,-20.393789842444313,-6.138289447647556
-18.549084957933815,2.656944199870747,-3.232938637605128,-5.45908970430726,9.300158800050891,2.0451911499176156
-4.1908309174153375,0.550604504159186,-0.06118948271031455,1.6157605378753779,1.2198705318933307,1.0721886670314287
0.19669124831189455,-2.551639687661795,2.4148109234038153,-6.425646405633674,1.3884853754753808,0.5625283243169543
0.1782151997599828,-3.6936095647677543,0.04765332742980921,-7.7642893812677585,1.442135680700611,0.2662597053263445
-4.8023734015609065,-2.684669084831369,-3.4018725883914787,-10.561333127118417,2.495507035417301,-1.2972463156561898
-0.6896440063869296,-5.5068267715544055,-2.517694166287935,1.1634801469388114,-3.373737129858819,4.179281129035482
-1.9831091536610401,0.9176282548586034,-1.0347207396549696,1.0308978328994052,0.2961058360568369,-0.15875664062784997
-1.1998049969227198,1.4848231493187865,-1.9037550994283836,-2.8170470764550943,-3.7594826839682502,1.9377950837950202
-3.041908107391026,-0.23509617218578294,-2.4993021413145557,1.6949770527316614,1.9089157551854505,0.028778578716757305
-8.99009662423462,-7.6191386804037995,-0.9590176923264191,-4.800976836654042,-0.744619059219098,-0.7248931191740129
9.513084010906798,14.83865747284211,-3.983461167488376,10.927253243587359,4.810631111783342,-10.076307995417622
2.203952176212587,-1.8385926307717364,1.8829269756398799,-0.2059449570160512,-5.474107207800929,1.1739153132023394
0.7389516020738323,-2.024817917031301,-0.872610488242651,0.47210833655916873,0.15567069563133196,0.6612250760765098
-0.38833485658380873,-0.23743168656321245,2.751490109358088,1.4931552836195439,-0.797317309805753,1.4301874508342611
-0.3795494347015258,1.3923432521519636,2.078758682792994,0.0037393842537631894,-2.115370560318047,1.876896444152635
10.298178926688392,-7.171126979557932,16.515148345922924,3.0066607501946288,-6.616607105615237,2.726842947880651
0.002527836911323522,4.695878434770676,-4.663245193636476,-2.5651900993439596,-0.9596760687015129,1.0078069808673695
-1.62355824349895,-0.17930195422536704,-3.706676652065168,-0.109012861544028,0.4159216245685926,-0.46499254505011856
4.65507672911694,-1.6910488354369946,3.8611566280145033,-1.9602487175369232,-6.955590339374199,1.839475171201678
2.776784881331901,0.18934625973650587,-0.7441292036356215,-1.0515083695172733,-4.3513714019619805,2.6442179075363166
9.438323295664134,0.15735440367981113,-0.5346465544589902,-4.003798587877828,-11.76898035592919,6.558180969714392
-18.65215098739394,7.773117674588956,-7.818028341262627,4.912749717517961,13.398840564772366,-6.012477913691748
-2.7216718396282986,-2.0745311580384143,1.7645763190820893,0.3549773657238122,2.4110955018100015,-2.2086842370410564
-4.029389177699151,3.8977785376014014,-7.07198780085775,0.010893766052563869,-0.09248609741987188,3.2753665637486336
-1.1311176465610866,-0.2958360637613123,1.5153041302300996,-2.0561438004500894,-0.452670251573976,-1.7923331408019099
-2.531407475777442,1.483344477233739,-1.7662366915798435,-2.375495134029243,-2.4626043417800942,0.6685440854614147
7.109884606989181,-6.044712947597084,10.773275363606459,3.3995487953311354,-4.871333918163842,1.8108466425064098
-0.6900400452052144,2.4031782022314223,-1.1527454635802374,2.65261569682839,3.4567838124591406,-2.527695543440528
-0.6791915070623724,1.3033775668382015,0.3509942785821476,-0.19677041940645468,0.07604944378797049,-0.4894072147129599
5.957202862796335,-2.586552675383423,2.636903227259694,1.6717174362079714,2.5616479233383034,-2.193184528113416
4.170020588347923,1.368733501204189,-0.3120116705754816,0.36355135062977817,0.4909640885153086,-0.16394521049188648
14.327675659923191,0.48629801944826756,0.3968787759749709,2.163882650890573,8.22732594106255,-4.32281351876635
-0.9585471179714482,-0.9157339304371235,3.9190583122702467,0.37903337535345827,-13.225885663400412,6.593199111841326
0.806813544284982,-1.5081997530384184,-0.2707966601644526,-0.25449234092916306,-1.7217979472196274,-0.27726822439442445
3.969564892163626,1.5608888317076952,0.06090226244219299,2.1967565465334618,-3.147020408922515,1.8065569817566263
0.6231965225301261,-0.5480627229896919,1.1673607044056782,-0.1772639650584803,-4.474687550174238,1.4237379756911954
6.189262494862976,1.248596654239475,1.8523338804364797,1.2223203436584353,-5.356789396177101,1.783368571201456
-5.98241974635765,-1.3350020726369365,-6.293543794825871,-4.156468808170112,5.850250746637174,-1.6766624169173991
-2.600376727119591,1.0865678381199206,0.8497431445532868,0.4386842795256034,0.12994843727195335,0.3687113812708883
3.012847007737249,-1.585431748446363,2.0586740944513404,-0.9388174226388319,-4.3838356707227755,1.40767537959962
-2.894560184615905,-0.19583181204985467,-2.22661583326727,-0.7440378087400296,-0.1092734889225133,0.9239207230722715
0.5258199574960438,1.9014384026941598,-0.7439660615032571,0.9861848348580892,-0.5526021816084918,0.6678399546245043
-11.863775497882106,2.814250606760463,-2.620173426908973,2.114250909116277,16.116879026801854,-6.792202511919115
3.884168829560756,0.2260498522354012,-0.467168281165239,0.8306038851452573,0.48517575413327274,1.4673872173998583
1.0867320781998835,-1.0318576260275671,0.27649227970217094,-0.3111240875436486,-1.1574048989577088,0.9008750988324954
2.039048234820785,1.103813866689534,0.1335585121433684,1.6092417477724144,1.477677983471127,-1.0599745134682879
0.6692601077002616,-2.6936978998428773,2.0973822208487976,0.37269330268502265,-0.9567848731965705,1.3200698422573054
3.08677502101527,-0.521557521813899,2.1459343625994536,4.318010460029967,1.5744151652581444,1.700066527142169
0.5885117193334223,0.1984039910752533,-1.381584805006753,-2.00652891131466,1.7722159422995425,-3.128652924448453
1.0192660681301897,-0.3150235289086891,-0.5280745921312536,-0.2774366339348958,0.6148157944101056,-0.4006100494106777
5.51764474817871,-2.334738669787373,0.197815698813873,0.0611369713466276,-1.2053742292911054,0.9192849447492087
-0.44933536640446053,0.14247315257526869,0.9420261249866025,-0.5984804438172062,-0.6647133975262,0.40642862840377836
1.8337053470098892,-0.20214687403843926,0.8532454096534376,0.8917382965961171,0.757857579055629,0.5099822839345318
-7.275164076949003,-2.2335353141998766,2.9442018861866566,0.3972707528829299,-4.5666391698754385,1.2971296243130834
1.6146886004990986,0.06007773413632128,-0.8499509496092053,-0.4124981974403914,-0.9102736120629618,-0.9145219996023688
-1.4818216397723067,-0.4676075928939076,0.8144405517566773,-0.30904413938710695,0.8499368385307076,0.3511379932339398
-0.8146052216750607,-0.1923151899822625,0.32439694339590563,0.3258258104256829,-0.806261747125931,-0.7028575766279084
-1.7180001776266507,1.3008857639285039,-1.3763186187551326,0.5274452894355626,1.5218063852623318,0.08397003339294146
1.7367054832420952,-1.149279373077897,-2.6502773292667525,-0.3883422838757387,1.9049469838410662,-1.0276329830914859
-0.01496666442783906,-1.0511549148116834,2.5197066660739877,1.0206301004209961,-0.23581576580084201,0.48588791394233477
0.35484295826259116,0.054266178177400703,1.576396514492993,0.5668724492949075,0.01587581848461564,-0.3844681823538562
1.8333217179529804,0.6739829027970101,-1.310956390685596,0.7222871841643719,1.951974752483576,0.3400663462013229
0.42934824027951135,0.06380280359152724,0.9287971360984201,1.8039583196012376,1.6174063418509221,-0.692082379870271
2.653459557533115,-0.004262541254012264,-0.8507786047117557,1.480081162879165,2.615307678818862,-0.9729627734962089
-3.2858170982966826,-1.0387654466100114,2.030157508109247,-0.47020089067937826,-1.075125898064997,1.8801213587601673
0.28340878254604684,0.048169556632373545,1.1100896714204578,0.3852708119056592,0.49766505725751914,0.611349999224738
0.6782341979027144,-0.4883307909025939,0.9255920587102522,1.3137198056160626,-0.6614319684049863,-0.14087028033652102
-2.2897037357305745,-0.8860296933968396,-0.03551988314423682,0.37242987622292684,0.7464656992194836,1.253816265371767
0.33315324767471055,-1.1717016028304137,-0.20446798851658354,1.04622406457839,-0.3254220681788954,-0.4858907367142847
-2.5806065765951725,1.8938981917893993,-1.400971238812243,-1.272949613239717,2.0729745566769306,-0.8710355306052362
1.0433701304693566,0.3075265663359992,-0.6160065670210192,-0.0384321047551639,0.07271568660662331,0.1268777032291834
-0.4953643320897245,-0.9945681318730322,0.8338239318921796,0.03807922181336746,-0.06514243105092579,1.183185215600779
-0.6107066721165382,-0.1667620689681579,-1.0858790692628073,0.17267399767709943,0.5016647085429217,-1.3354840917364523
-0.7614721330133103,-0.7830908325934401,0.025476177192989224,-0.047625262454379425,-0.03252867082782348,0.08912249504780133
-1.1877615131127421,-0.8352721899033252,0.336605805948231,0.7411545555536088,1.1416763414452253,-1.2470947696114913
2.15947676726116,0.4881311769956406,0.05239001236743561,-0.19338200942355488,0.20689115176046913,0.04700844959589001
0.2550807485854867,-0.32942361306285894,0.3901735076897571,0.1370654921698721,0.9230233829144929,0.0823155599662806
2.3805908815621506,-0.8321945076081254,-0.019625831073004862,0.6869045548330156,-0.06445594533020738,-0.0005659244065226721
1.3884862771767776,-0.047881133928543027,-0.8163331397161832,0.5059044540372215,0.44790356910894874,0.4342415616573345
4.383285597813775,-0.1332101996744699,-0.6844639710270355,0.03370319815104471,0.09231791059268372,0.6922753415032967
-2.380142803298959,0.11295600138501531,1.7834691777678497,0.8608058263313585,1.8784191967952346,-0.9031013558668669
0.2559217076451922,-0.7354280879693381,-0.3411149276308602,0.04614017912651294,0.5939321993219713,-0.09847009577316883
1.1963839513807657,0.24689206212328318,-0.6875556088590726,0.23789015173069666,1.1673640884343266,0.4591110971542173
-0.5614744512426422,-0.3302119326825313,0.1438106023653501,0.436334628066694,-0.09989181883618234,0.04366797480162471
-1.0367792209647668,0.6037933032387908,0.004841432813780855,0.20641896292820733,0.18555757529317413,0.8166344045346821
-2.1478573725363423,-0.7089360347478726,0.7462669893428011,-0.17065570332254817,-1.5992396292526476,0.01605213115374199
0.6849812547274503,0.024852018794330966,0.7242558076496595,-0.24966290851434142,1.3143022863380107,-0.71114546397018
-0.2799079850623036,-0.9534617480498387,-0.22395266859271373,0.262315090479105,0.18914690875833867,-0.032479285440751855
-1.1239339598506979,0.13503627222480094,-0.6728874687188582,-0.5669682502788879,1.1703344220607013,-0.3133185126618851
1.406680473372064,0.036380812592639256,-0.483245525031615,0.5328332258043786,0.031171096482713878,-0.11055378159568138
1.89056864453347,1.3967481435050688,-1.5343553611813372,0.2801954079793202,-0.1752710240483457,1.2842158958473526
0.5544578813843707,-0.7904813513093079,1.129658140257239,0.4624711819632607,0.5963873856493102,-0.41862435314423263
-1.4339507792726973,-0.9513820657118526,0.025357369396386702,-0.020821879368547323,1.0290014057395949,-0.02569207261269591
