Gx,Gy,Gz,Ax,Ay,Az
-6.1374830000000005,-4.028382000000002,0.4744020000000001,3.6239999999999997,-417.42400000000004,61.68
-4.895477045005412,-5.454341432479676,1.4007909825170184,-0.6983084694437762,-2.8121735464935678,-4.192853332072389
-1.761079762561979,0.7624908397049048,-3.254294691616115,-1.5048814905681158,0.7247432606073883,-0.443836400085988
-0.851890039141677,-9.170241939822692,3.1273089806414203,-2.8547602952475097,1.0747030090766518,-1.4561876111489842
0.614082642603874,-80.4254672449614,55.677039336595804,-9.722712296336807,-0.17446874781045985,-0.32588123795837926
-8.178562693044318,12.816203232694855,-9.114613338352635,1.2645812538098717,1.3558043640547677,-1.8355424330627366
0.681100282964954,0.5353070874608211,-0.2073686298227751,-0.3261556050602441,0.7705156369643069,-3.9867766298345915
6.546844473860296,4.200773256262397,2.6355177148634765,-1.6868585205265956,15.298744575203926,-4.941598420496137
40.43492854725887,-33.710704372140675,-2.822807855318876,-2.17025756112324,82.72470886636373,-18.219640647079487
-9.873127863161631,15.795264427036752,-4.756510630333127,1.0936908235158234,-21.31011627404295,4.607551367251299
-2.885597799558325,4.435810181241164,-7.119585885077038,-1.4113518583963163,1.2588817440508122,1.2224223905112719
0.06994218793334106,-12.10943410658843,7.3754356797257525,-1.648646003696148,-0.4181201256345872,3.0434736399385542
-1.1735175098922581,-0.22266487338894603,17.88955573754953,-9.959290768218867,-5.052078084556218,0.9612999665240627
2.8417856665379357,6.787886798936881,-27.742242797637267,11.068317183538003,0.4876831871278213,3.883785950974052
2.5596571123516405,-3.6029667738084505,1.5964423749730785,-1.429253601939505,1.481756316444681,3.836525343588052
-2.1503741024872824,5.277509862443635,-4.434755066196388,1.1488979440434308,8.765442063392655,3.196480548806869
-7.002580623130676,11.02524469355853,-4.222741486388731,6.443999622471152,7.366801794752018,6.674960974560794
8.90045642057548,7.994716345313285,-1.7837302880842034,2.133636539781898,-7.581682987304495,0.4802833482096309
-4.846438506913832,6.475147951772314,-0.8593018755909299,2.7261433748790562,-0.8413859935668403,-2.6334907862740655
3.8057505715143165,7.938461261655516,1.9876280476406631,3.6283279700255076,-5.116431750452286,-1.886105538090899
6.987838066892378,-4.283788520845649,3.7460634158758577,6.143130463652591,-4.987506148793951,-0.4258680908805028
-7.602779629713503,-10.239408481538044,-1.7155169334121887,-16.191536711953884,-5.047937136072629,-3.8791930264115293
3.1580649084884618,-2.418712245147642,0.8481311333450776,-1.5747151030955735,-3.440330911668674,-0.741078773150722
7.855843799447174,-7.384123132679603,-2.525425483325715,-4.608069968196512,-4.334906992224047,-0.3280609972546342
-3.188772227606306,-8.032708351581844,-2.2622883871224633,-11.127049615840821,-0.05402969038851069,-4.101467412526267
-13.856614372180658,-15.059934556777534,0.45991684955989076,-10.513227478914189,6.456631467114464,0.21441618054511857
-1.9577064038313867,1.5681642622843572,0.8952961390140093,-6.839111586104261,4.893703066390899,4.3509415441852815
-8.92864689540619,10.102302701923385,-1.6458435841210617,-2.026090533654745,6.085721878467907,0.41135848387690455
0.00829724072894411,8.463064312424867,-1.8030213413333362,2.817683398837211,3.440505134526639,-0.6927823397534909
4.11729911649065,-15.074833526228101,-0.7270706647957019,8.542067300843055,2.4070680362908363,2.6228527089379763
-9.206271690172764,6.1783589379904145,4.388296075747265,2.103418464451166,0.8500247489962374,2.7923319595751535
-2.1565876588933084,5.983872940335963,3.396283857107953,14.559758709084804,-2.0500418986801074,5.541131902405795
2.1427770982804404,5.537241262857991,2.989317772571197,12.035062315773688,0.19580529564595484,2.3010439402042486
15.329257771169587,-3.644361779038083,-3.3795944319909834,-0.6723458006723251,0.08604205823711197,-12.169826341419661
-1.9262421769716818,-5.5027675432336896,0.30692325234401574,-0.5029627293176722,-7.930335814539794,2.247892836138857
3.4153769806117884,-7.052989200925138,0.08771201022021224,-8.26325322161421,-3.2627785194841064,-0.9875042532852558
-2.5315321859555118,2.2140468728826694,-0.9257410474067322,-0.9738218961879629,-0.6057628955759735,1.9843661485288848
0.07122984968516866,19.274868052627355,1.7148737715484985,11.863498602082233,0.4576119193436736,-1.3506205196759473
3.629953237986543,-8.21065025278199,-5.430060412252136,-15.43698447087056,0.628155233355302,-3.002329234129302
-5.076538920595838,5.849191639000055,-3.54160419228748,-3.8940225697245365,4.901802151948487,-2.6289078919348094
-0.10798438200525051,0.7488442400011619,0.618945034248906,-0.7566882868073912,-7.29977600269611,2.40848281322428
-7.939064135379734,2.6448616192198564,3.459908564336115,9.565775177186437,-7.67097624437115,10.009989915415733
-1.3503205472703763,0.28417091648272397,0.6095977285189278,-0.558519924592348,11.671076298026907,-5.748831080277057
-1.86760707464274,-1.2916380316429783,3.308993664014044,5.783976827865589,-0.9512364744855413,-0.1979067085612946
-3.787168058452096,-3.552442545198891,0.4240692057491049,-6.229696155330007,1.6192169128142453,-3.6444652350357005
-4.224740453807419,-7.143930327631684,-1.7367857984311614,-10.55204280124199,-4.197554450496225,1.3390166565045276
10.292375434453556,2.9779156889403082,7.7841407582391895,16.792781052939727,-4.850873853456637,-0.041607630429065345
3.6998084682911068,-2.4587207641891404,-0.13131172662963775,-4.643966561667823,-1.9995243059227548,1.6807471372737393
3.237807003545616,2.3470000391805312,-1.9423319469869602,1.6057309574349472,7.700918364095701,-2.8140316884364123
6.1665467056252705,0.9331822293910585,-1.1842773742786756,-5.109280538825964,4.923297123467887,-5.33033994665842
1.8464754246644859,2.218399027434713,-0.01926075923249737,3.458225270254564,-16.144124615650426,6.559898567567573
-3.74224721230062,2.8080594231115583,-3.4524472664868964,-2.6986648433450977,6.408068538347846,0.6293500909241255
2.0770414704653164,0.720334719239043,-0.9226044248928479,6.587816001343348,-3.5392972229848416,2.721577973996737
-2.9760867502612145,0.5322469672399968,-0.13577375506275602,3.783994829268761,4.826183012630368,-1.6795955210757083
-12.444101616153025,0.05513114907078753,-3.656013413318055,-10.914417952711084,4.061687020861166,1.2389345504170093
-1.4444588239054283,-0.9400104925570545,1.0509576913369139,3.60179792529176,1.1054258563087487,-2.152411089328868
-5.16650601540463,2.183727996933875,0.8263482393147108,-2.842117937194385,-0.7986912135374078,3.6636530315930496
-0.4668459035430592,-0.07024654022397203,2.3170899159449814,1.46541482503945,-1.8610461996792782,1.37860733989589
2.334496057863282,-2.2661155636764505,2.194180014995667,-3.888896257059816,9.446998881105468,-6.626835114916263
1.2917792834317832,-0.2313070572805802,2.8451968725750336,3.018323593844383,-5.584017842092963,2.4247919754328078
0.06865852864982425,3.1642875312941063,-0.8159885000627289,-2.496225876199013,2.6081538849326638,-1.8220956954257108
4.797795446937403,0.43847190679073555,0.28713231425415653,-0.17484643445993653,-6.424919721168216,1.2261287754316275
5.096887785348696,-0.3546499527960054,2.0981032146848775,5.254396488799935,-2.239390039550881,-0.9379255119900916
-0.21835942818998477,-0.058254186428275956,-0.8873416503086478,-0.3076754586765813,-2.2206516948245305,1.0949302182617875
2.491311760927002,-2.38217178155976,-2.1669737150771313,2.1219091830298034,-1.5366752246798812,-2.1476339922614445
1.0521303048026207,-0.5850606806906793,-1.6361846886449476,-0.3524058903722729,-0.5793058191240033,0.32040575991042786
0.83459951323274,0.20321761412814288,-0.6961425549790198,1.2746782923732314,-5.161581192108024,2.9935796359944606
-3.5271100353298905,0.4534958766244328,-1.000071171784227,-2.5990014186495407,6.3121552988720815,-1.8740020129764714
-1.9282638611259428,-0.06644868693240591,1.016510495831846,1.7521782550346523,-0.3940417438687267,2.7172348308337675
-4.312673716529575,0.11915842021927592,-0.4626200894301334,-1.1667281220925465,3.7751183652040705,-1.3464973694522955
-1.402763684382633,0.46982986187723474,-0.8005924502906296,-2.481775393471452,-0.37625137015402443,0.3671016534030538
-2.7500195759363955,2.178758864921884,1.9175158137954242,-0.025258640551999237,4.973161117498734,0.32333491832273153
-1.0006444619703934,3.0632898807357227,-0.20685841942964295,-0.1659113455771153,-1.2268586270939874,0.5848707306587463
-1.0020685419822626,-0.08275549578269681,1.4013939875167842,0.21302235782954604,1.2337567842522872,-0.20197499522644757
-0.7556683540953719,-1.5064834034943335,-0.12904650636275838,-0.7645917141959884,1.0434282267635426,-1.704877348197905
4.516616029620952,-0.18222577732454603,-1.037842234151781,1.0112941960220625,-4.843580325607405,0.022470609597589508
1.5377539064304262,-0.21325604079910243,0.19691278109433719,-0.6740721453271143,1.5669824745360557,-2.2139127452729097
2.507519618788599,1.3408374446338107,0.31266949020960777,1.3785056924318877,-3.4265873225938464,1.329033576454878
-0.34923211512193564,-0.5389476515047125,0.08524593600259356,0.8261367585899885,0.037609321915982985,0.001010556810667751
2.440600757663931,-2.8090255422682495,-1.4980554112575561,-1.2988943090835887,-4.386643637218322,-0.11184015263821878
-1.706419037729291,1.4821704349552614,0.9900842655329027,0.6095498458167964,1.2568074304522514,0.18449884720905718
1.0606222645625512,-0.041941436461016446,-0.8345244348365715,-1.0168169368951405,-2.2427262305371247,-0.40105417387548253
-2.0333596848693944,1.4299529302320022,0.8066492505301769,0.20400717079956282,-0.004194434444044104,1.4874290630980909
-3.631849814803979,-0.9665772878028173,0.7482407773899085,-0.7690243082551393,0.895156719716776,0.8751164057768863
0.17975732934695343,2.4299947618478748,-0.6189601540072209,0.7825097061988728,-1.317837839150398,1.1754129460275071
-0.4050664790801366,-0.9992737632100532,-0.5777405302158949,-1.2560464688506077,1.7122141048795534,-1.0193670985838592
-0.8458382961776583,0.163081456517417,0.14922579735688268,-0.20117451796513586,0.676695453929079,0.3862425644043641
-2.587031569532854,2.0629378353967915,0.7793331643938495,1.0328604970564486,2.8348205607058605,0.870001010011821
3.117589140417828,-0.741237303813199,-0.4834295658910116,-0.7063899899833331,-2.014416415643618,-0.7790942845579956
-0.30727537463713483,1.001316600611681,0.4424558148421066,1.6089047779738468,-0.13740580824281956,0.5491630615743988
2.009687080311798,0.034271438815925426,-0.13239196750330595,-0.8794990026268859,0.31919403191116985,-1.6266398476227089
1.1772424220659712,1.3911934250975089,0.6611159885229845,0.30439669942993275,0.49769174453902254,-0.6584094099046072
0.09705702816640019,-1.7580239013664376,0.024032126993207337,-1.1229385139666546,-1.1452839104038683,-0.39884377469920346
-0.13603896956522576,1.6758058519367172,0.49108655831002557,0.35458843113092964,-0.6948645307816894,0.5070984356716934
1.1538406426372236,-1.257942397221133,0.18438219959283503,-0.12178507837691556,-0.38908067097568066,-0.47449374795544363
1.555300857313253,0.5437803102819696,-0.8436513835816211,-0.8566732894248421,-1.0191746575406566,-0.6311600326861339
-3.445120135113283,0.4737525223594915,0.3268626468432555,0.4786940882786442,1.62639024474494,0.9456938392475411
-0.7489069286285387,0.7089435962951944,-0.6968932445392206,-1.1499884438481454,1.1252842385532724,-0.48457983584499653
-1.156417989763678,-0.8763950518435529,0.14033652067639646,1.0552173203631345,-1.1654453230908088,1.3643881198995298
0.9751160524983593,-0.7261785550880546,0.40331558587834077,0.8070955224172611,-0.2816176879560537,-0.0929354565606928
-1.337362414198401,1.856725409859787,0.9112601953395763,1.0087441025504527,1.290828313978861,0.45340257852842714
