Gx,Gy,Gz,Ax,Ay,Az
-14.483132999999999,-19.729263999999997,4.943247,-63.413999999999994,-544.708,25.464
-12.328012780051862,-15.617146553104991,1.9328731837300432,2.1184882283362865,1.2885206361726933,1.0005836580887426
-5.879951518883211,-7.262507044190628,7.612148610482941,0.4449565450324615,1.388171975842917,-0.43364508270558244
-6.0636527542222804,7.82798711978076,4.276710622547892,1.7004160841962142,1.5719821061401458,-0.8447574986422302
5.180422001523922,19.93224835525303,7.465243294869242,1.0241022011669276,3.268688856782732,1.2807927034090376
-6.95874796489007,-38.480114768242004,12.24485790905642,-0.45915778285000736,1.7234404561186345,-3.997851384571332
30.87262787073288,66.55426665423246,-30.830159370678906,0.995395044521362,3.2415421004849136,4.552656851532816
7.976361142820618,25.70432845872022,-8.133697778415238,4.173774927420505,3.70471470421406,1.866206145071759
4.1237278248563465,10.224519209302622,-6.262899486836467,-0.2523709666261543,2.944839330987101,-1.7308517603724098
-9.103092036490676,28.7982026932366,-5.829191576205814,-1.1019956301006166,10.10600985566136,-1.8600722386822954
0.8422976876976753,13.748290723834346,-5.643064175899612,-0.6446630863005137,9.707761215265236,0.30611269247967965
16.521955911608767,-6.544043650811813,-11.291552343346332,7.7570061926002705,69.43588049327829,12.374998512433432
0.15697632188367672,6.098178174101883,2.5071521563046075,-0.45533221337843793,-20.058969271228282,-6.728347269994142
-1.6466493148789694,5.259219716279279,2.429639127425442,0.22718280474551333,-12.571443617967844,-1.505611622833892
3.3811690853219454,10.008159161009402,-4.454084407197286,2.453180662942041,-6.347849057608944,0.6334329017461597
-1.2842636299887529,7.876021698550906,2.2239088493397206,1.9280935213521158,-7.339237173888215,-1.6473848092575767
-2.6938970484013582,-6.910153075705375,-0.3116592072048454,-1.55684575522512,-6.36902066325002,-0.0888217803931598
13.378146534066303,62.602508145312186,4.7981581342712705,13.569196470999003,-6.882007731955764,0.4556814152577835
5.519584892274043,-9.325766797113767,8.224454553883625,1.2421162094598865,-6.5636548166551965,-0.3192845786402394
0.7238563192330405,-0.33807506294695333,9.530167181195683,-3.378101043898722,-0.23242610739492164,-0.4302116748902032
-0.43430991427410204,-3.2448487297742146,3.5261651075155314,-0.24482337736384358,-1.3049879418955408,0.29581565806705434
-4.091003901110325,-5.8385434631988815,-4.379151877787758,-3.7559184590734533,-2.9401505386040783,-4.81952946291253
-1.0099697959203715,-10.818389892924039,-4.969669991685887,-3.494878805246058,-6.92410513668297,-15.883428683567798
3.8685029644665514,-3.7701521184229243,2.3633287573998163,6.187859374825241,9.066787889076576,19.273808260952446
-0.6679925561631777,9.674343180852905,-1.9999798954539063,1.2673195019246677,0.9339129855625523,6.38136152370515
-4.18073829448817,-5.700115979808206,-1.1095991175212427,-3.357512208262886,-2.519856983157008,-1.8255057999661135
-3.06514253339996,-10.433184675036598,-2.89307412551475,-6.545281172481167,-0.9129580408699067,-3.3106019217970664
1.3296697403180189,-5.381415034023542,0.9477339001467879,0.11884084319525057,2.838735764909272,1.971273379070463
11.075818972495131,-8.725340784516897,5.071740326597283,-16.56953630391775,12.003875626680145,3.7287105877382416
-3.2962630679725544,-1.8267413791218523,-1.1535893799000987,0.06844245081110789,1.7154633661748395,0.5661863135033401
-3.1086459308666425,-7.500837576080606,-0.5218331102843174,0.6684013293869615,-4.696519971361269,1.9041743475303368
3.1452244304933332,0.38776486521108766,2.677136925574697,4.491182644329994,-0.6966644452827402,3.667717030567583
-1.5718679446819346,3.8851391724076976,5.637302337362665,2.06779370978544,2.1256590150750387,2.034809962321005
1.6683251074351622,-4.168972423753566,3.332864947241124,-1.1216293616576136,4.548213430467096,6.03679770012112
-7.94890856352043,16.588853795483757,-3.2195879876469418,1.1078287081189053,-6.9681212571697255,-21.11195072390403
-1.8137615442534776,5.927227272528904,2.594941917337016,5.817003216677454,2.343136750647637,-2.9096883801971645
7.302683176406635,-4.5281650344821305,1.7822150260159446,-7.538592084044141,-0.507516664884533,2.8803669514918133
3.2342592816692015,-2.1617020040358605,1.7937621361695686,-0.915012880832665,-5.600885489001511,1.1095984941234853
-0.7049956244487483,-4.716513246279357,-1.4427505393900384,-6.854286360576016,-1.8315848883495542,-1.1896784756396395
-8.824976013552208,22.783023668981542,-1.91934841939365,-2.378715078218755,-0.34521349671979373,-2.836527787351354
13.388978259464558,-23.027533499915005,1.3019647981912208,-5.051176435501633,-4.716729553586992,-0.4265562015149097
4.124015957160647,-13.035230953079015,0.41063837637439526,0.7200686260638125,2.552220090359275,0.7386512584948194
-3.8538484446856973,8.338034577238318,2.644509136020169,6.016255133205897,4.816333450526777,-1.1530657999516531
1.62748431809512,-2.868547941067728,1.4333054340923381,2.91263940191128,-0.8002253668803374,1.6944439473506825
2.6209433585780397,-6.661932357103121,2.080950950980642,-1.1177600137926926,-0.29378493546595763,-0.7492268519591139
-4.442123870277643,-1.0445635869060865,-2.4340094886880297,-2.8651389976773514,-0.9173739201769067,13.487020014087392
-4.037599711576882,4.497311941027018,0.9610534032813342,4.925655467316167,0.4742579704087858,-1.7823878070200416
-6.43368286290235,0.523042223608237,2.9086319540158936,2.2074151719522264,4.1571288986972945,-2.7446065936785975
-0.5450125653501101,-0.9684223707593795,0.8751002684404121,-1.3431971807622602,5.186994894248945,-0.4491605446051911
0.8672305571878456,-2.119820974905969,0.7263906957451125,0.11067547200809347,2.9611012829383974,2.7046472827685832
-1.1725834525179328,-3.6486303659959862,1.8645742712489377,0.18165461296725338,0.1306260269051509,2.557790206778553
-3.2171140312811213,11.736539095118832,-3.9477939014371004,6.274459124234195,0.5579404023448603,-2.343385914095889
-0.7046188895596398,3.908055694507937,-2.120708006654888,0.8877701114232543,2.589007194879076,-1.489719110975567
5.306789421705913,-0.26877484252025396,-2.9768115287689643,-4.088226072161619,-5.704526603491954,0.9040314802917049
1.9780977759511957,2.186453777345451,-1.4777614222110014,-3.2488782052974647,-2.333058659669103,-1.417147203667767
1.376933605893295,0.17642187269715048,-0.5195647542041191,-1.513060084422496,-3.9496018736212486,0.35338040925394454
-2.4579593932191064,0.8431408166440857,5.378907770224325,2.043983779174269,10.383353689758023,-2.8339840268556404
-0.5255253198834464,4.772055560109972,-2.9292937133792925,-0.4591649589712794,-4.013113019677089,2.3716590172670133
-2.992387054755153,2.164139397034459,-3.5624982824868523,-0.5261051656315097,0.6458394408202441,0.08401460206431055
0.6959699589618455,-3.5578933919415094,-1.4485236929068097,1.4771448346970661,-1.0011407129663228,0.5950528981008534
0.4415244899784855,-0.3774641964907346,-1.4806002522621524,-0.9394871415276427,-2.055460860271282,-1.052642902721622
2.7354292687844657,0.5105160789181828,-0.1753500393635713,-0.4236339659037309,3.0818181076464897,0.9197298200174322
0.018591728830101406,-5.425052316988196,7.525975668687439,-3.1805026235899807,-7.3427987803656505,-2.7930951688482955
2.050765810024794,-2.015066064533949,1.5059715893076016,1.1194274304743557,-2.6917179864389427,1.1825289105125245
-0.14373551751361102,0.7741316804084867,-1.08287569433904,2.7364972192246713,3.761548349138017,-0.5159069660192255
1.7842923427184803,-0.2008782056840942,-0.5757874001713545,1.0095819737882494,0.4272874233479471,-0.334800904597425
-0.13612253374639405,1.1821049816488762,-3.4580496094754203,0.7024441663373622,1.329010084449441,-0.26903640704266707
-2.639516908118559,3.3600878259380274,-5.177793693020529,3.218968097980967,-8.306368103524406,2.644519944339094
1.0523071030558069,-1.9380422883172193,4.2091069505336804,-1.6777735806276122,6.1874949886011015,-0.9609484985967679
3.7883845099303866,0.29783788903305997,1.8431347360889738,-0.634489755788505,-0.07077584493073774,1.1402764509259837
-2.199002940247108,1.6086904453854673,-0.7402246812950481,-0.01655339303398523,1.1991357819762598,1.0625905437653547
-2.0997687181436495,-0.2689794547279655,-0.6403110967395548,1.1402820716435822,3.1068985122739776,1.8731407375647684
-4.715246364942338,1.6430383461315285,-0.543885229193238,0.37032866769610473,0.7365456112450297,1.5180379478543358
4.056899979506806,-0.5339963597799151,-1.2462763726711787,-2.0710761760418017,2.925692240376012,1.796090403152771
-3.889887721719613,2.4723787734910005,-0.3980007828589313,-0.8646758674423638,0.9767533742983623,-1.1401843156733733
-1.3997313742295994,1.7730422815759732,0.024734336313279967,1.8285686155211085,-0.7924068297733697,1.0969511969864287
-1.4494736399539823,-0.8061161729691462,3.1734728090319697,0.5066385273098157,-0.023343483548818322,-0.2550079791706331
3.4079173362460358,-2.484416964048506,1.6535034471318792,1.803297819658409,-2.690281483059397,-2.9614153659547564
7.146667907503582,0.7608235167096945,-0.5883562949472578,0.034259460927313634,-0.18054965988101773,-4.263991689555738
-5.739003699293626,-1.7677013831586335,1.1096328862587437,1.0457848572888164,-2.0807272336600646,-0.024784794762705564
-2.239101573503939,-0.2923099894064417,-0.284837125228114,-0.24839192415782477,-1.567525993681079,-2.0166192978984463
1.447248494594646,-2.708230584694988,0.10389398504708247,-0.0023413160250878584,-2.3831649373661765,-0.930109167928781
2.295635860918938,0.7292520117168695,-0.6845777001424542,0.6985770012789211,-2.251578467399682,0.22803498358331287
1.7099569450167196,2.4090784805090735,-0.5548935819971303,1.0266256640184503,-0.2865119365701272,-0.2567899876594135
-4.486986096260877,-1.884574175374957,1.8967177808341444,0.7727734571317597,0.010576959292180277,3.9592831480295048
4.353648251819502,-0.3416076520619902,0.007143039239496107,0.11561527494968737,-1.3324453977113138,0.13674550318113116
0.38962471521035136,-0.6575323789910308,-0.6101209264080797,-1.167375184835585,-0.3167294851833473,-0.02670151935365872
3.2368235488452486,1.0021207718949698,-1.277816131435857,-0.10879105147834256,-0.8259890029867873,2.586476443342273
-0.3791721444664321,0.3087034569601954,-0.7534336418249445,-0.18807468117074833,0.5088531900247273,3.706336183331396
-3.873880012195963,-1.0885220792110355,1.1002637147670304,0.18129972021975654,1.931493579229664,3.8540633081979996
5.794860414602964,3.7822112698357184,-1.3555981969463813,1.4271114175333133,0.8808303235086044,-0.9535919717480539
0.9092525107393139,0.10200304551564776,-0.33590424636590954,0.2867923744646411,0.22550641259365523,-0.12593901992053014
-1.0115983709876586,1.2219757998971148,-0.9753811307070106,-0.3306539722580596,0.2902337252937993,0.28489931169434235
-2.7531736030410254,-0.18884664180027766,0.06391451575174001,-0.5199198860490665,0.31111157695294167,-1.702137128957773
-4.362096730134404,-3.0372289893942614,0.8352645654924475,0.8462489956813929,1.1453403870578271,0.5512876025256709
2.5760129795925883,-1.008575892512655,0.2734382467684022,-0.09599472958753086,0.7137634714911786,-6.356887841129392
-3.022025915462926,-3.584888003776708,2.633753610157596,0.5798155469431974,-1.3285061783472973,2.561149283988626
0.3118411917997881,0.30181220341920056,1.1254003083887603,1.6796594064293817,-1.2212988774747573,0.0854831738811953
-5.280084892723153,-2.230258649826358,0.2602130971543563,-0.1552655288129713,1.0171218768171315,-2.9615006345562938
-3.0591942159450314,-2.2271035599155296,0.09543162347768831,-0.7465362556779471,-0.28836548346718116,-1.2774197039232045
1.8478819659328267,-1.4639083045956858,-0.19263546993822397,-0.5946657576042135,-1.3749123987814835,-0.6080447802505671
-3.748586723387787,1.8719808583189843,0.7945998728684254,0.49603434163285137,-0.5886662942061777,4.27669120553437
1.6735185158136425,0.7002095526519599,0.19509377317183657,0.13243796305659822,-0.1636649423361125,0.11387548039141482
2.293103764714708,0.838637074519446,-0.33520551831304923,0.4060545259191739,-0.616235572916475,-1.0460963727846553
2.3744354777219883,1.0211311809961658,0.31297414319102423,1.0171319434516786,0.7469786480535199,3.199597429939077
6.11749499329151,4.745826554409922,-1.6057245352305645,0.6074821897359559,-0.6886617090822504,-0.5707899425324673
2.8798377360726644,4.9058198398984105,-2.06200513144817,1.2463829519430372,-0.6407830943159353,3.071749705224127
2.875373440059403,-0.6616507087494801,0.689406115918641,-1.2210034378315497,0.07181533070113888,-3.3392461525848183
-1.0713674196751586,-0.714354426825699,0.3000835220291894,-0.1735793714936392,1.286140514756755,0.9064204244868399
3.3008650951704466,1.5159714730945881,-0.6102612588624441,0.92217577953732,-0.44164243634398526,0.9847208291543428
4.179419731604986,0.5423783686633177,-0.5538398072452793,0.28414183808143456,-1.3301721285541064,-0.8173249736306121
-2.183898939227353,-0.5543624642111957,0.845247473467471,0.20793924691125915,-0.5035503365225444,0.07602749747628179
-4.465089251114673,-4.670260383029376,1.1798178577502256,-0.0009156988516718922,0.3265867136566174,-1.660003168696635
-3.8477380691894667,-0.15415950278945895,-0.5908437730958367,0.32623013946929535,0.7351401534971967,1.1617218163163407
-2.001018155445011,-0.3565695042270385,1.0160541726519718,0.17459014720127697,-0.2249718150923662,1.1177546570384824
-3.336235204120081,-1.6537118900912375,0.4159585960224567,-0.0340327350354786,-0.9697205664265971,-1.6910642462463774
-6.1072717819325,-1.9417515402737988,1.2269144744628682,0.42193005137033646,0.2853857430619691,1.525061814680201
-4.451237880149973,-4.520934705585578,0.025949298766649004,-0.32537090408506997,0.7718252881992942,0.43611202657438985
4.057296589587908,3.043360695294539,-0.6380155341621444,1.2088228430182022,-0.6557493081867807,0.21018695786461733
1.6484371136592002,-0.5945921906487219,0.14687609413721056,0.09028100330368471,-1.377777007897276,0.3956266982443758
-1.4737083017638177,-1.3372213098309056,0.27977353009018874,-0.1744971716144248,0.14806687317654266,1.1081161851467842
-1.6204777399068702,0.13509369965772883,0.40814112481026377,-0.013104235683343013,1.1896108872418827,0.6848360776242671
3.8089855279435136,0.6902061251213241,-0.8777168314523396,-0.10274625055249476,-0.14731254965269724,-0.8522060286628272
8.88264170335431,4.02215040250352,-0.8875791087140783,-0.1561300315506693,-0.8323522325009712,-0.5911381382222574
-0.03050082523145825,-0.9488869444897146,0.9787018166647617,0.6083882167996214,-0.1960778695367975,-0.600473083985445
-0.731539722452627,-0.0927934359832272,0.42788345981827575,0.43659848657389144,0.9476965770409731,-0.9375201411706318
3.056437040383255,-0.5400505225403557,0.5852553651506356,-0.20543513109931744,-0.7237606240720715,0.5750182859586184
3.142482948042217,1.1522021951720727,-0.007965597212211295,-0.2894819610333783,-0.5003171623418918,-0.40437374086439803
0.9576085102926384,1.9301844620531634,-0.07161364825931704,0.7142538763853545,-1.143000791013705,-0.12934801561388887
-7.963809125361626,-2.5150965780509225,1.1898365166282758,-0.0015901554299586063,0.9918459058931501,2.0755507568355833
-1.6579208160121988,0.902695440706642,0.0344602341223092,1.0135192500906844,0.4280505643707714,-0.982441044625205
0.09204804515955334,0.3848497265968167,-0.004627017900401098,0.19350111726788005,-0.23295112603870127,-1.0063448740646064
1.2705600166331035,-0.6290952948959425,0.12978664711181392,0.3079112923480947,-0.356084342411231,0.6667914757575711
-3.9841898785473107,-1.1541493401448257,0.3213102843885872,0.437830438886462,-0.29107848251151924,0.6818066252232706
-6.033953977539598,-0.7007554063266372,0.3865799132341584,0.9561094578409552,0.026909648265647734,0.8833548222160037
1.7679176781165657,0.3738122304455719,-0.12905651925044526,-0.30510172940682856,-0.48338223090162735,1.4509733191864314
0.6726733874496533,0.3756475795891904,0.13508463280702437,-0.15131617357426524,-0.2661401445164595,0.6342258822338013
-0.5956703174784777,-0.043921911384594337,0.6439907992248786,0.2798900017783307,0.4179256214307938,-0.79835987088575
