Gx,Gy,Gz,Ax,Ay,Az
-6.412711,15.911893,-6.779225,2.852000000000001,-445.22599999999994,-19.143999999999995
-2.8863208694188462,30.047126270453848,3.2512741940855285,-1.2906936459732232,2.8862545953015744,3.1047854174159193
-6.798176434711815,24.851207602228055,-0.21515636673883254,-4.004354992711407,2.717186755294991,9.143118659905705
-4.5612543199742746,25.029977957439236,0.7306301077626434,-4.397708719216237,3.5341505013767005,5.194555498635104
14.984474953162351,70.76221312505717,-0.9615310539484263,-7.405058352944644,3.2671906961596022,6.044497162953035
-22.22515629315248,-131.97461969212904,47.49094371072116,0.5277560935897332,1.0984379323889546,6.079027671332538
1.7118896054550625,-12.549288905239605,9.814501747665366,-0.1477710978145083,0.39024485976749407,4.674905781451957
-17.430830370276198,-14.703742836266324,3.778486460863909,-2.7428952104076374,0.8550293113291616,7.6067013541490685
-17.336032567682718,24.788953991391978,-0.3792652252072748,0.531239979146922,6.996035021074833,11.865620317565435
-15.86798927134021,12.077027050871742,15.944805069804584,-0.9044856754929095,-13.206965975316367,29.543888792763145
0.19463239363290086,16.236289455577,11.613344132298677,-4.260581388167362,21.96083265104697,-33.994798402588835
-12.773887788902808,-40.66855972276006,7.138648558641741,-6.094094196620646,0.42897739022305126,-2.065715209534164
-21.374632240824926,-20.22911696497381,20.276438031866565,-2.3935404752345573,2.342501794138869,-2.3698770748884095
-16.378523208766993,-5.272091543044279,23.4997383968577,-7.983153422748274,4.511986388793756,-0.6330141195829416
-23.47133879166755,23.972494871128518,115.03139755729372,2.2640066088713717,5.890790155446629,3.705303168036737
6.929520715019665,-50.076380243192105,-70.23146825882941,-3.5177750451854237,-0.03502157163849695,-7.00606781854882
-7.11442114417388,-11.843870085335668,-15.13976578861681,-0.4975603688702668,4.009154317507102,3.3025434667987685
-15.180464541143968,6.7947283150848445,-6.254754261272225,1.4551170024163644,-3.5506190550066234,5.918317914564762
-10.776316498481554,0.5597281202605942,-9.152416783508665,-2.624475867621727,-0.20001593108255597,12.842427665284404
8.529207655590309,4.670502745363017,-23.881139958553906,6.96693458034572,21.886633640548894,21.049728607477956
-28.993829462425932,-10.614457323494122,-6.790951801589262,0.8454827029492105,-13.903727587031467,-4.008047028619783
-1.3874939826398713,25.00442641006351,-15.812250163926466,15.268156417655948,2.3474093449984754,-0.00013647923501336479
1.286031906139499,12.548654774807787,1.9194091261657387,4.288789168948258,2.371349090070598,0.9142398124803073
-19.437562530848172,32.520062924201405,20.01012403157896,17.532525245249097,5.598555590405308,0.9549890801889196
10.633548408169952,1.5089496757829357,-35.786781608313746,31.88605425013661,13.54475367933069,4.879377068620097
-19.080843054204315,5.215535904113526,17.53219876562088,5.052213783477081,3.834782322125708,3.2560802555482806
-10.209191797554784,1.2010606205005283,1.5260437169579586,-1.1147794019671429,4.142699529934091,-1.7222144073187167
-14.655999898440296,12.846221924660394,-3.563257751820201,11.722587232159327,13.755315056581928,3.8126563644456137
26.56553158914258,-2.170936201271444,4.178229150467472,3.8284002758112825,17.340747754263322,11.302399509942179
65.83127824949224,3.521562247576706,-18.313600119129294,-2.4035206464740995,-60.859964936358615,-21.643132806608403
0.6964933269185618,-4.052237205539175,16.85542556912475,7.375852948458306,3.3449495204741693,6.098256001738216
-5.3820100159041955,5.378738770931019,8.696766874397081,4.2650212035310915,4.114002896392098,-1.903424613898535
-9.341341738162319,7.422854304747242,3.277477697247999,1.6724904030839687,-9.66797361425511,1.5677199459973434
2.0358547589603857,5.752051012512965,-6.023838462453114,8.342580048183473,-1.5291314259925488,2.767874525258945
-0.6487619346280642,0.6101592536449161,9.372768354332933,-1.8805850750592692,-1.8261405486754385,-6.005835553772085
23.857097046935987,-3.830375036211616,0.14385947356010576,4.415371252565807,0.9459227900495553,5.4476368985870245
5.4820414954992,-3.2553000041227325,5.641807790966167,2.9090752816930685,7.932195259837737,4.055163008505957
10.268955025606939,-4.078898119657228,-0.9879268596696877,-0.7869934640057519,4.6975121467478065,9.497776963407752
66.08649613413549,-4.657605201567175,-13.518359639585574,-2.9576000919488705,-30.817098597454056,8.467207592877244
-34.61248998861609,6.6402282619256265,7.704639869540531,3.678104799202816,24.268788958138064,-7.608049986947302
3.3485872902106024,2.6230484347178757,-3.4026400287605902,0.08737622747128138,-7.809864155180989,0.05798333444520298
-6.968601672679129,5.651383357821774,-8.56856739562485,-1.0424200744802834,-8.434224073954871,2.801481960356634
4.324390232209328,8.83939540505557,4.925707463730177,5.396654613889795,0.8832114511635671,-0.007571381755000495
6.560916533766708,10.113616881649973,-9.15252562114573,3.4721318058806205,2.8355470119327464,-2.17091501950728
-13.311426991916454,-1.4581036630393234,8.174521719480786,3.006483839538535,5.513910292371292,-2.1545077522363956
-3.9514590363614115,0.5656596604702919,-1.1947735236656978,-0.8919902073183383,4.240894100339709,-2.3759974961621797
1.1013338082801978,1.3182248783304908,1.8877402007200075,1.8604816682718415,-1.8784357819501096,0.9041265316160854
3.300737646829507,-1.1278238278473718,-3.44006510940672,-0.13219922253040517,-9.633980367925975,5.398078013397135
20.362410587996205,-2.5940374719657084,2.984510677732912,0.4542833773616861,-3.482903102809825,0.007917471224717199
-13.438731532073767,2.8379795802788905,-1.2084548427604083,-1.9743167234000325,-7.32532140782712,6.420645375707926
4.620722698674641,0.5100482528936768,2.204608247092992,2.1253182020267793,-2.602408484272323,-0.14223956636641955
12.145006202179214,-2.919042051626556,8.636153481974556,3.459087107174504,-1.685645659371342,3.130276601113759
8.373612985975285,4.436897679384337,0.13869465970703843,2.7708876126121145,-3.71668669291778,1.7657593003964827
-13.40925330670036,2.15349118048492,-2.36272554653873,-4.771261187314001,2.7722768033208585,-2.1561155603056146
0.2577533063323161,3.455506767114362,-0.9073364331094402,2.065983110159342,-0.7746989658884356,3.622612208033911
-20.79022384151778,4.388885052897697,1.8412155704317748,2.7685777084941083,2.9539559904231947,2.3384257839768656
-18.576049369569972,5.249180568249518,-2.719189898982374,-1.7440129827792732,0.25529529002447315,5.09787418741408
14.50267299272461,-0.427020009340902,-2.6554842681449813,-1.5845747256623013,-6.018927280388317,2.4308936676194555
-14.518452894055564,5.312348821224962,6.839379161402153,2.9241752942921404,6.139044376816724,-5.923193928156616
9.994979843419282,-3.9970794598371033,-0.8730588492133928,-2.526258386919764,0.8281728419532222,1.3052093843101957
0.6014014155800034,2.240910058654424,0.875344793520747,1.283726104509182,-2.8044517927018155,5.895983730950173
-1.947196187307969,9.785835950856598,-0.7504504951340482,6.353873285838345,-2.08735286631032,1.169513142289194
4.530608903460606,5.052417506761323,3.798748901513118,-1.5276966991771446,2.440646974794103,-3.4795758129104106
-1.5111438976595082,-1.875727777240873,0.6230033556583756,3.6487370557929526,-2.237005236553083,5.539598381297266
-2.4352303497093235,0.12912821372380634,-2.5967796078307788,-0.5317774370020037,3.3311099267327675,-4.2256479657333585
7.67137089987466,4.192463610296318,-1.1961401183686304,-0.6473273219153188,-0.7446799135746018,3.154058029429969
21.481190933077706,-1.8787575154797544,-0.14926537562261477,-3.190516669808769,-8.59750449091269,5.702171506294895
6.151106370326511,-2.2653748922302412,-0.23614844188320672,1.0354494291125855,1.476098419667859,-1.262964644005866
-6.524070225453503,3.1424454267644832,-0.3634864043654441,-0.41001617950956715,-0.19004433567625556,6.5691983632227124
0.3266953009767368,-2.4534849917977906,3.094848288258332,1.6454152157835562,0.18581514364407414,-0.40492617603732484
7.328290039806324,-1.2655187488564934,-0.08968248201368212,2.096226725049488,-3.4121442452130912,1.0627067229006468
4.162547055018193,1.3517578031574335,1.8548549491151771,-1.26031078666695,-1.1340767957240554,-0.8215950331505715
-10.418581536949006,1.0995580494078547,1.146067462832396,-0.9178140556812777,3.408922296003837,0.6293492221712571
-2.1653206819212176,3.1824228268487156,0.3592241553255411,0.8033552323406012,2.816371977018582,-0.6247517614520315
-11.147987500000003,2.4580735000000002,2.1012584999999984,1.4229999999999994,1.2419999999999973,3.158
-0.599930561584584,3.0840924171838657,-0.7941484995312496,0.055146918502870346,-0.04047911619012967,2.1109184963601697
9.807704378245347,-1.2570042641715347,-0.05041984878198025,-1.213444699939137,-2.3093371447503643,-0.625689793893907
-10.089813009936055,3.8626092949157282,2.887696278931463,0.9958471478417653,2.8794495192302887,0.0944246358263503
9.171495739015343,-2.227332536043624,0.02059954130100561,-0.3486384651851899,-3.748124987659268,1.457528378226498
-1.3591254789417242,3.006221505553971,1.355018545411785,1.2978054993125863,-2.843141766216708,3.6174284078658414
1.333781048522986,1.5695653356515653,1.454697461253732,3.201623788133915,-0.027049632339188,-1.1470180033930264
0.8541056549809032,-0.8474763271536987,1.3755823327732535,-1.0666227579662415,3.2581209291052904,-1.0464097330660254
-0.2948946836064317,-0.5308448129753431,-0.44196988025464545,0.9161929720811245,-1.8400377250943671,1.596620377230924
-0.7938391086189827,3.482760858839797,-0.23518275999211208,-0.7177092584679623,1.13182602240992,-0.50034437099916
6.488675193145076,2.8605378090283735,1.198751019684027,0.9563063168306214,-2.3219873249532483,3.0741407203785043
7.142150304206716,1.7324117001182815,-0.20247426324776915,-0.9516272972357108,-6.702017965107072,3.0500940143127693
-3.3116305799592056,-1.651728300319136,0.08738893376094542,-0.05887629561998786,3.180299301703024,0.380235344724954
0.7100054855149726,3.8092079717778824,-0.7587225474343211,1.0414595835449347,-2.180290743997604,2.5536792780422353
-0.011875838921844517,-2.4628676322421432,1.6965456053319565,0.2593162533155877,0.8176756743246653,-0.44732449468337454
4.9547484332811225,-0.9762754279232269,0.46359212460772725,0.3464005173883667,-2.0597251291995917,0.8942350281402862
3.0191009090209593,5.0942397315473675,0.669830515992245,-0.09096271651922738,-1.9988767124585862,1.2841809130947968
-5.491790684467104,1.7812628201948129,0.7855962384494042,1.206281833465448,1.381367427013739,2.5007926859660157
3.7009902146123954,0.8056843597579593,-0.11053601582393424,1.402031580832486,0.6466848514730452,1.3500186803592515
-4.51156299150337,0.0137943115325454,1.7158408843154158,0.8630433977558588,-0.2978509457229047,2.353225083293737
1.31142990264759,2.374889777851531,-0.25523504195325186,-0.47578042008952526,-0.5127316092825518,-1.1630077669554124
4.9261411941572755,0.6727432536072788,0.48786579857171036,-0.2558192763799457,0.16606601831964585,0.5287398822165484
-3.3402443120812038,1.512544456367969,0.9522909948168001,1.2100351720758877,-1.6140432608341229,1.9816921191528467
3.091885496995294,0.016392119112545123,0.26714835010352855,-0.7110169616029252,-0.7489730505060854,0.8131992291415009
-0.7321979103412517,2.544534454200738,0.4702122884847065,1.7424093353921364,-1.5906181440407625,2.088120055597184
1.9788366349598043,-0.7023846297401788,0.6416978824527944,0.879042699464049,-0.5401123896906502,-0.5198119444078504
0.49645483815926617,2.1096177713503366,0.34893996442442915,-0.4060330900728614,2.655348935680988,-0.21560897638136078
1.4149987691314836,1.3194500591298006,0.17132338103780775,0.48146183102695495,-3.1312645529611323,1.8469494136415763
-1.4503693067454766,4.303188156171826,0.5030206571015546,0.09962928260629011,0.684227279268639,-0.7569020244678777
3.6848783065821067,2.861273145566374,-0.11670429759154624,1.541185585420675,-1.7226835276660897,1.7845079414032157
-0.8848458526662186,3.4199080762273093,-0.059166789684862664,-0.2694299335394598,-1.9494897888723806,1.4936225644066419
-2.2848506892935605,-1.404416996134557,0.6546840701750822,0.5562127307979314,2.6242134105787382,0.36003070050545705
0.43270652532337195,4.21123107772788,-0.3593392931956747,0.538174300197682,-0.2595183095015394,-0.06826137263191145
1.0032741406687609,0.7094295587520166,0.7195144399942832,0.5587476596360669,-1.7078562279490583,1.1814688201439492
4.2867723283582135,0.7919225301733002,0.18920109496840887,0.32595694618279725,-1.8622787894129242,1.5022341090787945
-0.3250926609366699,2.53782065610232,-0.3089683672714454,0.5098238414830052,-0.03221138240799337,1.8492494799058532
-3.017915975495873,-0.2920052391336523,1.3130932566131062,0.9085858502436239,-0.769749206159476,2.110264430810939
