Gx,Gy,Gz,Ax,Ay,Az
-13.177940999999999,-3.1124649999999994,-6.234406,13.204,-534.012,0.9140000000000004
1.8023668078378234,4.547786101586334,-1.654513044481097,-0.9064421894205177,-0.033331445075172494,2.458816713199976
12.283030750528246,8.701195704608805,-1.4510722445845938,0.2701445120570523,-0.21459879105318702,2.667832176133267
-2.4984385948610117,11.20854128201841,-3.1483772112334116,1.3707010544952976,0.09967049155237806,1.8567378293348087
-0.05300639761608106,19.17920965256069,2.9603091226092793,1.290401415609923,1.071850597983816,3.484038086567854
3.2992214758104392,21.779932740089095,-2.548261823775348,-1.0662745181714846,-0.17059502266626134,-1.1955127135778523
-3.864015115933989,-5.509613233136938,-2.2046927624648767,0.22835525188233968,-0.5314462066518812,-0.7473074257827554
3.943696059011682,-8.228467921701888,-7.228284772654826,-1.40355137537825,-1.8240113047979025,4.536763887703513
0.6812789067921075,0.4343182637153109,0.6754352504181002,-0.5335541107254576,-0.21505721591382293,2.9638207377911545
11.582536094797028,-7.455894470454161,1.2948153448342872,0.7101895752585237,-2.188349039168503,6.133038325276604
2.617580638627852,-9.897732703851045,-0.6971129043432734,1.0185013860281134,0.11660268461457901,9.172697813253182
-33.26404013260883,-10.496568486059482,6.486274355564523,1.152959408145855,5.4631950855430995,-33.89017112138205
-5.275777664136342,-5.329105349638551,-3.900539724582771,-2.3371748598893154,2.127747347844729,-0.535432680024357
3.628245917017427,-10.324061657407395,-0.6864069269300292,0.07489599061006513,-1.5489307982951503,0.9191649518133856
2.1469492811753015,-2.503081154568136,2.7963542674760586,1.6889991938914646,2.6496930236018867,0.11930325031574793
1.6033032039743784,-14.329714869928383,-4.902402680392435,-2.8434623875255007,-1.15627885025477,0.08804624701728603
4.167614500277807,-71.0609030951535,-15.527818371233284,-22.808729480317893,0.713211701990883,-0.8552659281556381
-0.5631836304181994,38.18776861057063,6.726280743628024,8.750261736102383,-3.4331988823582122,0.28060865526979584
-2.4909260912103006,9.62216967111172,6.251558717998748,2.350455354266682,-1.8023849734887554,0.35530170835346353
2.6444456378959362,-6.520568480712781,-0.8187310736823914,-1.215619438119833,0.1330241704045445,0.22085979382619358
-0.4811036125099106,-3.0417287006360936,-0.07118818342673938,0.9982465051687743,-2.2405071426102525,3.091906026326689
10.079171737183511,6.152463557193545,0.4291803078548293,4.247363860711939,-4.341907581095944,8.369943157817698
-11.5999094782666,-12.733579725762329,-2.876975523971142,-0.8978426945718703,-3.456597409883483,-25.797833509882253
-3.331223833637454,0.7508417175317685,-5.528142374723518,0.4410314169341944,1.9004602918086555,-3.8922577579081263
-1.9904006116973199,2.196130334570116,-0.25981482990965676,-0.3462373664761939,-1.3410148299908144,-3.4966465063070915
-2.236130004543223,-7.404580324904057,1.9547994221738014,5.227891116434854,-4.62201476437724,-1.917994338576503
-1.7373837784976274,-7.182656526015299,5.242204277393306,1.0392272693937075,-1.6626583866511044,-4.234660413569113
5.719880501614077,-7.585083743903855,12.979225241804647,-0.9862107008783139,-3.044280959003801,-1.0543604330127898
-1.2436609581935907,12.950658075800574,-5.090655933962583,4.818635426775297,-0.47612559087520856,-0.26708642683978273
1.872055830769773,-3.0071277174223603,0.5214485107154501,2.6941509648297837,-3.94089574604439,-0.7108932044827185
-2.869435483831096,0.4401510924580325,1.2336829309909771,-0.3365919497306853,-3.5092440984765174,-2.1921543804618304
0.19098697880913562,5.75995528917613,-0.9701343832721492,6.785733133530362,-8.161606222199424,-2.931242353236968
3.165270210214296,-2.939587391556498,-4.7487572583413495,-8.52990485382671,-19.101111707828295,-8.944470032223023
-1.204967748146109,4.07602910403055,0.2833590989300514,6.705444817408823,24.52086133199583,7.180377178875068
-1.7933965086334367,3.387409279085651,0.003526483127657576,-4.8889947254442525,3.684185819676408,0.2801867455991286
4.63170675602931,0.6885892203212063,1.5371141974892613,2.238481489572076,1.3530721239341474,-2.0034797271989646
3.4323034308829112,0.3822305519243341,-4.73862273567926,-4.9183322503751,2.649929207805549,0.9118701511256146
0.14486217255270595,2.3669093585903482,-2.4526108328438876,5.733520376470977,4.520450282661669,-1.8291032346039513
7.7045769876735655,0.7489044643611642,-6.061718324762195,-11.448296723596483,-7.8854866571333595,-4.428233609630123
-6.3831364590129205,-0.9653673796892954,5.393337755951707,-0.17228922313585926,3.7068088340856886,-1.767011250872159
1.780465682267716,-3.76842648989333,-0.5753224746571401,-5.624272288310178,4.136986249550312,-0.9877672023712952
3.2082807826704585,-1.1039305842485838,-0.5265865384981385,3.3787260902968717,-0.3022890578767896,-2.7321981225856864
4.8303945981424565,3.2836088355588426,0.5504896321373351,-0.797145004088294,0.7589181050387901,-0.07840461142862098
12.256768956517298,2.3865316477988574,-3.778625474066732,-0.28844194531567746,12.899380629750183,-5.722867096971382
-10.382568550519586,1.180219644430324,5.896842209274466,2.1040127709083754,-6.277579685002113,3.762240711617887
-4.1731911123766,-1.9967994671891418,0.9743328373063136,1.0682034838080026,-6.905714694927369,0.6548543251519692
2.3760107963866206,-0.36433881469759477,-0.21476646667874255,2.0267879991806916,5.2709915817186115,1.7387330373533434
-2.177977865681875,-2.1255266052605224,1.6812160810954566,2.0683501712046364,5.372328311243017,-1.0749881810302493
-4.00916170551764,0.11158565529880793,4.5852317787631875,2.8970647179943203,0.054459131315086395,0.8044164700788135
5.935756224253763,6.871138128956299,7.786571364746098,-7.296576559490975,4.3039399604695046,0.16636502401426245
1.7340476496523998,2.9371449630997217,-0.20725411000212235,-1.1829157236199654,-1.2508450044072514,-0.9626341513063417
-0.9984394581879916,0.9881429535073623,-0.20426358472491934,2.0879787488235158,0.5379618163442004,-0.0532473207511695
-2.598564789638716,1.626722389889804,1.824758537204648,-0.02514282960891634,6.008714175183007,-1.5164553430701657
4.159574225649426,1.8932489517732884,-3.295314942202907,-0.3259603891308811,8.2179043318487,-3.3705500500846277
-8.183338542160344,6.2608402772897485,-6.257377958466855,1.5354324961747963,25.465335867788873,-6.766283917651083
3.2428206074938934,-0.3544789406274945,1.9896254775721065,-1.4993319819748794,-9.607028922686727,3.5608349890766577
-0.9343121667861493,-0.23694922081126557,-0.931073652866693,-2.1290764882062425,0.5017376695399238,2.100120961440177
-0.7233933934496046,-0.8210571784550413,-1.4079000819223784,0.3315827811834486,-2.8539448994387264,-0.014132067039066498
-3.0107766672533707,2.3441793812128,-0.774818579109033,0.7846861486606552,-0.197018195065497,-1.4840199655011195
-3.0466138895708754,3.9763873981103615,6.094193416713645,-0.9130499221783253,-4.263606075173716,1.7628012157226203
-0.3116492123447321,-1.552568008615078,-10.844301595316942,-2.2940034998557475,-2.629304085399142,-0.017822162145680276
3.950644700197889,-0.7688915720586618,-1.8026590451354418,-1.4396598936712397,2.656007527656139,-0.7215621767605667
0.470227257113249,2.2771573329350456,3.8611149734201793,-1.7609260177744757,0.2606637587414624,0.2914872178830523
0.3237798786954862,1.652382557124155,-2.5388053113310893,-0.39635357102274604,2.462475542227634,-0.283039584729615
-0.17857856337916367,-0.7648292176350113,-1.6315533662343333,-1.4942984880916015,-2.319703539278033,-1.4550117705110612
-21.945082054246477,2.6685612800441696,-0.27996847169981565,2.1292935606235464,-10.85898756155638,-4.779366718827976
4.740998866172031,-2.46923245237356,-0.7731222634747847,1.4938759104469508,3.5346679565825427,-0.18025281930001985
4.890169226170266,1.3483125544968808,-0.08376989707662552,-1.5359091898462918,2.4639733448273002,-1.572743630577948
-1.4317099685863979,1.2710627656977391,0.5807459591178005,-1.4040850000510563,-3.139673775507198,0.12331103303925167
-5.123121505026508,4.22019102361023,3.9210784242716255,-1.4811653646164382,0.16405782027302718,0.543740135588621
1.1070490402720687,5.101935866646489,2.635148978491075,-1.5382588570978042,0.7901604200114307,0.5927784819625594
-1.9231110397233824,-8.115465527206695,-4.118598304207851,1.6147054312616453,0.5305172911614138,1.4178018655269122
0.0972185135100472,-4.81076966484574,-0.936101644747787,0.16849902713123488,0.7049534474883953,-0.9197101528106681
0.9018301082318116,0.7304621559534172,-1.6693822683533244,0.44808023813057296,-0.7984795009053716,-0.7250614403810345
4.076550446428746,-1.0029836783533574,0.18708780821201554,0.3510728793761072,0.9442232873121199,-3.7255763946155276
-2.4487211130607767,0.22915061040753792,-0.2846688840571012,-0.46607748516953684,1.649463799655021,-1.8446013794473841
-16.491663049421383,-2.702637076842924,0.40941876992976045,0.7401753477623667,-3.3039003837543115,4.606777533267218
1.362035701820163,-0.8050032363915804,0.7195902137180852,-0.33821747933367496,-1.4496977365447727,-0.41039938818180866
-1.0513744206938687,2.5173071945916563,0.4310594520415109,0.22433079445798165,1.7105539942792407,-2.2469167226299076
-3.1170026198911978,1.6567719667787044,1.193083029943516,-0.07103498844517969,0.17248697283282777,2.0004727887652027
-0.503793296731637,1.897770553681555,-0.30526532178784416,-0.9884095348257803,-1.3923679629627619,0.9717233979797779
0.5112866472063287,4.761778829554107,-2.300353407522525,-0.83075428190917,0.16629012385848707,0.5837869223428944
2.486084922236601,-3.5169604624271287,1.7282871686759864,-0.5758511680841394,-0.4101218692194841,-0.08164756158767661
2.157294912604754,0.6195430384730618,0.4164978376818984,0.03121036949552322,-0.43144824759706335,-0.41672760737500547
-2.626042401070445,-1.9593378085810376,-1.2030295579447376,-0.5836616871041721,1.390155057485929,0.2726954600035434
-3.3270158511417005,-1.9427727634485326,-0.8502282740009847,-0.04923679578713891,1.8795316549554535,-1.0254624353658772
-4.842295375912764,-1.8146611398174128,0.8055991977281826,-0.09284891402105899,0.7217479680798251,-1.9596687959324728
0.8235731866565817,-2.2895120806951743,-0.9243903416004171,-1.6254922285800415,-3.3130892255322824,4.994027794559022
1.647411774034873,0.29509609157979555,-1.0399374998055935,0.8742204034237562,-0.11229096779646336,-0.2403274692182069
-5.391785679580186,-0.779945763124305,0.18996913398137139,0.7842164264191853,0.27408391725361736,1.406429350195239
-2.0128029865305703,-0.6471084271602776,-0.4150688844916908,0.3657660111732203,-0.4086691048815562,0.11148890030631942
1.9603924347466093,-2.3494966216991777,-1.0091715351442265,0.08343947176950267,-0.06207459726230413,1.2112340347460364
-0.7646724188749872,-4.522847476730638,-3.74340140793771,0.4813920316098542,0.47010891772046615,-0.34653107967771346
1.018270174212909,3.103459126480291,0.49383861814283014,1.007396642575324,0.2826485847394503,0.07934819674567958
-2.7856804830161703,0.6398911460935799,0.06787891634806151,0.5574358008723214,0.2611612017337819,-0.015327872590870761
-1.4807355564760203,0.7983722386948799,0.5188073466639116,-0.3526920469879076,0.1995713419699744,-0.4996557480025039
-3.6889040865019407,1.640833990102971,-0.060003525525308535,0.4223814908565531,-0.6335207324798876,1.4851489117675796
-9.723932082718376,2.0270390342612363,1.4856716606774782,-0.13720726782343162,-0.24807376267982062,1.9549511314232706
16.598378217543715,-0.7809985727649265,-0.5273633926514076,-0.9849257794407249,-1.0183705008326538,1.0356587196155598
-0.448219201588138,0.2515591358052198,0.45033360810118017,0.13433972951924578,1.0391483277439497,0.8319042600214951
-2.3720981369731957,0.3895918848809159,-0.3121891010868998,-0.48615524357921813,-1.1435119915625522,3.0196675524880856
2.078515019989874,-0.4900848707579719,-0.2996800915941904,0.3529675715868815,-0.2557226327442281,0.19310535004176654
4.095890175671727,-0.11059842145768872,-0.781010726430733,-1.108903544824366,-0.4468308678131905,1.4354486864383285
-0.8642047761795908,-4.583120084833036,-0.24830300476558892,-0.8267809071030817,-0.7368776792306744,-1.1011165391636335
0.8451241301424738,-1.0078822878874218,-0.6241939111918516,0.43980958842689283,1.061329654921614,-1.122460550928823
-3.7841803593773173,1.0696700354339277,-0.30238828999822226,0.3078055297191111,0.08433164532539283,1.2222119692938276
-3.321498428811542,1.3295228032405435,-0.3920517827675892,0.7240878621690601,0.6539666343708979,0.5323331065071
0.45100671564310524,-2.860278889791611,0.5593595034732428,-0.3458426630374436,-2.0075331204316704,1.0176291162293185
-2.714083936558503,0.4303654519432074,-0.13087503703347306,0.10567986353923273,-2.7018161155275715,2.587501382775399
3.2962791809055414,0.009736941021718681,-0.40558819579953953,1.0921262142036148,2.8928860319655465,-2.0702056619698843
-0.7655011183632783,0.7853413240819829,-0.06349412810096743,0.588597931339701,0.3194015869483331,0.9298031416374389
1.624616896187453,1.1057190217704809,0.20097371852939397,-0.047855907313783974,-0.7825335754957405,0.7229987260407219
0.4666086824685092,0.3280331488297654,-0.2953729113050032,-0.38630953299819254,0.2962991077202252,0.7546983394495145
3.0858143352069147,0.1876730864387779,-0.45151381438300203,0.23214565720840002,0.0449679284533652,0.2660758861283213
0.6741399304279322,-0.9624701602222411,0.9042072384351376,-0.702737150457497,0.47534601263610626,1.710197900277206
-1.297805993837601,-1.3905736927723171,-0.05897996554883117,-0.6573921995645261,-0.2205184659210475,0.6214220740467287
1.7463033150455838,-0.5656188241415501,-0.5856138198296856,-0.7133517405800777,-0.8960882887932695,0.16632201635541152
-0.03735981207406708,-0.9531680208995805,0.5125338572915322,-0.5428516183005142,-0.6654872104844844,1.0488111716241972
0.8161497294339548,-0.8952028509787631,0.018451811072996205,-0.5367608584270651,0.10278391026237266,1.3876898755566942
8.790232799437058,-2.946335006923911,-0.19895528925645822,-0.8656951895479779,-1.5651502297496585,1.8395190485141004
-3.4249374260617844,-0.16800866905448958,0.10803138831040729,0.08093879617847666,0.9486130907141708,-0.8922917829878007
0.09804196292272048,0.0369363993501709,-0.6885713480030051,-0.09429403479852488,-1.2399752842769038,0.511832719411068
1.1295851356832924,-1.063886786733859,-0.09767286132030123,-0.35892887529584006,0.3914507233705453,-0.3385169576401884
2.121956629989361,-1.0771877130458893,0.38168977821344496,-0.5949082209210665,-0.3363877873976161,0.02196698555550236
-0.7120691707956277,-0.9001275734813268,-0.21140128250689355,0.2568389676876407,0.7313805863999874,-1.3518118289157512
-1.7444414329496813,2.0292080939431774,1.3230483167115266,0.7277714744918378,1.2029593084783292,0.48758251456900226
-1.1723015910861987,0.358544244178247,-0.24958604504400478,-0.007745862171151807,-0.6004705423644497,1.1270189463131828
1.5020534490359359,-1.6478281361469724,-0.30427605473482167,-0.3546277671165703,0.8177904508489698,-0.127485982883294
1.5884229399394667,-0.9655439798176066,0.49751973016659506,-0.5260399707511847,-1.2127572206631045,1.0225891882753366
-1.9779335467051333,1.612446716813822,0.26054612392362286,0.3195593042240652,0.9381797944249355,0.46983880536605027
5.351023134491693,-0.665017483746664,-0.04583485876842949,-0.06422439254034455,1.8241392196474666,-0.03036218946695124
-2.126593753826338,0.24960712789926043,-0.143337580589263,-0.09291094489634694,-0.6686580046946263,0.2467327802802441
