Gx,Gy,Gz,Ax,Ay,Az
-13.967210999999999,8.244476,-7.347766999999999,-12.298,-551.2660000000001,-139.674
-2.414011584922423,12.194672492975174,1.1273738524203547,2.8634240260379156,1.1655534698945949,0.1166986015021787
-1.8533232608318042,18.18314734236051,0.7692030932280756,0.7626112004203892,1.5786213321508789,1.9729149719597059
2.4851012990534755,31.23574138791186,3.0467273159552626,0.2987759467574065,1.8604410966211256,2.8005668565978077
5.886383616791919,10.207402897759069,-0.41961938798010495,2.1055039306124406,2.0970188339290656,1.5321822344870375
0.6342673241383542,116.16984636454322,14.704920909018037,6.217843454032826,2.8975655743219413,8.38096398979111
16.643034356564055,-22.96728685301152,-10.67012130714133,1.6725178747758378,2.1432531540522293,-1.7298053524255752
-2.624184453205908,-2.1424998444164336,-8.831273581320367,1.1100319280053128,2.318090724067925,1.2153522711094407
9.005138684087154,1.4010240925100126,-5.090516753213294,1.575961779921691,1.9323393144027268,1.7449221472922152
8.550319031075347,-1.8733143439425202,-4.115085348109398,2.50073777386326,9.608859731940704,2.485693593062637
16.981206376655596,0.41727220314348545,0.4821741635158089,7.313639505876292,37.76534299534231,10.674373364539015
-10.851439992791061,2.3238518375124557,-6.9768151991149505,-2.9404789142254772,-22.690779193177825,-3.479030692212871
-5.550952094821591,0.3042433555821018,-9.899258173412418,-0.2882111073452634,-8.336845388404775,0.1167127743722648
-11.148267975377882,14.697214488748518,-9.233995770008821,4.336801788386828,-5.221775882009865,-2.9582740506789023
4.217671846407363,24.016227104446557,-10.327913806508448,6.691096163129652,-2.138874920447628,-3.1024345153542594
-8.445586055006002,15.353152823796126,-53.80152772515728,12.00650820478322,0.848809019169151,-2.0746507198219035
6.447187455716504,-14.37392721471241,60.59716739913745,-25.286237108854237,-2.0817071836321954,1.381796818082174
7.445793478716246,-4.147690653346409,15.564445792288096,-1.3822625276329097,2.388023734278214,-2.2069487201412925
6.340440139872976,-10.957226261188204,7.336651292905041,-1.375493038459304,-0.8460558718402391,-1.740003239633823
-9.164480657879764,-0.11553899924522668,0.15363554278089975,0.948163628938812,-0.9685791244662287,-5.405590114637894
6.029597652603249,0.7407867921051989,-0.7646865662797285,-1.9529951725832229,1.5012259919291069,-8.639255856172886
-1.659671970127626,16.076733346152498,-1.9067884664624928,1.2221382207981117,-1.6563163922053115,15.318469645658293
0.32207159326466794,-2.8933743060944765,1.2445643438247624,2.6738357818288785,-1.0427656011499098,0.6499228717837975
-9.844075148644457,7.439635374042933,-2.3609418968142277,-6.687272407743095,-3.502821890763269,3.2715366630897087
2.702506662109963,-4.172998059211165,4.107101894269546,-3.9143908546055046,1.8230218927451887,3.078561182107127
0.6860611749668691,10.991517912504994,8.468961363066207,7.584483880764713,2.810627677593171,3.34554569275961
-3.6235339573304794,-57.80906883928873,-19.231091255213144,-12.983238985029491,-1.2068770018098327,-3.512506272729779
-0.764387768055425,11.357842949595216,-1.0370725153111235,-0.9721407879186486,-0.21758174060047084,3.6322129950552817
5.790524752446142,7.759244931973952,2.87359769509096,2.1871823915617643,-2.993588129680241,0.23037106029074556
-3.442100451456203,-1.4544763344945535,3.646477615298268,0.8800652401204485,-0.8666032119530498,-0.8555853252947204
-3.1550496274367403,-7.323729311026744,2.9987059036046864,1.825934348240248,-2.318933362997316,-5.349543526950305
13.784770417988874,-3.204852282401721,2.894927100457871,-0.00665293127209951,-39.77325732422137,-32.64928102965891
-0.30068968860802464,5.532682719309836,-0.749415818643412,4.810119132287755,11.357391637050302,6.405601068136178
-2.2564874094936043,-7.208367289859949,0.7150335038834656,-4.483530677496728,4.923536335741749,-1.883205178018977
-0.7210473783803725,-0.9349567087514468,0.515297495998536,-2.5701170154340915,3.997881275333131,3.391771288325892
0.4947404428570966,10.753055037738179,-1.3262209640403126,0.6238683495642682,-5.362348451467986,3.8771449666624367
13.037761862472319,27.547939902437946,4.386946250838354,13.254075679940678,-2.5394933671450497,7.089526907028832
-24.439604319124875,-24.497236124401283,-2.4062912272675163,-8.835769013947752,5.243463466603314,-3.5634986306041396
-12.470997019338292,-2.1334623367907106,-2.020701409978268,-6.5718830282231355,-3.4607823336053603,1.9307916711824236
-4.166497172949843,-0.03805251384782882,5.1769278049533405,-0.31924216145450546,-0.2965820596535267,3.5864818667653093
-7.124171840118808,6.80067709166728,0.8465474224689336,4.7520069134171266,0.9959026343571831,6.0061892340943785
-11.932313752260349,0.9472329419473097,-7.725626496537639,1.0890842302971815,-14.852476938232233,10.204789322515179
12.98288762692863,-2.9116831329424686,6.386686659101662,-5.429291674319732,9.028851237260216,-9.631658782041052
8.005701667604862,-0.12629096724854072,0.25099342873235203,0.33057609821602785,4.238569997119858,-1.8223942287453312
-1.4417198180789472,-5.544602483767003,2.730082553420551,-3.662953695369655,5.4434795926246755,-4.7324693860456915
-6.861967393515315,-4.485926144750563,-2.9118726910953106,-4.261382705715749,8.717886508589999,-2.702035499166437
0.6336249231921556,8.072378571887828,-5.998171925824688,0.26656411501636607,4.206795391979011,-2.492484432332681
11.156975000790236,-14.327022859499342,16.54783120354483,3.90971020790436,-5.418630858675707,2.9035732600293627
1.0937944696651363,-4.493697083609645,3.223607465959149,-1.7681164384406312,5.461247971113416,-3.7803905535310327
-3.6230454650263937,-1.3089605642893847,-4.752997412684088,-6.893135823765379,3.7220748793622818,-1.3387539623152664
5.164124013690907,-3.486767760458136,-2.2591902603464176,-1.396194971412179,4.762135109544726,-1.8586793080469926
9.241465329059661,-4.051670438607754,3.3307076476454935,2.5998380976813094,8.173906952208585,-1.2134443853070573
-13.329730939378859,5.725709873695184,3.218101254876619,0.8469579859937475,-30.42937455455894,10.296665567854678
5.246312435396179,-3.0988125817932954,-0.10119684207347901,0.42323966536544666,-4.794810688633591,-1.1084134031388824
11.490891345019548,-1.9953068425935676,4.642895097735405,0.7652650992062754,-3.5356901852334928,1.617104875674767
3.610788405804858,1.3099749215736844,4.883210495641513,1.0628265901021339,0.6135974395537946,-2.122479270687275
-3.4778218229057374,0.8416953103090266,1.1156681889151523,-1.9474052670824233,1.455635664814407,0.1706899466917028
-12.445429262914125,18.072749134411005,0.7815216414236784,6.195560621347397,1.3207672476426597,2.9502254918663375
7.762196209742912,-2.116918808966594,-0.6718310281176841,1.6596919532661834,-0.6624762807538895,-0.5953880579649993
0.01895027134121885,-1.7868268871068462,1.3899043913679252,3.7824441358893424,-0.13357405529558375,-0.6598901074316472
-3.6131952812010515,-3.240428193217471,2.011239464946437,-0.1653969966821495,0.12596370736307988,-1.3917435507899398
-0.28208616149200516,-2.868621210479178,-3.4220579981754717,-4.259691287690191,1.619410104715652,-3.867394906397827
-10.917890400967908,-4.416393274050305,-2.577073504646697,-4.24324934833717,8.299024730336535,-7.86885835336773
5.924790209613661,0.5384686084572683,0.847489091411431,1.645006614539962,-4.758048146071717,2.4528450556149406
0.5921700213628365,-0.6608291570694215,-1.2933736234961095,-4.2721286349953385,-4.825158341872287,0.6350637472613145
8.292348661899657,1.1580019075362151,1.3864130203457141,1.0880664473167705,-4.917499261965878,2.370849879112484
6.324251272189153,-0.426015013386785,1.2599975270565933,-0.320076141192703,-4.673071602969532,-1.760085064829215
6.413379879907209,-2.940414917736277,-6.239841208067433,-4.578714594380206,0.6123378567291067,-3.085369220003167
-7.24500201704989,1.679249267346188,6.207640806944957,4.764557832087009,0.8224398444710088,2.953428350222489
-2.438254421279488,0.26323577097971734,-0.5111765044994956,-0.057362603324245115,3.6650027871719786,0.7541323199651133
1.5314079643943863,3.582880557672547,1.9714224154048787,4.3286715178034605,-0.523146310950225,1.903805850817775
0.08599857908056369,1.3977365218579128,1.786051139177925,4.0086742388354315,0.5148277976037356,2.406945212652759
4.479562910977401,0.11722971973736557,-0.1918466906093173,1.3015676759431463,-0.48617366491630487,0.5279625535217644
-10.618219958819635,-3.825760911073856,-0.8366618631643495,-4.708303729801506,6.547439790423141,-3.2763988658278467
-3.137122856949744,-4.6975402424722645,-0.20999968987697293,0.20685113851305476,3.955209494110142,-0.7771732589967819
-5.308667095487971,-0.6837924351925363,1.0515430047444163,-2.3611539752433184,-1.0879299055271145,-0.9779180989606043
-1.1121470413404158,-0.2876125241375915,0.8402570082146497,-1.0548167129759185,0.6607172419715691,1.3059381244795876
1.5428896141359876,0.7280709633582698,3.638519331620533,1.1363610752259552,-0.7497705534750081,1.4037479630886982
9.293109713011757,-3.8720561608318254,-2.124332974324254,-5.979774483995323,0.19198940164725042,-6.4969441134621935
0.5394477865910903,1.0309955992009774,0.5214473763996106,-0.9583474613699527,-1.5318012492407154,0.731864819814097
-3.0823470841767984,-0.8005414399781686,-1.4437328349039635,-1.1168924319304225,2.844678098655673,-0.3607464529551939
-3.3103417964015085,-1.4001077491721903,-0.6430956551266269,1.3620438874436023,2.773473364774372,0.2545111709540607
2.3488564901951814,1.4070562757029557,1.766389038869014,1.892356808479767,-2.431052134432086,0.9289722437575918
6.4953226210921,1.4165960365443269,2.816448684293727,0.8976389236283355,-6.276972845731903,1.8608054983587354
-0.34119897232529095,-2.165388004999769,-1.367843360935453,0.8414716175380837,-0.4910042540730136,-1.314364771612166
3.9700034657157883,-2.1152500874147293,0.45021399021471115,-0.9222737591406521,1.7479045200099605,-1.6265999243313853
0.8237360240616085,-1.8274029982346818,0.5326542932077641,-0.38738218160363364,-0.17501375070051872,-1.7042731078206739
-2.925003373670322,-0.6362793895948432,-1.1208671512225352,1.7875630102356665,-0.7906550888486288,0.8173044893434689
-3.3036503900961773,1.5215112327603828,1.5764160143830885,2.144728677732813,-1.4957946076657915,4.145742748875453
2.110073303168022,-2.627995986466807,0.14838848042154212,-1.5549946458124295,0.7578946787831178,-2.765976916302954
0.8139389549451972,-0.6118027036172204,0.3145031427316148,-1.1628093588982935,-1.9031022058107223,-1.05432862169493
-4.188766606501816,1.045380769491813,-0.2564304696994627,-1.2805906659845123,-0.574404413666241,-0.8409998425705734
-5.979968800404836,-0.6001855496807904,-2.1878061519932133,-0.25889090398524106,3.9255010556839953,0.08835071810215311
-12.255162155814126,0.48535641010391906,0.22242793452953902,-0.29661387068631784,0.7583717535888466,0.9058708623977464
9.42821875809971,2.614926669236465,0.7371015100095757,-0.2655990757860252,-1.1813321802280061,0.43918069266263093
-0.004464280559532796,0.36639475897802876,-0.7754319905608716,0.8991796505018737,-1.211629151443664,1.7332287344019899
-0.9720374999999994,-2.695112999999998,-0.20505650000000092,-1.1620000000000004,1.431000000000005,-1.4079999999999995
0.8141060234982678,-2.9248724656354295,1.2195141124603552,-1.6905118828450132,1.3069341978774678,-1.7992853069496402
-0.4675693989724219,-1.3724972859766784,-0.1659791729762044,-1.1107709529793344,1.7847769513129745,-0.8361800503579927
2.5508390968007286,-1.696081921217582,2.9416948128028113,1.1696043253865125,-3.044551785722982,1.076279122330034
0.8254610019712396,-2.7543635070386268,-0.057173286014796654,-0.30449580673423554,0.43562520964568163,-0.6002229346830993
8.251589563824878,-1.196835963530724,-0.8182987975959299,0.1303053217861337,-1.5574771536969472,-0.6455975325295858
4.517581089095563,-0.26809194306525275,0.4490966118758934,-0.5854795867327081,-2.003201689459893,-0.9516456459170302
-0.383274222341762,-2.4165354594881907,-0.30270792256614476,-0.6407928540323491,1.3523000584046474,-1.6923486267362444
-9.011781466341102,-0.3349552229156577,-0.9366455666013324,0.7881003522453964,-0.4314371853225556,1.9869998144740357
1.3515735769812696,-1.3234818718447512,0.13836039788305954,-0.03428801973860085,0.17602084568092002,-1.0397961128926176
1.7718545133482877,-0.07393221122349813,-0.5548258396368679,0.5305140474984102,-2.43768750358874,1.3082832279354593
-0.15182847667034638,-0.11920680586181265,-0.981161749600538,0.044799092110397454,-0.4326605118099337,0.13822276408668088
-2.6738861646261034,-0.6830329226825873,-1.3868657475902963,-0.06085768303070144,1.182123279182172,-0.737995837605639
-6.683878012531828,0.10508757943186042,-1.6170387689943808,-1.1933227463201757,2.767846641267635,0.13023528098966275
-1.2333509958357576,0.14076422496961993,0.7767569621471485,0.6468697827647487,1.1132469903551845,0.17668995788014324
-4.004528032574685,0.17076585369266783,0.6603431988141373,-0.6927225786306221,0.9198806699533942,0.7555026036881882
0.23772225396026148,-0.8272623632466324,0.2374417115493257,0.40385713250178257,0.9785585842000781,-0.035861772145787674
3.995146385145355,-0.9624316962181274,0.21290104806408433,-0.6117852887913269,-1.0032746356137476,-0.7186125304488735
-1.4575717072974683,-1.9510898776944057,1.974344486625455,-1.583428694224869,3.056812570434621,-3.340762824022994
0.6946762532746109,0.10917357963640228,-0.3604933088849671,0.25555021022461105,-2.059051584063476,1.4449854062020249
-1.113206040710206,-0.39678104180091284,0.5706198396549682,-0.8225988592979362,0.43244373703186234,-0.7661383393274961
1.8234402062883046,-0.649510384844069,0.24682484660439863,0.8169389038272332,-0.36309875281848614,0.2921394711171889
3.2129862197079406,-1.153727060554768,0.7404943063242577,0.1518439928528768,-2.229474722267497,-0.008301411700689876
7.115905092827667,-1.2442808654669122,0.4402900649620779,0.8726166547394238,-1.7464626234068041,-0.27428897810570074
-4.079084071265924,0.5465833954762782,-1.073988487947359,-0.9170330702039505,0.476269932724839,0.01322806604058066
1.464047746358802,-0.2870387611942534,-0.02345277613810981,0.27634315131561227,0.22200129593765788,0.15277749647820327
-0.41518402780753916,-0.2202215262895275,0.2262848927586545,0.04788203214264808,-0.9088611390136929,0.4774523387528115
-2.300994260127553,-0.8193676498810579,0.05564427872690281,0.480709968337968,-1.080799599907304,0.29191001462539873
3.6458253656392454,-0.17175505895160603,-0.8086574793061612,0.44256276791763205,-2.1094414282153098,0.8825825955625691
-3.7822657976715903,0.02966355776636931,0.06791276594198603,-0.7530447764196773,2.429244865733946,-1.4106120075840802
0.05711277343926713,-1.008501891136819,-0.3891325861555457,-0.8371838458216059,0.2710031940488544,-0.5510396060220065
-4.016353096555562,0.16079249443018107,0.41673498268337755,-0.34802033347349476,-0.0578923674840226,-0.4314727582467963
-2.687296476308189,0.6528197994229492,-0.6316250457377287,0.2928785829645799,1.0651194873553926,0.08720902927327007
0.196675297069826,0.061571440280943246,-0.24356338073980946,-0.21894523287034978,-0.47832445337161067,0.5713251190905433
5.682104704991509,-0.8628171358032319,0.6501399043067445,0.17821378459837756,-0.9662158156461618,-0.9105688017415607
-1.2757778339611372,0.13257432489525622,-0.12973084571925098,-0.20212554931238813,0.45060437330705555,-0.1419956510603686
0.6483131652528508,-0.2225510060655551,0.047208825407577426,0.2443124723801816,1.637852563313109,0.23472750442243395
1.1428043697138976,-0.5914396200444106,0.4092603882366726,-0.32931247837678024,1.7920335741166526,-0.1834083989580399
-1.1381893959393237,-0.7367099774686978,0.39057297552636366,-0.02295838758433455,0.032705521585073366,-0.43405157535694
6.242392449085379,-1.4796472127471034,0.3026141960849739,0.009263558281351614,-2.695715618771854,1.0396861280430212
-1.4266654571986481,-0.27429880314715405,-0.7610556027184265,0.16081463984726185,0.2665104966932651,-0.5889818581316195
2.068340376909437,-0.5261128262437699,-0.5573485382065022,-0.8175086806379382,0.7123738672695779,-0.43823772355179547
-0.6200383785769388,-0.0028921659717334736,-0.6868654771594209,-0.3713567445589151,0.19778470651068392,-0.9924708365469067
-2.2287730687648084,0.5792915292507159,-0.5628248946996399,0.12485451491145427,0.23440222832695357,0.2055079846038681
-2.704619318417385,-1.3643309189865374,-0.02567172023306341,-0.6876786725974946,-0.7938503226918314,-0.19707504098148032
1.3136902324816222,0.045402883549476636,0.14585416550967256,-0.27695048044870574,-0.21848837307237723,-0.15054349580863324
-1.101633882359996,-0.4231584538434714,-0.2220447800763744,0.5045354249873185,-1.147062787600721,-0.24425856842221316
-1.7309068232048646,0.23513066748996203,-0.10691487923030252,-0.006484098084672318,-0.9023565014989093,-0.0830013311275376
