Gx,Gy,Gz,Ax,Ay,Az
23.025987,8.378670999999999,-10.267301000000005,-33.784000000000006,-614.904,124.872
9.048543683199156,19.261784498093405,-6.12074411677503,-2.668808998239093,2.248660324793833,4.237082437389391
9.16862273256982,17.66498083836848,0.6553224537083728,4.422039997353533,1.0730307616870867,2.7853967219734237
11.609685408739928,11.228735438258251,-14.880090839285177,1.7120672016604108,1.0418295580417072,2.2513707258204145
-1.0330738911160542,-21.767554502231786,3.8110529847627346,-0.1022320604828503,1.151153376587867,-0.2403211968654738
-2.321804268774652,36.364568749350084,4.060719549421533,0.757755941379926,-0.2067160860434918,-1.125244204693575
-81.24455633804286,-311.02328592313023,53.446618611487175,4.243817977177001,-2.314224500911943,-4.272579823490165
-7.1843294048009945,17.157217325604638,-8.373366837388065,0.14845254352160164,-0.7526931272980337,-2.8834698426127323
-6.719662144543459,6.686895647639615,-0.5248276442922872,2.4445976608560143,0.32854686646699716,-3.099491022246653
3.5183033387396274,-1.8617699371573178,-6.08031704697229,-4.692501624604665,2.155956010960562,-2.4043647068016747
-2.0521111981281597,9.463143005531496,0.4971557884525133,0.6988827832990072,3.816839180974348,-10.678106941788366
-4.493243990821749,18.680527136772266,2.44320863075864,2.3148913848940125,6.824172406527356,-13.382342646250663
46.83438528253489,-7.913559797299066,-26.905732376756458,6.48854707188983,73.44453449961284,-35.71991588109855
-18.950915603395465,9.843755013914796,-4.019246506551229,-3.055597915743199,-1.929093048028376,-2.979597198468567
-8.046860249299243,-15.656934735446228,6.930668680592955,2.7380089036564743,-0.8788461136344656,-4.8222406886479785
7.460704988112692,-15.27449144177957,-19.096748191948656,-4.98702482841505,1.0511234808244767,-2.828564315276334
-22.616944627544846,-0.8218414143276807,-20.77378253115114,1.788292886823048,0.8652532275400762,-0.976682462800539
-0.5620227845948467,20.589634641958565,-20.79339940073407,-2.245657789766005,7.693113258797908,0.42886658154969853
17.223842273193466,20.446349667325347,87.98446213549019,-5.520750098862212,18.975602490195268,1.4376432265394494
-1.726641968976642,7.6196156566416695,-75.53524012883541,7.271410606394805,10.85823782332566,0.873601996728635
-32.41473646591594,21.797582611481207,-0.5210315394929106,12.521730476568788,4.823215837785316,-0.06705350730956017
15.013692182392981,-10.999519081113577,-10.360650342992013,-1.768621996071414,-3.502391232036814,6.816305360665213
-19.662105564288826,9.622266487097477,10.595887253701008,-0.3624026054920494,-3.421129564225325,8.207241514609258
-11.19076857291748,6.01858657992647,15.844737271258479,1.0079058985583416,0.587053988779654,9.927461064415725
-22.366743298280362,58.22047126844691,-37.09137554072599,8.615421177337726,2.838552213189371,16.07549439150672
20.494878486943822,-25.079305864692287,4.18274084316867,-5.1616117523519085,-24.048828497046802,4.788455207065075
7.783782461064228,12.521789662846654,-4.253555037160062,3.6015425922778386,-9.743015656799018,1.4813527115155738
18.443008939155817,16.09011015621809,-3.6368526366119522,16.975086701338686,-10.783963746275754,3.8952563694567797
16.692542233336706,18.52628999054354,-11.868954512685594,15.63031045770183,-11.473246297368691,0.7490192407422955
13.24810778487482,-10.080442520267141,-19.531220964547373,21.27380211728054,-7.129654923325972,0.013194713504864786
5.831281894707502,-95.00269898048735,-60.73902621073372,2.852224213066462,-8.663412845932465,2.8813665403170594
2.622884104074793,51.243767132713096,24.440139205743215,4.657108072576877,-5.586675619364227,0.7221672599904077
-4.932442370490001,10.294833991649314,8.707318039188268,-10.28905506608425,0.18833504131430512,1.208007656654135
2.3309978372207194,5.5209030955393885,-11.94730993956085,-5.238607554218681,-8.566271639971836,-4.182839075534897
-2.629189617849482,5.898514830563773,-6.349848321617822,-11.778675732607912,-6.254529440831483,-3.608747774062826
5.770560735612988,1.8613358590226627,-7.404240028431965,0.8813589845575804,-10.647824570199665,-0.812557249373585
-12.853837296598611,-17.410593785470027,-10.713675874307702,8.136557509987007,5.319193845675379,6.979693025568616
21.341297920386275,14.604322360060303,6.71614401359893,-0.3738121542144208,-9.432554238174722,-8.86788110966775
-6.774066495761714,-5.891408832961871,2.67223742309378,-0.9265688339074865,2.855200659406905,-1.1873666196745094
-17.988681718419578,8.510510369575996,16.15878382515725,-4.2574146812701,8.698061679187756,-1.0641129501145778
-3.1656343614844955,-8.21277742561705,4.603401396682751,-4.7283045512475335,16.989395041392648,-0.6240436569415021
6.800698819141207,9.852489716262493,22.042620249885683,-6.42324919538158,-6.918202885192967,4.15431046503273
18.406811369152347,20.69145557397882,42.50117606360488,6.681692229948818,-7.543979875391444,-1.7501284356712623
-10.906315194950071,-11.502044096663306,-9.144223810414992,-8.02918941857386,10.60016023214622,-3.802614624977106
3.3392007119490605,-12.810936361696779,-8.689458513155852,5.342012695716698,7.387867072827214,-0.7382964389277781
-12.501666172080462,0.33355684041557243,18.193832864920356,3.4142954607393166,4.85742680447364,5.762320227091337
-6.9571574236394,-9.966356214518353,12.10764710209228,-3.351843064529941,4.615821908799702,1.156285009639645
-16.888859473091088,2.1361082605163078,5.546553226772493,-2.0774688454297285,-0.9325117439260913,0.5606079034579491
-6.48001648825276,9.856400605005433,-0.257409330709673,0.26621146473544943,3.2804537619501852,-2.9667508692742457
-19.375171211580557,-13.039595511277836,4.577653536456474,-11.290364544551608,9.527144922022408,4.146827606215597
2.449228156920836,-1.6489095756952015,3.5766948090534574,-1.5890048987721075,4.199487623100756,-2.153545283247117
6.231732439542648,-18.380575319601064,-16.5508455381526,0.972295984273142,0.289836646335346,-2.745010386034971
-2.4027499728762427,-6.123075134078275,-2.8200326306850676,1.6827405706757657,4.70940087802047,-2.5475677569626956
-5.6454239981073995,-13.39289117334242,-9.019579726386649,-2.337546922933819,3.274185180551654,-1.663614815729489
-8.49224151895143,1.6117909618431592,-12.579248899624139,-10.124893842707353,10.48437773166815,0.03707656561376871
26.38026618787503,-10.825205423237398,9.805519091858352,11.75583025143858,-19.330324926428624,2.1430940865317054
-4.134981144924506,8.460731925202097,-1.5058329360853535,0.6847464146835935,1.7301995568690454,-3.9179396170086136
2.0788443789826303,5.5199022993679545,-9.495020423788276,1.274563946163122,4.296749176878286,-6.531570050039635
4.767110833752657,5.94032475685938,0.11865667584947648,-0.9540191320605202,2.0114264037897724,-3.0992037284265987
11.945168578611204,4.012319019343912,-2.5846671036344184,2.301518706468441,-5.225599441056046,-3.768014161245606
0.8911167110340639,-0.2905145767209858,-2.2591829755532378,3.967337940372195,-12.04027792464187,-1.4263772020205607
-4.572167532397083,8.157144722803391,0.1878787870903635,6.851240950918909,4.323800849837246,2.111811511736883
-1.3033869184574498,-1.178773011270393,1.1019740841671766,2.5026333087305637,-7.074037458853851,4.765845202319124
3.661028533973196,1.16969419019029,8.372057800648978,-0.1776075373692345,-4.642478852903012,1.3105650151679316
2.369399305312143,-0.8971922453826014,-0.7643524812133582,-0.1167148956869613,-6.31409905999299,1.3717284408881907
0.6279434727525013,3.8525602846786935,3.924888127984163,2.7558235836834846,1.3605720427881525,-5.330373048379772
-0.5665298900980191,-4.310215124651185,-0.37547715532242876,1.9502077153956154,-0.5155245254292529,3.194429930314395
-10.111666900816154,1.0179822181185878,0.7269360506699285,-3.6065572652995725,8.0514307192253,-2.9617261670998354
4.455278738075847,-8.278998946781769,3.452113957152105,-0.8289279799632254,-6.785248488391561,4.24787414815632
-8.105382207688807,-5.940421641168915,-3.637820417894087,0.056780970497648964,-3.2150058504815244,3.096343446921166
1.7721900892782765,-5.304186965890947,0.9406439562455691,-1.5165883374247011,-3.633339798437997,0.4502128488647985
-3.504830341043842,-1.8374809908413006,1.4167221721629275,-0.3741222978328327,1.9749222188816888,0.33019635175911544
6.314796752911217,-1.7469898154695862,2.6540762555305166,-4.645045897741738,4.597991499750979,2.419857082848188
5.827454745300155,-3.2194223944386335,5.087502454638992,-2.363504340842642,-7.486706613764425,-0.07627849633376527
2.6424285544537547,0.6457549851803157,2.0542753182469724,-0.3383604764281962,4.623123010506719,-1.2207649331081472
3.6677614357544006,-0.3056256850995419,-0.07781087342892368,-0.04748732699345459,2.257582479333878,1.4649780641044927
1.2275388579553297,-0.38014118091503135,1.7682700090170007,2.0783030249878047,1.3049419617214304,1.153271478797416
-0.45041991637388995,-3.3684820533117303,0.44853763892211895,0.0482180307962472,0.33903955416810494,2.4006186934982257
1.6172313313306124,3.889674360367392,3.126753493895537,0.8030225299787137,-2.16463863841411,-4.564056412509664
2.9202420947856393,-2.02055533709789,-0.4334037732655948,-1.0720735929676688,-0.8017174880037468,1.0566132000830992
-2.2352447108297717,1.4783610288961773,-0.9131652620402886,1.217816869801014,0.5556684496451942,-1.8936972124142146
4.7372133638295395,0.9878258090181702,-2.913897693050252,0.27943020958685066,-0.6729487824609592,0.886792195563997
0.055306985081158,-0.08591696796591952,-2.9434633240428814,0.8721155193713287,-1.3835069266879931,1.9158754193533416
-0.8391355354899273,-0.9006274018706457,-3.137203376736777,0.23212999243245308,-1.0964574842633574,0.4472185176057607
-4.989863857458722,-1.4592978917867179,-0.2129811062103366,1.437992879763286,0.02241402775787449,-3.080236422300793
0.03442313872427344,-0.9664568418964705,-4.996405632793886,0.17943853682453664,-0.01785791450868257,0.3357070254696129
-3.5855004023519816,0.6706686716514434,-2.4370837592453762,-1.6194133025257322,-0.2929384925033294,-0.30932425461574464
-1.5944969871523371,1.6587779818430468,2.3720047661041366,-0.0719460605069851,-1.0684040465149145,-1.7320598723646696
1.0977842047995972,1.2540935341265596,-0.06770225867832258,-2.481180369172301,-0.1831095074683104,0.3180349116518021
-1.6455181748625867,1.7201717120413955,2.5639076193614225,-1.1580141052505328,0.2274194676834063,-0.30790530118153364
-2.7307158934579268,-3.1026207093359144,0.5293366363107146,-0.06421250070542561,1.7215785115360256,3.127691857396143
-2.022816037477821,0.8442609660528739,2.370438251339544,1.3826382523079837,0.20449447228288795,-1.8950407334790202
3.861531177060562,0.5672333828095897,0.15055540857130723,0.47992822308456345,-2.902795553402774,-1.4966133859254804
-1.6922472550692853,0.6610362582302962,2.027879015148833,-0.12778437200206075,0.7463330647559038,-1.2065674340218928
-2.4685698333157737,2.4644276182503515,-0.9707166912434766,0.1715716389740981,0.15635823852474787,-2.794287981743133
-1.4815955986971068,1.1757771154918109,1.4029468419074766,1.4189403663074192,2.1187657136626745,-1.4069228200821242
2.2978803819005367,0.7172893605445785,-4.744796074632035,0.32814802092274503,0.017511799518087415,2.052061253237698
3.127957927351778,-0.07575150244897208,4.57146682683927,-1.2878270081932581,-1.0192951104917465,1.8760352475579252
1.4825844629020315,-1.8379791810084396,-0.7816252893026836,-0.1760864516140006,-0.14936777379438815,0.2727089624809613
-0.47071831797363767,-1.587579209686481,-1.2270406982265203,1.0149455020571536,1.8031949350733028,-1.1393720103073273
-1.010990545893209,-2.1714809720124992,2.797699748977534,0.7993124341304274,0.09339622549077697,-0.9918330717339103
0.8766488863070407,-1.7973574450074334,1.0497456138714443,-0.2532847543095146,-1.065832765201941,0.45965538842931586
2.360000037059508,-0.5592617058470705,1.2887466018635059,-0.7131001037527235,-1.1145925334967641,-1.2230240913419528
0.2489770317235751,-2.352044108072647,-0.3155925946090149,-0.6583016738835622,0.7282365603388892,1.5290507000944318
2.035027504057719,0.10056813994372804,-0.44734521949154926,0.0067718272675367785,-0.5905014323592573,1.4673916526506638
0.6644383319553149,-2.765415432888224,-2.1869226249920617,1.0196806860122805,-1.2718318774281023,0.25373866749338386
-0.004551973239273366,-1.512134708721042,1.3873346317688973,-0.37632447568353145,0.49226367381284275,1.716933187831642
0.36565436823152825,-0.49700005810910164,1.7861994234738308,-0.5006947430234227,-1.1408961114537501,0.06531324459016047
-0.7363236152601462,1.0142031321290448,3.922320556305554,-1.2887341099504002,-0.2782621143152377,-0.348736017473518
0.056595095486247526,-2.6831162963000956,-1.303887323459275,1.0015222188800674,-1.015374143983416,-1.1795413851919325
2.0729507852137172,1.4360022468796032,2.920810496621931,1.3595215559136948,-0.9275422263748683,0.22977749767017347
-2.6301648554984873,-0.19907496514199197,3.902052963222534,-0.46446610460403914,0.08380846226789178,1.3791713700181867
1.2694313489404407,0.08544387760932715,-2.749792625605105,-0.6861156079681657,0.10070729343776355,0.022263079099755265
0.787467084404216,-1.4553449893137675,0.3300711061029268,1.1424933947432363,-0.34305713211435285,0.22215824106964152
-1.5133258629619433,0.8890015787379202,0.8565860446855426,-0.1529550875758961,0.4445063062688921,-0.033438156653556504
0.26713407436466197,1.652138711333291,3.249452675278924,0.33134646894961894,-1.3759690700467924,0.3121100627930393
-2.0138604300489016,-0.139148579270217,-0.9513049444340992,-0.5975768097724643,1.4873273812085124,0.3892133328980001
-0.7825012211957826,1.4045276601960106,-0.43749250785527694,-0.5864788497979981,-0.04534050482268687,0.3866852460220936
-1.3177212147569064,0.37718862052264157,0.9897727514164198,0.9249929482937638,-0.46154467272700966,-1.1399656674488856
-0.13863785735320616,-1.8597786448875184,0.1813262141841646,0.7355003110146876,0.21078050420982258,-0.44309914396294725
-0.23206192831909822,-0.9705612742578594,-1.8661304197355757,1.203771115518149,0.3174111689483943,-0.8020496677770685
-2.9943315042660394,1.1635243280819176,-0.8149577380568481,-0.5754417511106229,0.979167394787477,0.8585337194044302
-1.3088835429554766,-0.7806017127468361,-2.2083222126516433,-0.03624650361718118,1.1291564051793952,-2.4781206528351785
0.6890706432785766,-0.35176638489924783,-0.7333491519014043,0.310044167962485,-0.7871075507673557,-0.6318709843129341
-2.0630611655985702,-1.7903973297162705,2.4642941598131807,-0.4425106547559119,-0.5596141719495151,1.8785116332882357
0.36321143822089,0.5896167344260299,-1.5770948732697856,-0.4126269428841619,-0.23781876578874594,-0.7883700423664666
0.4295236771594606,-3.2137025166429147,0.0016297666409003653,-0.32257338352905207,-0.1473358736261024,0.4598606154610547
2.2218678083384624,-1.4990943830451948,-1.7285194811945672,0.30645476726292364,0.6213740620133181,-1.345119762741561
2.121978463866274,-1.6784563521666975,0.9260458639440508,0.4809480779153862,-1.524864252147587,-0.1180689499089537
2.020331342538903,-1.481254338384268,0.508182243657853,-0.4843373529514564,-0.38131252899478985,1.0426345437248004
-2.58834111361797,0.051757563684117686,-0.6902204863328459,-0.6249451609672811,0.9578362045698552,0.7542546984959492
0.9378009721533549,-1.0421531235130284,0.11648347284806179,-0.19911554087439273,-0.15167691974781972,1.0468408025475944
0.24192445845362656,-0.40781302075750986,2.109016399305382,-0.09950238816883082,0.4046886148480951,0.6570860771159696
2.2857718103134865,-1.6495398767819762,0.6282294065039837,0.5594024744691649,-1.1608640467089293,-1.3581476491544098
-3.391723560995099,0.1483487205443979,1.6289589239823208,-0.25197402369539884,1.187863597693827,1.2496172917716477
-1.4053480167569639,-0.09931950957872723,0.28728584314731703,0.6574936632391422,1.1753160750347047,-0.8542497380142383
3.830001861536009,0.09321087567247888,0.09194324069104404,1.2436904511045466,-0.2971150629936119,-2.7002885664546588
-0.47503035827629814,0.4044744725644692,2.163228781691717,-0.611976297090729,0.3100456189383302,1.4848903679638263
-0.07134817883689128,2.7788485507605434,0.8588522854310094,0.2442958466880914,-0.03066602228328541,-0.9577615719259271
-3.234069107678655,1.167008132431272,1.1449435894940772,-0.24161639937326213,0.45416926848098205,0.8702910670681614
-0.10024132739096234,-0.40454411007369917,-1.0543425782606397,0.7319098844839358,-0.492866448995288,-0.3850649612172455
-0.9464649056209965,-0.3063833225100483,0.6096157897054972,0.37175438112364767,-0.057318264134328833,-0.37015705315150105
-0.47119480524803414,0.5742956820345303,2.4082830949612846,0.5702172765735148,-0.24253094044486095,-0.80902855138188
0.7827006564137433,-0.23412178203276973,-0.6925377165914379,-0.39066056133878946,-0.5085517332101397,-0.9307768418755435
0.27331295095749064,-0.22093753785237014,0.5007006342601428,-0.2925165899879263,-0.45238195922205854,1.0378894703322232
-0.7493625696015436,-1.440777400186591,0.30354412854442114,-0.4975190336975245,0.005864892368092289,1.6367386125747052
2.463733885749662,0.028881948265116822,-0.18406003132475673,0.09841586736496184,-1.2279664792020943,0.023629139053417264
-2.0829309985815376,0.006159309233366217,0.5271318675716377,-0.7244658608801873,-0.4596106295801304,1.8016489806913407
-4.341592992356325,-1.6819461979101675,0.15238762075023662,0.11075424666742482,0.4784835717436147,1.1215138798851214
-0.7598629699802333,-2.2066091103110783,-0.8466944997741418,0.9786534092655299,0.16833352051807904,-1.766756695104031
-0.9540598015675136,-1.6403603721309612,-0.022601689076777183,-0.4657430899738365,0.6420557692550234,0.079388639424048
2.12288706580599,-0.2051132052972938,-0.3426097949218793,0.08371822238266029,0.0528711251972927,-0.05457097663921425
-1.2947631874872538,-0.44701242118651796,0.7987008236956,-1.0641134437608504,0.5818175749766028,0.36822304782736
0.30018447065126524,-1.0108094133991603,0.2404641917247785,0.17066555421786214,0.3286153071529372,-0.7196008544178641
0.33421530617605416,-1.7639617936888012,-0.44696768699265993,-0.481659813176897,-0.20056800152807988,0.8270608556114605
-1.3791247816800563,-0.1379234998606136,0.8733048880911253,-0.110358546793747,0.7268675667519598,0.8199360515420012
-0.09333975691056395,-0.7426165696386641,0.5045842414582635,1.129440280705359,0.5358359654687616,-2.3388234119421574
0.7548492643333801,1.0863323504237397,0.18069073072433287,0.29928706940056604,0.06862691561618299,-1.0887106928707624
