Gx,Gy,Gz,Ax,Ay,Az
-1.6911470000000004,0.366324999999998,-3.1523639999999995,5.328000000000001,-493.0620000000001,50.324000000000005
-5.023557429299735,-4.789498617382101,1.7895437614706944,0.8491796743576756,0.7750867087891267,0.6029005555602593
12.609150698971217,24.05793166861715,-3.6552075463303257,-0.5091579069531393,0.9015033602029259,-0.20924300640616922
12.117793432623278,22.954831864687215,4.952536771875151,0.6695967224840758,1.8689106805506444,-0.08428205732142055
1.602938874507761,3.126344333990245,-2.3020733707002528,0.5528545717656501,1.0300817815876624,0.45803277037632006
7.149424621275606,113.79963135779455,-56.01328441476832,9.02273752989786,-0.652046076098439,2.5624614138637836
-2.506407139891402,3.345351623351161,6.538450429071774,0.3729612960789577,2.7708646902529583,-2.2356517525583084
-0.3345399616188045,-21.67922315045925,-1.905131061094309,-1.5553428208074727,5.053190315952482,-1.0107323576719665
-7.150205822295179,-3.6664687135325558,1.7874474069405126,-2.8939842232168553,2.2194583430613144,-3.784599604828133
0.45924251209023303,36.139222106944466,-8.756929973081986,0.4423317364270638,6.896614787532647,-4.3043012404323475
26.8057156765203,14.562464072699274,-25.197652571113615,3.2809547761068605,75.33072920203489,-6.236423131816662
-15.663046285999112,-19.063871828632955,8.858856520694077,-2.6044752339516357,-8.990616184250712,-7.502767756407005
-2.9384521409421054,22.497482814888183,4.898195002090241,1.8711058838852188,-10.813397367275648,3.581133170361829
-11.337949607785408,20.66999906760666,-1.5334745091490203,-0.029389610518352427,-7.680323785871894,3.3575831255758564
4.353185211197147,-22.769611964805264,15.028264213178472,0.4804533295349165,-2.9464238377170062,1.3643829908200749
11.184178394416405,40.56079530538076,-36.49755079576021,11.832674764230571,-0.42867659038276074,3.8289481742400167
-4.215301489697275,38.273723786194054,32.358299378771434,-4.193330330140243,1.8660662422385301,-1.6162867021846044
4.835647185325455,-33.01371811572746,11.621642203663807,-0.1349093914144217,-2.1925603721568447,2.2286416455607707
-2.5889528311358108,-4.095579544278209,6.646088865427317,2.9054543221324955,1.3183577560522046,2.207276211764327
10.850208446867569,9.667670201287937,-3.641074666731905,3.1784928882118595,7.466882725956227,6.366986897314709
29.72323955174406,-3.152434163552229,11.46670778963512,-13.582314929918542,-1.4118625910685862,-4.860269576190132
-12.130545756357343,36.50775896297603,4.355330256903152,12.061912591089424,3.329445411861138,13.878432949173966
-0.2970246435509507,4.261161006328752,-1.962463749903959,-6.144931630102865,-3.9450908448920776,-4.289369481213652
-8.944980529022809,-0.6940487196863838,-1.377219603832561,-0.7245558246005435,-0.4368216550296653,-3.932723707031874
-6.488633315782141,24.817994754740184,8.103239883631348,1.4631144418311584,-0.8099375084223492,1.0468767993878063
13.6712259885769,20.701000284213038,1.3635696291397874,5.615715468776484,0.46751944429857184,-2.9108140191480683
10.431198557016018,-27.375100557296598,-5.689054186393795,-13.706979859579183,-6.052648601915709,2.107786931746682
-0.33601554347748763,-13.79068579376299,-8.993573690391653,-5.684097733369332,-0.8968195974858222,-1.1644428298277916
0.9488109736093762,-3.6905236316699597,-2.799385432968367,-1.8910781646168058,-2.2827282872572354,-2.9815001674467005
1.696889771688884,-9.055775384882374,-7.911769124213535,1.344649851668567,-11.103385327098266,0.17585178020905445
-4.217247159509024,-16.699543094488227,-3.410208174456339,9.804167189055097,0.5076145453959846,12.636866261920678
16.849897271684807,-5.479919173417779,0.1423149842213527,0.9381191934235467,-10.038835646157402,-12.153425126750976
-6.157104993777648,-13.830192872837376,-0.5777558141248607,-2.6666424487464613,3.792835119460151,3.4236677048184667
-5.933303843181595,-14.998888396665112,-11.887939663741559,-3.4271285574851604,2.4347589610170326,2.4557922521102267
1.0869111095733608,1.1358549581327715,-1.9926640648876097,-2.6693418165607783,1.0708823298414099,3.8486322536235784
1.9848543317189034,3.3370698304789705,-3.126978798390563,-8.062836036835789,-7.870914285308309,3.5152198805750796
-0.4253112888223354,-9.796162684203384,-1.7461906002901815,14.449470631912959,-4.841880435233307,0.5559961432795164
-0.3860689191564932,10.739947241166071,4.947363019046338,16.373989951719913,-0.19738620806833929,-1.4250244677751813
0.20540223335606583,3.782465314216453,-1.0135648047369081,-2.14227553185185,-0.9721761002384073,1.5782705161039094
-2.7805722890904025,3.0483825670023625,4.669726838460094,-3.2223287815483577,0.6165216125305027,-0.0213420446160848
-0.14367912995084753,9.804736747793612,5.561259260182132,2.8752364903391623,4.767304696501432,-9.853818957138687
-5.165598749842561,3.206035378347774,-1.324017289683034,-1.9354101591105424,1.1166356387262244,10.367643582135402
-11.177046898312462,1.6786718540150756,-3.1924805124557656,1.64759657748765,9.029763184737496,-4.894696449555658
1.3088267101462816,0.35407378413290447,0.3802469154220226,1.4518189688068996,0.08399984445323783,-2.5429381752083002
-1.1224161763134317,2.844414972952776,-1.0658804157636306,4.393939705463792,2.763294073758508,-6.173974026266468
-0.011674842756504766,-5.800491577177269,-4.0899503451350565,-6.590764784495683,9.560583089450663,-1.5709803845231975
0.28548618183205854,13.546789242540735,1.7226980091443682,-1.2501057887715081,10.197774710848137,-2.5612723130530126
5.298324251999598,1.8760557457007492,-4.499689268779669,-9.26879012926407,-1.5630810643023656,2.1442863107885293
-1.7769456878143965,-7.066012208746869,0.4426336908731005,-1.4146893736944657,-0.3553315553082097,0.26444899576263936
-2.0974354527241363,-3.5249364298175556,-1.580304489293021,-1.1147797133402921,1.740036658133654,0.4168999899153659
-3.4295729408055577,-1.2740997637722433,-7.8705997809862165,1.8974825912390973,-10.391066895469706,5.6577523455319305
10.100893260126641,-2.6291114836744587,-1.1106662930914866,-2.3290744717259435,5.7243476928948125,-7.3089694551778575
11.124915083767906,-0.45801720576635674,-5.259631958766189,1.796176286100953,-11.993874126489231,8.944037996433137
-7.708260145007493,-7.690714006225482,5.148931248752477,2.417730251741584,-3.510934065175854,2.31415204802133
-7.744800692719449,-2.443180544774104,3.7032181319818953,-0.8726079034805738,-2.132137024310797,3.6539821210192276
-11.270965862606896,2.2637350615186262,-5.294711407129282,3.0071807768173833,-0.20604396812807013,-0.5364671289968089
2.8189698670270333,-7.734987371384075,4.034837771451167,-0.19984633670887542,-7.470181200467184,1.6734160408810261
-3.2928664334861617,-5.642483161200919,6.2853625385619125,5.318674459439849,2.5361947774602216,-1.9020004242718813
-9.144809956317264,2.5640314987107535,-2.580789103392454,0.7804329300757499,3.7722150100205063,-0.35740283023025166
-1.387952598032268,2.89818989797274,-0.01953579752844914,-0.4433549619493629,1.843899033291651,-0.4794532896878281
4.621959078992171,5.112619147165367,1.9396026552187182,-1.1957278921130354,5.354743582418076,-2.755116955618825
-5.975656967186794,-2.977370405056154,0.007143063918691017,0.7209318857576543,-6.369796708682992,3.605313126788618
-0.5361937353167843,0.4140180861548157,3.5639972266797084,0.5987770403030891,7.661981240906005,-8.61825607748171
1.8114119052516218,4.456889886180857,-7.3649054754076975,-1.9269270951610706,2.9616452153276476,0.7379124903503289
5.938039759943998,0.5022564050745886,-2.6390904494487852,-1.008187460510167,1.742351181599938,0.8383691147836445
1.7614077272665352,1.4102975083960478,-1.0312719761096467,-1.4789364436980836,0.52577894251656,2.6318439440427053
-3.5697923272505,-0.3893101285684857,0.9460466451835196,2.090313523752179,1.8673124532118877,-0.6913244457209031
1.305922778019303,4.061203314396581,-3.6014427893489853,-3.338244399034097,-0.6858385640805467,0.8131558690683978
4.6620209501295165,-4.069162823834607,-0.2465969128608272,-2.3626932224826307,-1.4802510275820864,1.866267904871793
3.0469546493134727,-3.421540529308551,0.6083397444857366,1.217466574424207,-4.195700793979946,0.5845782495398412
-4.763750025741514,-6.493364490163936,3.2783583476982283,0.005692227570523678,-2.0016459655634113,1.1590312520030177
-0.09876539031726628,0.5464202177564514,-3.739871542524151,0.1997426269537766,4.493651672742898,-1.8979214816145649
1.2596844711122803,0.8223658963966818,-1.903788077397618,0.5469323985898091,-3.4172375627566325,3.9885767964512757
-1.6559887268093012,0.0777288845755027,3.823451074607643,0.6319962469838466,-1.5670781443982515,0.9000609409567994
-4.407758929871815,-1.1563714813019423,0.14437067336024056,2.046434759603117,0.2972578653199829,-1.4479177619296209
-3.075303160970627,-0.19657275419292164,-1.034236357616407,-1.2611880573244016,1.791726181820846,-0.8306752348948392
1.414178321943714,1.4194303279574823,-0.9255417308105471,-1.8693333936798986,0.5365399810627258,0.39137699274276305
-1.2962143707153058,0.02945811022258349,-0.8722981241051178,0.8498014929742765,1.2573439345985744,-0.8092689676923266
-1.1877414232372043,1.8166307246686353,-1.4376717662165703,2.954057888814915,0.6391929805413419,-0.6831173326052535
-1.6770689303838593,3.5142917601153663,-1.302539804808024,-0.3392282844719416,2.521825945697171,-0.4006467713468186
1.584977380959702,6.7427738410198845,-2.0841567576835818,0.13395352532067917,1.607928280126599,0.5948563001846927
-0.5982602774958867,-2.595929211472836,2.207210863549527,-1.5765364996922127,-1.6207583253605873,1.4764022784292896
-3.194188333157727,-1.0470855091792095,2.3340690908914246,-2.245903574445406,1.2344232047703998,-0.4522008832192244
-1.177101,-0.46604849999999964,-3.147844,0.3289999999999994,1.374,-1.253999999999999
2.978963894167866,1.582311972312582,-1.2956228682669193,-0.5508016964732784,-1.0596917600975981,0.4960047788575144
1.4629139004472693,-0.7031039089763136,-0.6411630995891158,1.5815288304588326,-1.0716227219398708,-0.18941738288645182
-2.5368833431856808,-2.3964173284729213,1.2524425796176102,0.5929250245361629,-0.29746259295279176,0.5115074156381284
0.058021774736675746,2.7342082600912896,-0.5077304833303666,0.6249515401395573,-1.4832929011989848,0.15708597931610435
0.7703567864198846,-0.932575835277619,1.5784641424113495,-2.2477871301648236,-0.2761593984451831,-0.8324916139646923
1.264774194059511,-3.5530275530906463,0.7370939346851062,0.5034486584491529,-2.090453007511869,-0.3160749034044609
-1.6735173727520953,-0.6138084170608962,-0.30781716188822866,0.7054074747676887,-2.0648359328551322,-0.6430012314812219
2.231784949029276,1.6251797364176563,-0.25847004179190547,0.9672177025358678,0.06621619905329901,-1.1071999360493492
0.6445894579932708,0.7963305928371744,0.4963733117711695,0.2947107550894831,-0.5034788663198345,0.7482494660700346
-1.0148316589518505,1.2276821533060387,0.9809331570171187,-0.10579676561158574,-0.5541645455839607,1.1246876635548428
-2.8370111378096423,-1.2959757779077363,1.4835990379619592,-1.4776862490728582,1.9596564577217261,0.13787557042979576
-1.4203000935199928,0.2819559906070006,-0.4069444496860052,-0.5527729006075897,0.8155396306451574,1.0204797912554955
0.8005213470734411,2.4154029082867643,-0.916906664360116,0.12208004317624283,0.13564662717514864,-0.31345307497239094
-0.6662826045897596,-1.7445642652657107,0.9186665466660849,-0.8260428826476061,0.8089052981648438,0.5957988576413128
-0.7821568937072463,0.37051864407938745,-1.5189268141211092,0.668408996942472,0.40296224400964376,0.8112948017196533
-0.29465141344325274,1.9277975708640904,-0.9848958883431226,0.4411139644378226,1.3025053731894354,0.5460326362582053
0.14319314909515335,-0.6881175595713473,-0.06921386267858043,-0.29451020696727365,1.5056710759671503,0.11663355103053585
-2.7341375183379286,-1.0664986449072096,-1.2694118313752305,0.3409028480607927,0.04009966580109406,0.8571955445075388
-0.05384531406288384,-0.7320552585614648,-1.152253679256549,0.6202172431570475,0.20077706394783945,-0.6898819763415573
1.8291164268661815,-1.3245985433556418,-0.22010005686380363,-0.5601019025669645,0.4066284507109379,-0.3576745603605485
1.1013185660602884,0.4706659532772727,-0.9781128134547151,1.098041258925269,-1.5687476778147322,-0.032496375472352554
-0.148011135184364,-1.1643526113309575,0.12346480656997494,-0.6358482958144663,-0.1096488795124193,-1.1315489542376451
-1.2947378148093198,-2.2014430546572297,0.004776698023644443,0.1346797693859919,-0.10692126488658593,0.3639762696589899
-0.22032252327435034,0.9785388095250925,0.28788721924994093,0.25429060366550826,-0.28854636525941246,-0.49691545919606483
0.341008135114504,-0.8948103858274803,1.2400891416738549,0.522148444402094,-0.8091199824988475,-0.9902958169276199
0.4621314454173082,-1.1854035212040475,1.2407609810781581,-1.6252861138618908,-0.5198989643493024,-0.9789109482109805
-0.03899732097858466,-0.4545600530626812,0.29449887675620445,0.5066633546104664,-1.0558542154727906,-0.04546210697981143
3.1598575019981556,1.492549821278537,-0.016880841646066333,-0.11699322297809761,0.07031899273965575,-0.9833763342779449
-1.7863135488687238,-0.9072831971143938,0.1596533973900769,-0.29494404122038814,-0.34072843392177,0.9717064156011964
-1.711592695737098,1.623134317602832,-0.6796643677189673,0.7652337667857985,0.12714296480529477,0.24639588849936905
0.11025274653961059,0.9456076615183626,0.6198669116352628,0.38496274608291564,-0.11249371970007438,0.14916642643667244
-0.6523266372497002,-0.3929508259789616,-0.29584291921422246,0.5138624936766885,-0.06817183532644505,0.6817761776330078
0.6232229459735847,1.7621718156313113,-0.9573868224324616,0.1937553538670984,-0.4655652163555811,-0.28675116983316484
-0.2560628971221346,-1.5199448021218143,-0.8763361096684144,-0.46828559402428155,0.34703204130752174,0.17578222460261284
-1.6026827816387028,-0.199116392215759,-0.9679129889557802,-0.8616503693073652,-0.009290909072014353,0.8947261452698625
-1.0117885993150317,0.323579635397922,-1.3057150610043124,0.7174782794817257,-0.15589585879749868,1.004789492960735
0.17042242600331003,0.12221020517329739,-0.7032978905955225,-0.27183157300991234,1.2433538880570474,-0.507373061159825
-2.109657131760033,-1.5963307491263357,0.4509134337529661,-0.16080523447672596,-0.21157560384839444,0.6307027898827083
1.2729798714212233,0.1493275574674734,0.5504253923379572,-0.7639699074606033,0.0777995392918108,-0.797592699324044
0.3477810980443156,-0.46098479253341873,-0.5316269412614176,-0.2514183715989531,0.043272063859657456,-0.3287530413594597
