Gx,Gy,Gz,Ax,Ay,Az
-11.27193,2.59418,0.21002699999999902,-28.296,-517.72,-69.738
-1.4695126259607032,4.372124797602917,1.8226898033742154,-0.004229644298731294,-0.04311470628143055,-2.5701438600469038
-5.086073565909922,6.35061515015258,9.212837556356305,2.272361134528166,-0.7981225595201125,-0.2738844567875967
-3.2956744793513253,0.6081522774432245,-0.25121953272873254,0.38940203811873175,-0.975948942919711,-1.0468063245492698
-3.6063120036252467,-16.888548970501752,3.5437174832639045,-0.7343076796486916,-0.5544237053724038,-2.339375055083949
4.390996757714195,-6.379689446466536,10.192091226617956,1.645628825460912,0.6141448447416363,-1.0037693594217976
-3.2017928709815955,27.905578188911,-10.90961581948158,0.16060926376196377,-0.588712264908965,1.6199220446732432
-2.9943912083376936,28.159593206013508,-5.852973402837837,1.1749086648919425,-0.9899347081316093,0.8605293205638065
-1.2558884970210953,12.836748402533736,-6.500364969759206,-0.3209926899961691,0.8497603502898279,0.0013763340209507202
7.6947064527646845,17.598977874751697,-2.5496015458215275,1.6918674411824683,3.9977765767702476,0.715114502858762
12.603882454161532,0.6443900337675739,-10.67952810335408,3.475162654855838,5.386983444880142,1.3686831678055675
26.889075362984684,13.175320829785592,-12.31621515291471,3.498482086027606,74.9760399933652,-14.581696142206937
-0.02888913992652198,-9.248752685317324,-5.955091590839217,-1.0119852126417053,-7.894443319232306,5.808980086241294
-4.040959752586401,10.004378451623332,-6.414694198979136,-0.3768936060152478,-7.757467134282597,-0.32549827543835297
3.9780137974775545,-1.7030308153749218,-11.089683462706187,-0.8171996640735589,-3.3085716018419418,2.2324627595786355
0.3778863415236783,-15.236997346697237,-17.388798192300005,-1.044988260765087,2.5880965238621556,0.8796021631529973
1.424712934973139,-13.964970286968702,-28.49091764614207,1.4255763408729072,-3.447572699626264,-3.2110698970110336
3.859758732890067,23.433069752997277,63.47750881970396,-5.268402756303466,-2.7388704118045784,2.0940661471531308
-0.7189642692913483,7.37499062272983,15.96800282529534,2.4561792468236003,3.9031588081716184,3.7853058987083656
6.120029749408995,10.318683424578907,7.58190077613865,1.2230337727659912,1.5377130419995146,5.9933035362514815
1.2533212029476064,-2.259733576605621,0.14885184504105725,0.24213428083752309,0.7328989715131774,3.017657411730699
5.240774102299724,-0.2626727331790044,2.618509001685402,1.5023290164695542,0.8423138396735648,6.851157899870415
25.117337832318547,7.506984341554562,3.400376224571798,11.56995559172453,-5.967394602003505,35.23281500640255
-12.798055933893428,-1.1537366891276302,4.452289554244901,-2.847942615054159,3.186474201684692,-9.961591901229333
-2.4801831119261513,14.914717928791484,1.9999832236443496,0.2950939989352504,-1.8562839902954795,-6.483919405137406
-2.7457252088055313,0.08188760308953519,3.6615521501492894,1.7360160696694,-1.357395810906338,-1.9416938227832206
-1.3931899972900066,1.86995531828738,3.198541988386969,1.249696496626977,-1.1029590961379405,-0.025878996767132456
0.8771012828313908,4.913431668730054,3.471619893358529,1.176212306828776,-2.347251472755068,0.5499044466981582
-1.505379826848695,-12.83232620355824,-2.6757737951247833,-5.491901522436638,4.014998564493541,1.0559627186909553
2.3302113541770635,-3.753480510453274,-0.700493230935471,-4.155293156424714,-0.7161104980025672,-0.8963089427957668
-3.8876860080401796,1.4144762520938596,-0.052715451676433656,-4.013750232365197,-0.47953147543998154,-2.8902393970486093
-2.364556482399085,2.8799416260340793,2.9405694663235415,4.4049409948440985,-5.26520988459264,-4.538155341188185
-0.8470408740184661,-5.71450840530924,3.779001332911383,-4.490171756768478,-3.100305388809401,-3.359067961995718
-3.003691144013658,1.8584896014471575,0.6503936061007298,-5.288932269038506,-9.002302754790797,-14.299838668041613
-1.567543487790343,3.805333578000929,-1.6538435798451396,4.1121680734887285,7.672820108028674,8.366359240230171
1.7707565481845795,-10.071673474101315,-0.7669441928743914,-2.280023328390107,0.2834490513827459,3.9765390814937556
-1.9802517263580606,-8.368327029559417,-1.938927197478763,-6.004101807716529,-1.3628136334843974,-1.8138613620969315
0.36061773501377026,-2.4911107953740896,-1.2739976793596979,-1.5399291475298,0.8069793124420084,-0.43661234960467166
-0.9894813569845398,-2.1715377775326106,1.7581360548371054,-2.0610353877944227,-1.0061793304787625,-0.23883567147193918
3.8834042825688053,-1.3605552908878584,5.719723356827779,5.075570996122997,-2.3376613594429587,-1.2967504257204672
1.24274603992996,-0.11309922448525933,3.219982117142507,2.319081538886503,-0.9209990844741127,0.8473890848398399
-2.203429930237502,-4.890133200451141,-1.1712710769330585,-1.4029404985403726,0.7261960035500554,1.645188128673972
-0.4446292180939331,1.2891098987923204,-3.7454741597964976,-1.9516706260387107,1.205285830949314,0.13982186702253868
-2.8091276719794287,-0.25574455093435366,2.0243785394007836,0.9797635658747337,4.076905198080195,2.497613995061247
-2.817135675321631,-6.777641235825438,1.1136404440630168,-1.7047959303649423,2.019139449885136,2.552167616105783
4.961663605714401,-1.965486775688483,0.7653305148224164,-1.913224856892506,-6.284739086563958,-0.43231833116453233
-1.2817305189229287,3.034605470808737,1.6934525358937615,1.2517740372121517,0.2427452635174806,-1.541169881403096
-3.225872144549144,2.7319105247542894,1.6782892110687733,2.733513329277815,3.5679327745148517,-1.258490552857191
1.5093483173778708,1.1574492080051104,0.8015394344364895,0.22211006760304652,-3.284082185294764,0.9930079019184745
-1.677818597844244,1.062157669590905,-1.9432230878267585,4.397860219481288,2.8037231138310523,-1.8242889261677795
1.730308711388938,7.6404882092634345,-1.3516880735012782,3.4326791671338253,1.3748046294750602,0.31902727884287185
-0.16591644842351982,-2.3348313015256292,-2.6562805670463057,-0.4281749816682492,-2.748190366494866,-0.5631114107108857
-1.1386421171439065,-0.6882528313844665,0.2023799856028764,-0.8607745260376987,-0.2212146286099268,-0.1847057747412213
0.10812396074757968,-0.018230647859781568,2.053617626493271,0.057922074153749115,0.3425044230451837,-0.1637494161340458
0.5811330983596319,1.9663571028714248,-1.6281666742028873,-1.1007130060014703,-3.6493635784700875,0.3743611549050216
-0.3890339299775921,2.1100163625392128,-2.8679932275736753,0.7884136100310587,-0.7062655359731551,-0.49916806183222695
0.575229417068033,-0.9159342252968126,3.0813169457359844,0.6002728896866852,4.1116595263893805,-1.3867602858643353
-0.9488914410611629,-0.29842883005810705,0.3979469485849223,-0.013585216935314559,-0.29330732646282875,1.3535196122788813
1.4842101599145554,-0.12177610641808312,-0.7278513896257852,-0.05080173480369865,-3.3448642848786143,1.684847158169881
-1.018129458546845,-1.4051966137310887,-0.01729961365410637,-0.3250089141533564,2.2769662454119044,-1.4832174142223606
0.311679531183477,-1.9221824024284113,-2.450206653145055,-1.6763437490707975,-1.1862085763112364,1.7160833876211166
-2.468377343586035,-2.524168156955613,-0.9276307713650619,-1.6570117635240655,-0.9435542692548429,0.28601232225241335
-1.9160142462699274,0.031968589367188605,2.013510654343377,2.164778769711255,5.53800061266375,-2.252609554713806
1.6533346976772614,0.17271109312517607,0.9414741395799846,0.8387484644637659,1.1275224788486349,0.5753480550862928
-0.7037933481579906,0.312384751100947,-0.8274919986404106,1.3700698487944916,1.9702289121207042,0.17050655878695142
-0.7287548691127412,-1.588080579080276,2.300040543544958,1.5143200647495147,3.611929427661761,-1.8542151485675837
1.0877596589672025,-1.1491743940040873,1.3035762307439798,-1.0178620484583758,-0.7496740981921938,1.3154701294725877
-2.8183268587701957,0.27843746200659325,-2.604992700794074,0.2237789259990377,-7.30909713430972,-0.3172286393685328
2.6291963423832265,-1.268051067420794,2.1130100545140444,-1.2214303706244594,-3.835537977506486,0.4309575415448454
-1.114188269156993,0.7838766170042488,1.7662087790736583,0.49579601826463304,2.955295215578427,-0.48472311841296545
0.4920636006473904,1.314841496853834,2.6321524191561143,0.7486644944469873,-2.0092819662101924,2.006678994249004
0.3895010296532795,1.3923771169630064,5.8999968660571405,-0.16492891739347015,-0.3881772955212671,-0.14024061750978611
1.01076629754355,-1.7655869358458967,-0.22023351222156973,0.9143149101571315,0.37632802516271346,-0.46958857784815855
1.9619428960795,0.5086239962169189,0.9557401737284037,-1.5116253585275325,-7.337813674404291,3.3549835125911036
-1.2715772877403655,-1.1313657177806968,-1.0175141088525606,-0.29753437667237304,-2.227635193291494,-0.6990825149690671
-0.4234992032964584,-1.244606945261404,0.3940711102107921,-0.31017806106534507,-3.144369120019877,0.051050810552322634
-0.7344113206388554,0.6487120998920521,-1.4011756797163915,-0.5476545748750987,-2.2653313293869255,1.5230680466774438
-2.7201565826142104,0.07912043264255875,0.7299349832157591,0.8567623017965237,3.6903840660109477,-2.4884051841178954
4.953160884399036,-0.7058087691413064,1.0065874956006393,-0.6500725351154745,4.154880161498048,2.311595215143247
-2.1014481526044584,-1.5238589727520768,-2.90157780602604,0.7030906920610516,4.374955591570213,-1.7914947367985201
0.015515926201253416,-2.412639346337259,-0.19633730329003463,-0.2548828023216524,-2.7508001924813352,0.05823949228705394
0.02153027075821165,-2.6244085729238185,-1.7317335150341053,-1.5310025856240757,0.41644938704865475,-1.1260543694744205
1.2434192495232974,-1.2388294550959251,-4.270278581638024,-0.27062913627687213,0.4730783547240671,1.5643404732135702
0.7061544302624805,1.3404179434933408,1.173851504655297,-0.47259936359705224,-2.026297560479061,1.7748668279433084
-0.7583064331320566,-1.401356504148846,-1.5218690568633337,0.515169566093153,5.509336270226575,-3.9509453850812672
0.9738807450493709,-0.15154239443328166,0.6381505768205473,0.12052260697945938,0.4930852350274648,1.5831257599340516
0.7519898310501203,-1.8202578813364256,-0.47208335111521826,-0.4490940296860979,1.7489617961667623,1.0183798881302553
-0.8563047539921218,0.29749436433538534,2.0686979902726366,0.23778303384220034,0.1948665928502087,-0.6039950084375257
0.04527149999999969,-1.017337500000001,-0.5033455000000004,-0.362,-4.858000000000004,1.371
-4.986030024066389,-0.5077803573767703,0.7859248258251359,0.21376606332497072,0.3107142123194826,-4.021031404095078
-0.4272909767733215,1.6885061094634626,2.475509585793378,0.1768280143070558,-4.556827073750907,2.321796517620377
0.03430053449777448,0.47412302185217303,0.526760461081512,-0.15061267811239698,0.42966235435635414,0.5349527368700542
-1.6851498765267352,0.31696091909660495,0.7443972684857159,1.1730740137565965,-0.6953161558943446,-0.3723563376294563
-1.9143894082919763,-0.7501016094811207,2.230196757763433,0.5659147594023068,-0.27197773146378657,-2.4048788052210464
-1.6203230650131448,-1.564960744904944,-1.548060995043687,-0.2347540988605359,1.0741257947794347,-1.5633583887104223
-0.9761238497409535,1.6293601400339162,1.474115568117229,0.09098515642326686,-3.8156448147019484,2.964967260169241
-0.06495508401105843,-0.9197785842718779,0.13060564974996697,0.006145260721127421,0.04377458279843438,-2.2701498334558927
-1.5192049685227706,0.39773089239160675,0.08068949362492606,0.16820808276153593,-0.549569665763816,-2.0230401547626373
2.204879956257158,-1.5169044008717358,-1.1911108246234499,-0.014362957942035681,-0.162099050605724,0.7236932167138792
1.9824788605486623,-0.8918379703738321,-0.03092187811043301,0.028766714650456993,2.3100426843769224,0.009001092171543323
1.9406868098131782,0.03458302572458749,0.057101801354484116,0.21301062630265954,-2.4460122900394414,2.8651472886217206
1.4163387677067547,-2.2613252439048974,-1.7122185082138168,-0.27638137466057844,3.4259241767491257,-2.564174567839536
-0.3551313084664845,0.28068345448826926,-0.3007897121138823,0.4024789798192138,0.8574543958115615,-0.8609739290691137
1.7613510404675479,0.11799802247216173,0.10704246024987862,-0.5635993580721661,-0.968499258373489,2.157099839659436
0.36537730811583935,0.09730505314142035,-0.35195414938871594,-0.15522055422188014,-0.15768860745024105,2.492847431507799
0.614933826467633,-0.4692985682665228,0.8953487266798584,0.17652879006677893,-0.9574232023921021,0.9293525060750215
1.3483952136843773,-1.934995918657671,-0.18380529764010517,-0.04031668688250445,1.3899748630969921,-1.7545395495805587
-0.7972016525079565,-0.7156665498000992,-0.04802689917273939,-0.10722736224496288,-1.1735434643484093,1.8861415201304634
-0.4299684565112428,0.4517057435265385,0.9007913919613678,0.3001299257872059,-0.5672870035549682,1.3750303391896737
-2.7912471021403347,0.004786635135464845,1.2395378242450286,0.2804363833145899,-1.142601046687141,-0.2190031987936194
-3.2562911272133777,1.1262127196869536,0.1895245632022453,-0.5930031654124093,-0.2331915741864009,-1.3446026092722827
0.7171361347080223,-1.50441367320993,-0.987218686744104,-0.13633189044661254,1.0035261119210488,-0.4813933335595279
-2.345955460700636,-0.081727889639432,0.8713587110905475,0.024557905307522082,-3.058716865652295,1.2481196726799384
-0.25483515026929004,-1.1996603759587865,0.3623072442207995,-0.32965361534015813,-1.7126963845774683,0.546467110043126
0.5859861154329864,-1.6575723554178639,-0.7710099523854382,0.14439911479203305,0.8935331280308185,-2.200211832906716
-0.49807021210108604,-1.09707787260148,-0.5144652846340579,-0.006613109826966224,0.09617903266013572,-1.9262923291648262
0.34692108248168557,0.060602320038136426,-0.6133489900626092,0.2609463954184671,0.020001882412937322,0.21947934252833345
-0.49429567827320203,-1.0461038698768377,0.04101750768197146,-0.17892586510380204,-0.4103051690779609,0.8839606213050735
1.3133291518551697,-0.594142761661285,0.3267482616362786,-0.019850244862630317,0.3302737543679005,-1.0021829267965796
0.9146972559488658,-0.9449997776828819,0.5735203756131263,-0.24193502537915723,-0.03008483768020742,-1.1277182873825768
1.4461804966437728,-0.8784694463150379,-1.0683561781290396,-0.35234564112696104,0.3190877476603473,0.20028246251098367
0.4783271369849639,-0.10638223691060444,0.6337365178801417,0.5528837700894338,-1.4363172666520645,1.0646095316798834
-1.3616023501767405,0.5853956146111509,0.42942813756280573,0.3274254532546809,-0.7289589219065743,0.11620515771231166
1.5320360620641944,-0.20693107412921208,-0.44860162686350313,0.2159139246389804,1.5993477178735382,-0.0361476777302881
0.1282735959178971,-0.41602076690676343,-0.48937228278117084,0.04366481591528759,0.4013897532906654,0.8041168967995861
-1.1155485297490617,0.6125102898300187,0.32484327582241934,-0.030143121971995535,-1.5847925548735278,1.119350716450295
-1.4150848076119442,-0.4273319543620381,0.41434197568647346,-0.17988897424658168,-0.8090542872264722,1.8235012422354986
-0.5627508222303211,-0.44671936688731995,0.5712591238863653,-0.08990108305938316,-0.5112895513485667,-0.7459956827522801
0.5578205390182931,0.7971089061211175,1.0416190581920142,0.6760059634192268,-0.3702259253617881,-0.13175857349894746
-1.2982640846112625,-0.8448729861909329,-0.14899736559075294,-0.010500215606309315,-0.7868806454215636,0.5675328671923558
-0.919921911929678,-0.33923828508140547,-1.2137554846388272,-0.1122945306057106,-0.14952929733416198,0.7560720321463477
-0.9329036409885694,0.06829953190356619,0.8163130322205979,0.15021560974434667,-0.6306869078025727,-0.016239254669665526
