Gx,Gy,Gz,Ax,Ay,Az
-3.882651999999999,11.931874000000002,-4.424881999999999,35.966,-507.1280000000001,-4.064
-4.147266724430859,11.567079398304001,-6.260325101197593,4.266335157158871,0.053848265680148555,6.495998371359179
-1.2539482108982039,6.296634717909681,-7.089086960266071,8.482272489625233,-0.07408774876961122,2.6236052613483185
-4.359966971165097,2.9805569560381056,1.2188804810069946,8.07432149415834,0.6840148275861049,4.8759512909120355
-17.422551704180716,28.4770987832986,4.340143936706358,12.451789733822807,0.5603061054905197,7.751040360465206
28.450411736786574,-13.904065953074472,-5.023363049132312,-4.683337542403106,-0.8988849423108033,1.3023495205852698
16.322324101400348,16.264098455027874,10.612925290244881,0.16788491577103545,-0.1189362441222315,6.078977390447293
15.360134779774393,4.563863167015522,-3.8599012164246114,-0.293214564641543,1.058491875590788,7.032858021947421
14.239320520320582,4.699275513590067,2.4774854410395526,0.6120624509533843,3.205380335406786,9.77631200293227
-9.299872768547795,-16.758796810693816,2.586405602562067,3.9145622625980154,-19.728371713841977,-39.742146000936344
0.33049857980703945,12.583858628492493,1.6274794607179262,-0.39472762989345134,3.4875709536035386,-2.374007155821168
9.00790718306991,6.857892055931607,0.5347074419438946,0.5523103656106182,0.5523143243905606,-1.4751843418882378
0.883796857783707,19.305380938847307,-5.825666318542044,0.042178942904469885,-0.05075983142083529,1.9767697482830846
5.490515674240004,24.09597380544746,9.316853422111734,-0.7853357207878647,-1.4006511062008709,2.8699741070218314
2.7663854519668383,-27.92221651380543,-3.7257300714756743,0.6983467064491475,-0.8433529962617833,0.057140621385479706
6.398607837310486,-11.143244194536326,5.076066216950113,-2.7833393335010372,0.46620528688376894,1.1837679670686343
0.37306676969995534,-12.793196508469924,-0.9041641821642743,-1.1273021510121317,1.5160686049233265,5.342518267180042
13.98460900155121,-1.4313116189129136,6.147850488724814,0.5918047891823859,-1.9010261497771381,13.265690990928809
-3.5940594373887738,-8.393439610319245,-9.993772314991052,6.3594179359131395,-6.519035368478002,-24.45065719975063
7.097812764876782,-12.931361339337533,0.39718478422875414,-1.4377609236933522,-0.6776190950357794,-2.5014920727256786
1.9530475263859364,-5.08745192678575,-3.1308567392378857,-1.7577274651085735,-3.386046836906604,-2.7988220774414527
6.479795172354013,-4.237298666611597,-0.989439347196817,-2.3561503257704266,-2.259085101215389,-0.283853508875864
16.932632879562384,-8.541161542589407,-15.802412350075024,-1.1115655896914547,-4.573670073098733,1.3333436542749277
-0.7863952357860935,-0.08095288510296905,1.853068668359018,2.600187700281829,-2.6118468114527973,-1.6132722630363054
6.147411753667598,-13.148295995792276,2.8406498396546884,-2.870171537344066,-0.9756862660693932,-3.4438649239216605
1.1712270143026666,5.484742504754316,-2.911391373788322,4.084520230881289,-3.440352570032692,-0.823764290707139
8.149287120751175,-1.5737466319792301,0.7735833038144058,2.402909837769357,-0.15059103910291327,-0.9558264153375617
6.93714529462447,-8.757171053516572,-1.9024033605276598,-5.1367797321575654,-4.868081538457675,5.478230965056958
-3.220099346204764,-3.620936686778533,2.6702811352961233,-2.6734012223456665,1.2603963507319622,-1.962818581090676
-2.2466908892234425,-6.934537119987521,-5.463162437859632,-5.345937783679622,-1.156442959392705,0.1715332634257507
-1.8245725980158367,-2.384338248067973,-1.7958027071370366,1.1221240842386395,-2.661261064790812,-0.9922163472000687
11.235124890367654,32.03387705942183,1.613721183821307,5.870256005547978,-15.512854870161256,0.5496004527721432
9.370600859927475,-8.61852916078721,-2.34089355629448,-0.7566395042653951,-4.396340056188512,0.54233398050757
6.404327866605782,-5.677676231161511,-3.283575855995759,-0.10240662886687169,0.8134872931491246,-3.5290917695544843
7.212692927594111,-4.015054362909637,-1.4527220305013961,0.6971046016295448,0.0863148496497459,-1.5528345684067948
-2.820177832318561,-7.392670369118878,5.183123461667701,-1.278762095500197,3.27223700222431,-12.142861123740152
9.701960300317738,-2.0322615851972956,-2.5722393045105716,-5.880776053970752,-8.748293324990282,10.095356984612462
6.883519017398527,0.5404375886163724,2.1135565141110235,0.5803486329013303,-5.855630556627749,0.40822862925491643
-0.8991175801235133,3.5702529289638854,1.7659327455141316,0.6991034336146769,0.3997513970107829,3.5087696918151883
-0.9921670891822754,-1.8569257333614324,4.964161476792377,-0.4055988344444672,1.542664270008056,-0.3425398754712707
-6.773215505310313,6.642790932537301,-4.325789364321539,3.8042873636807037,-1.3018609839534592,-2.9232985706056214
1.7665363105706433,1.178012731062661,5.891388209740143,0.2895592269339575,-0.7197532373388449,0.499352707855071
2.7323472987131447,-2.1548490684437285,4.173432847114256,-4.190657570654467,-3.399342832664355,1.5646804331854973
5.549513485472998,-0.6755218090220492,-0.3141609232672087,-1.9565409152315956,1.2766586079366908,-0.45581719507590285
-2.5666780992583185,-6.242771726536516,-1.104207207282943,-3.4381418199554163,21.945874324393614,-11.194653611079048
-3.260712069931672,-4.768483561040924,2.8092077194753924,-4.454148259582183,-5.759629612477816,5.471923156745081
-1.1288653208561694,2.569420747279773,-0.2696440893023695,1.5982960283059158,-0.6992735267202359,1.5815502483051536
2.7725652488091104,2.246592614296935,-0.8245099746315041,-0.018293580619177963,-5.552115773310785,2.4800944310202144
8.861287342658745,1.707994018893194,-1.4742294871814496,-0.9230444676269874,-6.313259484457119,2.7823646855721433
-8.397595643746321,-1.4859768424370747,-2.0004969681458813,0.45625836903372297,8.647569902531956,-3.393360370259554
4.5716691931660645,1.1490610783934647,-0.8357960121583972,-0.7732696880216823,-2.2505361982208525,-1.310528313501388
-6.223764269243288,-1.2827414824877175,4.462933716502984,0.3195145401734285,-2.108413810262185,1.5649049050544868
7.8341763474518675,-2.8420657187728806,2.3824910761215037,-1.182297085888401,-5.643967880647452,-0.5556606442115555
9.474043674335466,-3.5199369219148555,-4.050491434320474,-2.3685853313271075,2.2542856705595,-3.816885512339834
-2.276104659175176,-1.2232245480703408,2.3533110696857236,-1.191108889236987,0.3078466674280884,-1.4694680053474638
2.0633437132109194,1.4571972814994631,1.0156845367374565,2.223385247795992,3.2130637015283536,-0.09743299266471772
-2.3214944188470503,1.95153299919388,0.0627954946589181,2.642493944502325,3.5791577327656325,-0.3458947908215425
5.2475329042665315,5.3591301246085425,-3.9342076784913522,3.3915997062435563,0.45976766988098916,1.6178813183617593
2.331395866646698,-4.177624006273382,-0.7074233812749152,-5.84335550762143,3.245586924286817,-3.114262459378196
4.656255059527136,0.6932157667292647,-0.8308459715664543,-1.7436464874227395,0.5709296625872473,-0.48311028129738187
-0.47406114520740994,-1.0788365725491547,0.26836307948750804,1.4201857077387408,3.1061482620004197,-0.9076992887229272
-1.0713212539800305,-3.3504871956154476,-0.5772028117529961,-2.358953730927275,4.178226847975274,-3.2612862321422433
-10.461109242058068,0.400822722542888,1.0145828877956133,0.9206133473498823,-5.429935712512573,3.544439151841821
-1.6207560534239833,1.62848039678063,-0.6371167750472448,0.6148276652306762,3.0982892095565386,0.3158942791653816
-0.9169598686851552,-0.7529506307971197,0.4607921537277413,-1.3788063914842108,-2.376702990798219,1.0014752435641343
1.7375609177862077,-0.9168420874367459,-1.108034465956265,2.0695038597339823,0.16661635221128446,0.721483679372626
3.950021970830287,-2.8508046272616676,-3.0106445711583527,4.9052244636728,1.309517693432471,1.367269429606841
2.735442790303991,-1.9962764812285454,-0.9255723751805247,-3.7687763162166896,-3.4408040395570656,-2.2956455132313662
0.52582749700754,0.5015446290361116,0.40683299926025773,1.4105439153104942,-2.9727063532742903,0.0016385304706556525
5.481693385571992,-0.17026141536008432,-1.7244882651311713,0.7635688416084201,-3.978451381461544,-1.5622108752690662
6.054145984235716,-0.9905500695971308,-2.373890030759454,1.1427234386313567,-2.2636431410137394,0.17663024810291916
-8.579406475274602,-1.5326677080293691,1.4673325735121372,2.0421531378688584,5.8390940176043635,0.5730179887128635
4.651483135621957,-1.9052480801184575,-1.8562989898455808,0.7056468320347817,-1.1971407203854094,1.0490073480887712
-1.6466318736404597,1.1999093366012934,-1.1781267781357019,1.4553481470506884,-1.4720565696832129,0.9456210226434749
4.2122299054871455,-0.1017471795558515,-1.578655713965194,-0.4213944377809375,-1.257913284258866,0.3997174280592075
0.31455039166985166,-2.7665900039521283,2.982387647530886,-3.9521937545900094,2.447670034238394,0.5883819480435419
-4.563450468708766,0.2963423766037432,-0.1680906945674301,-0.08826678468311244,1.8000285958403417,-0.8767905801346895
-3.4747647921905553,-1.7405226177119033,-0.13852799060004056,0.5738989886536366,0.6335619200709655,0.3941343532323906
-1.9110341175899879,0.42448972465922563,1.3023770893747055,0.11927642227366242,1.24531937754572,0.4575992699004485
-2.4768741247736434,4.179258847296753,-1.0849198364411945,1.4654648574051674,0.5634465035978815,3.761564171783466
-0.35436773198657656,-2.7422952195830845,-3.122326935235419,0.6907278926026217,1.6069147269009916,-1.5880899513892803
-1.2250217430343604,-1.6727160554287785,-1.265475546940546,-0.6503306388700845,0.1575259947814609,0.4984627506836492
-1.3970759747707335,-2.043351693306292,1.3567202414407,-0.7895738950258276,-0.09110318780742996,0.14167154060682108
-1.8317559428372334,-2.1767982354406277,-0.5455586957556273,-0.40806766304472986,1.9788571174504113,-0.5686657516044447
1.6393943798976873,4.305657804401319,-0.5265605307620116,1.1364385984922516,0.16873401592235737,0.8901521354310038
-2.6311964645648898,0.05551816542562038,-0.13654700429287203,1.236390596565382,1.1880704410433438,0.9137283402580303
2.1033106419811083,-1.808591274260429,-0.14538796164036294,0.7335715519742114,-1.2122288342172518,1.2849489167163832
-1.7611979741262969,-0.22724388725204436,1.5461832749285687,1.0786720825515275,1.1878994380613017,1.2149781617661866
2.4085743880563237,-0.697557845753664,2.0837953754803467,0.1848836602076399,2.0278175575965647,0.4847941720445399
-1.9030837278669563,-0.09399070189342551,-0.5276398525032486,0.4896343161590707,-1.3025145376116458,-0.2713337150219087
1.1569245833530668,1.318915840626652,-0.04862801011693785,-0.26840794445987626,-0.7207355406314698,1.557105252249432
-0.30943751250180207,-1.7611439728538334,1.6825299120112451,-0.9120435869961813,1.6587006293272655,1.2495258000161718
-4.636020785878001,-1.6978470233718252,1.5918194165848807,-1.7174885733133896,2.6616772145862138,1.2832538793160198
0.18033604645538226,0.7638629925393977,-1.1423643209544156,2.2641158303191062,-0.7659248315238306,0.4106354678969061
-1.5761092550499207,-0.9783650394516238,0.6332924796230062,-0.29142494357511195,0.9553793849667983,0.8602106679873235
0.13207032158951587,0.14454958622705294,-0.16830667757112638,-0.209992111208408,0.42096661441632444,0.4361090855991372
-0.4777774460444326,-0.1040405122552227,-1.7751786138763919,0.7372365816452784,-0.45056938202332825,0.6827603743018723
1.186370456478472,-4.043848658776321,-1.4674519082684632,0.6455473530381394,0.20193479882383425,-1.0243785993632595
-5.951258119667677,1.1049553259677694,1.4829936540238087,-0.629322134926935,1.7746839136089914,0.5432250789769498
0.9864100094420962,-0.35033893958144313,1.7202642726815858,1.2293475173835826,-0.012301335709687056,0.5712773202666233
2.381987736014366,0.9234525635676772,-0.341033653387953,1.6557033244675583,-0.1722158623333836,2.084003978831306
0.04617038226609793,1.6984004330641775,0.0921738721951122,1.3002965444288332,-1.042743733196832,0.4744450340293127
-1.9975838939309503,-1.0600748792432424,1.0367620927077423,0.8092385780839773,0.8031905861805129,-0.3643461598237836
2.1689888819137684,-0.8594969971248436,0.9775366166392935,0.18366991897257967,-0.6973841205259013,0.5016382858507562
-0.24508914869663467,-1.1157650940927062,1.3249384035536043,-0.5937810703753288,0.9030278747804494,0.005481658231950348
2.9892922140874405,-0.035358500572387985,-0.41980930328283406,0.058753232213095474,-0.010314271722704244,0.8812411782789278
-0.21674683044041698,-1.1324460005640538,-1.5256035330167865,0.7345030030865529,-0.9285986216732993,0.22110146946700732
-2.257370810633887,-0.569224423212507,1.1148527992563475,-0.827939202719432,0.7118946547035128,0.8802648964618701
-0.4628127292135535,-0.5489556664693159,1.2605812088976502,0.9831204690383839,0.2412444605024402,0.6077261394802452
0.19743013942770918,0.2600601556209732,0.06638860987494974,0.3184693027826518,-0.38047117582499856,0.6728479193869549
1.5676372233487,1.4170582205469902,-1.0605022764213392,2.385245903857568,-0.7632517766631156,0.6447085314434204
-2.084193842918006,-1.7219613996468963,-0.7481496045326779,-0.1448133791434143,0.5127466510103945,-0.18851685403615304
2.314628853912966,0.1708068326885257,-0.18482124515917087,0.7443193804004925,-1.2367000978613818,0.1894265172369748
-0.4401794654120527,-1.2473577500635151,0.026214950965160022,0.35793494658988434,-0.06872249458882063,0.23948887659717832
0.4731454134702052,-0.8209122562464171,0.6740970524998914,-0.1301426480845284,0.6376860118094215,-0.2913500632378413
-1.2918752368496398,0.9143085457873531,-0.08415188742275809,0.9643125520077286,-0.2642324695955739,0.0850020696531682
-0.5822644249118989,-0.5159421213788584,0.4748284343333561,0.7973977348780893,-0.010753671477202076,0.2606436685371455
-0.27450680507796177,-0.7059767329649255,-1.0999666957425365,0.19859637864779583,-0.1946316673062689,-0.11996295478308439
0.4664722633811895,-0.9949853457589558,0.5378394015768095,0.2511615535476719,-0.48738518435307265,-0.28245530713567923
1.4777546818444116,-0.11069460708791795,0.006113984223948543,-0.16847093690789872,0.674337584903661,0.4637093727569048
0.10153841830292953,-1.617585767401698,-0.19841247052333377,-0.5109515163895273,-0.18171114442601,0.7147355068640471
1.056398411103764,-0.3102962870923236,0.4577612341875427,0.6483242269638521,-0.060375637736841195,0.39286333178933663
0.3937812116454998,-0.5295709050858195,-0.23401129055723835,0.8296827537891858,-0.3255976162164282,0.9900923971713331
