Gx,Gy,Gz,Ax,Ay,Az
-11.412013000000002,-2.6613199999999995,-1.7643879999999998,6.3900000000000015,-433.58799999999997,105.25800000000001
-5.895462848831048,11.932178969433739,3.7861972602902014,0.34140007967460695,-0.20488699934069765,-2.2996567801770667
-2.657871111776654,11.937202010236463,10.009745260102799,1.6930036307323477,0.4639003767716958,0.2677123365440985
9.341603122462933,13.306340137687553,14.749770079421069,0.8484867770681874,0.049537893948827544,-0.6893210214873023
18.72574644520329,30.942704738347583,27.446678662159083,0.6408023456553639,0.2113904695173081,0.871771564536434
-21.334866080944096,-29.628271019721133,-41.65542586020246,-4.795491153411481,1.3798836999809585,-4.686409528880498
2.418118642886455,4.286933143687162,-6.495436272708851,-0.08664689004766435,0.2919751819121714,0.07767976632429718
5.748017886167365,3.65941322370435,-2.3943907434285485,-1.8744332211429122,5.79839992254813,-5.114664292121818
12.723458433215157,-2.989408537207055,-2.5630255886897366,-0.765141986901468,14.442960480171129,-9.498116487947765
39.31947482843156,6.9950529738184475,2.1327303973620175,-7.01026292340878,65.98822684162232,-43.06080137189484
-5.141142789559671,-7.885718754815059,-16.859290638308817,2.665439021338236,-20.8366853204666,22.773430820207828
-1.1991887926082279,-17.335161751577782,-14.55932159722998,-1.1483607371827955,-1.896796240377438,1.972937524309376
1.4861612831622635,-7.477618519524911,-14.764427243016021,-2.143244496474277,-0.5959311394189015,3.9040005097071715
0.8977749194571292,-10.822643326323757,-3.9759565700894974,1.2782964273409052,-0.6827055818035549,4.067652381039537
4.818177498498011,66.4759801465824,77.95553868287574,6.510337161328779,2.2873304679240665,3.8737878941856483
-0.3859464910004533,-8.70603740863739,-8.913341776005248,-1.1860212473512477,3.031134313895091,3.1875497982718777
0.5201401399249512,1.0337900371218016,3.4762666767327213,1.6584390154901714,1.904244445239934,9.463994562053182
4.498561510587217,6.595704609230472,1.3971658898326225,3.7864758480991925,4.240362370149658,14.622795497534316
12.563702519277111,6.533249828506641,0.8503223611587205,8.493484569651455,1.0391139465495165,21.575116417587942
-14.645554243381719,9.241691536185868,7.436055044767069,-8.0534106853052,-12.039494447197974,-29.19516290301618
5.351198430346294,3.6060652606826933,4.210471765735621,1.855823121943973,-7.342819564177479,0.6175734916538502
5.911926577374299,0.3716365858683437,-1.293345680641191,2.0506302101165614,-4.3632314852602825,-1.3412266060035178
2.7303737552333454,-2.8749022205164216,-10.893140608462417,-5.03227799239126,-1.8228996699070836,-2.5428859875760477
-2.6231635960798174,-10.483353919517631,-33.70610434816889,5.418504444856131,-3.299330159538078,-2.9145098152739193
5.526544402708735,4.521773694616144,18.052116121351162,-1.3289714466012617,-8.901196502129936,-4.107427343714109
3.7859071036945586,0.15110187459470215,-0.29871643979884155,2.1497404451294315,-7.21972047777744,-4.39358937128371
4.5774226212718485,-1.5638801693923767,0.9150547004721483,-3.3628825828742888,-9.368126484479987,-8.573163264785267
2.210319785601305,1.9270574094217416,4.3250659824965645,1.7365971512572653,0.09535751900466716,-0.1729027674950535
-34.71400177074619,-6.616645772031212,8.261789954767037,0.9906850366008412,30.766291497243504,8.647324146434386
4.150808944934438,-1.766406551889848,6.346062764604813,-2.0673369788096405,-3.7373898034775976,1.0257306982670737
-3.117931840679347,3.2233972313864663,3.7588697092056944,1.7661171954533628,2.7486807718982504,0.06719647454936917
-4.886208444632598,-1.0210339181511163,5.4260660139093595,0.34384730292236587,1.848819923010941,5.303949573116599
-5.538898373097661,-1.2166155390898035,-3.7225152276735454,-5.408606232681951,4.173409813375978,3.3177324311190564
-4.319675178380351,0.2105423711663903,-7.168461972906951,4.168982295497695,8.452951139312692,-2.9886188856235525
-6.130543904877216,2.3690000425657196,1.5719607978092263,1.6104584767638463,1.6325973080833496,2.035476262900956
-3.1006963408412727,3.262474381280599,-0.8251925518348455,5.527048701013949,1.0564911180905838,2.026907958053503
-2.851271850027491,3.06256895582957,-4.507923044788785,1.5556882423185114,-0.6235103486350972,-8.020394143111872
5.432785472013676,7.769434297505459,-3.664482121377592,-2.3055196329180783,-12.318481619271987,-0.44575719373794986
-1.96414425206815,-3.5008531635512017,1.425160247577794,-2.1534206112747736,5.0143082892895,-2.4165002531841475
5.319117278246123,-0.4735480848451784,0.7851141124455139,-4.543928146791575,-3.29607224516789,0.7594406861828933
6.397640163715034,-1.359401472535911,2.215002206880267,-1.9026360951980166,-4.361747005627579,-2.9371048261181487
6.106811267935817,-1.2837224040468658,5.402345544944413,1.391457391528168,-2.125626830695305,2.017462340827354
-2.040118837192164,0.5773124846249695,-5.615589273348356,-0.3103935215787719,-1.8574901662145926,4.49159279156817
2.28177249675202,-1.4401688481379804,2.7205707361691593,-2.7805266908926223,2.0208796723834315,-0.7213950956535518
-6.312472752706121,-0.3909428446818646,-1.0125807839257701,-1.7797752423474704,6.259830615513158,-2.9974270261366915
-8.672999389287984,-1.1292909253395362,1.1612405109517203,2.2734797528980137,2.559290608657584,7.145594601471748
-11.617961545237629,2.513609750287613,-0.5440834517259364,4.616952260791299,7.67868948326442,-4.013403020596314
4.1642219776418905,-3.364476268744606,0.28220101207821147,0.7326637977058263,-7.866594895450843,3.5961606051399926
-9.992799469220948,-0.04538832643574109,-0.2042745675476284,4.904603382652973,4.65768493732282,-3.6649008407897163
-6.749232364583628,1.9856491410320196,-0.18523378969531235,3.8138492313349817,1.3190243295254862,0.874839803424049
1.4948271576517742,-1.1452845085114596,1.2669844853411871,-5.806848926706888,-0.2401147406690729,-2.690152435960807
8.03689605104774,1.55895575445504,7.841618856017556,-2.1986865414745735,-0.9359859056395967,-1.6351969420413863
-4.2491781441797265,-2.875986062769643,-3.985310261005049,0.9813993830229497,-2.5396040497277053,2.144920581499463
10.853635250506212,-1.5539805423789361,5.029286414104587,-2.6840922696371528,-8.116821453270047,7.4695187360130015
13.922264760303,-0.27747497856031655,-0.758022382959212,-5.733576980396976,-8.40214053769082,-0.1656061102796027
3.8826081314947385,-1.2267778935867426,2.216580592506892,-2.7442674163324594,-3.8534394875114444,7.694137915663806
-6.837238616882382,4.661054848485985,-0.12822492583299172,4.9935036034948315,11.370028389009683,-10.941699764091
12.368741258717716,-2.437844212980521,1.8227024068658628,-4.0042838611422935,-10.049431511960353,8.927347824854651
4.953023720304694,-0.9050260790024014,-1.9222715220834923,-0.3069658157767807,0.9025869211761954,-1.8166095891742235
-8.619685976989002,-1.9252429542059821,0.14090634704902438,6.198878353424436,2.1923754873664962,0.7274036780016305
-4.177567006164237,-2.809521520564263,-3.5163268793955615,-0.9940282812648852,1.5472099806927186,-2.0875275161477673
4.4539948309012285,5.598696684456893,2.914049886319352,3.2769123784205,3.3117538929841306,-4.205283561647191
-5.588339455499489,-0.8169194024247696,-3.966505272294404,3.0690719819134715,4.783190711810722,-8.154241173518514
-3.813812338034041,-0.16275399450412875,-0.4572026897750959,3.768343207605099,4.480967529111323,-1.5821418703368972
1.6982065888621412,-1.4297788026422922,-1.2172677941071826,-1.7634374511686357,-0.8693891304202834,-1.4758073062111006
-7.206843790090106,-4.48648879244481,2.5108433072165512,-5.133837229068275,-1.0514851208330755,8.610689021830131
-0.8581059557956636,3.086759696316234,-1.7729060627826616,4.0218621973165,5.715633612452084,-9.901959066986695
0.7784889385432328,0.6211735571420158,2.187246276775879,-1.2045547251609876,-2.578086573609486,3.2049883978630858
10.472852347870925,0.3532057604917358,0.2365060053876158,-3.2958125789866406,-4.685163803579126,2.8828417315339845
-0.2458074636992693,-1.1856257210149392,1.776599447123031,2.9456850841760165,-0.7003354558993014,2.435494860948474
-4.953307277911228,-2.9061793130295044,-0.5746414005946985,-3.4584925227715244,-1.898500303623772,2.33114129445343
4.837483158210163,1.1962810057899915,2.0830060069742413,-0.2962916362965893,-2.0491330014489413,3.2049137979720084
1.0936839730197845,0.885628049070885,0.8366077348420073,-0.5639237928773335,-1.2027779512569747,-2.084997978972114
-6.29839,-0.18109899999999846,1.4700805000000003,2.209,1.6240000000000014,-0.37700000000000156
2.218781136035554,0.40621388552438553,-0.3138732238011456,1.9286760061144896,-0.6137946210571986,-0.716219625428801
-5.566191232634072,-1.3462504204639598,1.5130153113712588,-3.1205963197103226,0.1812709834504167,4.055604567861481
-2.0795884710807897,-0.23242785273219013,-1.210085307108969,2.024278828161997,3.1917165060132096,-2.868068224189084
-5.029302004750711,0.9520565080893533,-1.333646223487463,1.9971223169710075,4.035200832489023,-2.5577490831883667
3.39937988824081,-0.18960984966462657,0.621638181899945,-1.6034737333841398,-0.8036195585403796,-0.5009880342480905
1.437625958352665,-1.2754863791248545,0.06110799288693425,2.188111212152109,1.1503705499796462,-0.5634765883845092
-2.5351683608121993,-0.5090528280540514,0.03508580236291914,-1.096975363031599,1.2403509006110418,0.17261873801864724
-2.236516413851457,-0.9961124870673947,0.5905236767584944,-1.6250255675418361,0.04292578100815053,2.0224472839211205
5.03365272170673,0.8451279928316655,-0.3613170550365912,-0.7153606836259012,-3.036502101884458,0.13631066157856264
-4.1933621210660785,0.17684238966031976,0.6668409275687435,0.2511148933356476,1.0713198849938186,-0.6801768664785615
4.465008107024054,-1.0133407063379833,-0.1069962811153907,2.2271668439167853,-2.436309067357252,0.34149960060163864
-0.9399904324561925,-0.2352817838682817,1.232571454392973,-0.7958489435513177,-1.2406915687257376,1.594506458075666
1.6573032506739094,-0.6539789466618144,1.3713578428191537,-0.24865633668945764,-2.483938920003375,0.6826532027203392
-2.438907973654171,-0.37782534649958605,-0.11999797881867355,0.06706330495829371,1.066923165003542,0.8408452552371666
0.10357788471622364,0.20345629946726157,1.4968359335578132,-1.3001801868574911,-0.7876671810564192,-0.4692024976166794
1.7825871247467049,-0.932363153191323,0.05533451857031102,2.368135077785749,-1.2326530611443376,-0.4302109567473815
-0.7533846911937313,-0.46032122620240734,0.0351371443610112,1.2051082857883828,0.8104148038229351,-0.3506360104766776
-1.0781756792543866,0.1474728905770719,-0.6894264359432165,-0.4380092040298986,0.4844078025648418,0.2781699440675334
0.3215148687132779,-0.6178539412091272,0.84783283516667,-1.4762503242618503,-0.40798792822571534,0.5834887771456896
-4.1437924147742216,0.7251577852666884,0.9990854840552932,-1.0229307987215774,3.7328551821876563,-1.4879433323537945
3.5493047279124372,-0.9298553172641586,-0.20134195245976416,0.30220458989345894,-1.4076743918016459,1.0005428159338128
-0.35972751121944485,-0.564665787605232,0.33451228400916944,0.9837650258870829,0.2936771386344572,0.10646357477336754
2.3113800482840907,-0.48646616838397916,-0.02977832615852541,0.6407235179805151,-2.4468930481699127,-0.23978623534615873
1.0723444866854952,-0.2059335241480246,-0.15397445075949856,-0.6275304192598321,-0.3622360159820981,1.3801201100039284
-2.430539296976954,0.3117381362280339,1.8346051398379317,-1.0461966903001945,1.3727507610142964,-0.20509263671051237
2.764362864081873,-0.8285887801115377,-0.0953255571337624,0.7343455595524934,-0.2889714999550437,-0.8452847790677404
0.6329258969866127,-0.5990295006389958,0.9065962038574961,1.1617397313239852,0.6818302967101044,-0.43159763919691857
-0.005573395211736054,-0.7852991910677292,-1.2641721554735041,0.09551979886929607,-2.073177139527698,1.2186288697234615
-1.5319105498787224,-2.3899222954670707,0.48341510719331315,-0.023541794391948923,-0.38418562294404435,-0.20716246903753166
-1.5028519599257268,0.4367465044089859,0.8896079926509579,-0.31396899187726574,2.886615174674981,-2.229680490871404
-1.7940270812473398,-1.0177349922332317,0.2616594307303053,-0.17863066266934252,0.2342012859351638,-0.037357011473045154
-0.730610545386537,-0.08902797947957813,0.5175044683918085,0.38817271208104004,1.7666890760137752,0.11390880116972119
-0.5007586706947837,-0.9638477513640351,0.22416749546622072,1.24462490500443,-0.06078082978459298,-1.0258294192886634
1.8843179195561612,-0.8686745384301142,0.08232324270502844,-0.9915151559867459,-1.7496932743318458,1.906669742450862
-2.1198928205894525,-0.09991007409350688,0.9355277143487055,-0.35379476321306913,0.03434076282597598,1.1808619788612904
0.13711896722974992,-0.36033884613361966,0.17455523810234225,-0.5907538926206025,-1.0736885645650167,0.4158080958472873
