Gx,Gy,Gz,Ax,Ay,Az
-8.016710999999999,3.8696969999999995,-4.505985999999999,-9.459999999999999,-473.51,20.939999999999998
3.4638667799228964,6.962881010476298,-6.385880607209652,0.31552418802233795,-0.9019306885173781,2.719457838801213
4.550626322580241,5.75458756908501,-6.423239474365703,-1.054740633971622,-0.9311778832412787,3.7671928292296815
8.549403576623753,5.462525634534645,-4.203134938832223,-2.2071062036770686,-0.563430927999089,5.249233101255042
9.993752954588151,-4.352182480178364,-5.072174927981732,-4.446040441257043,-0.5252632696273976,2.9468329871969723
-7.792205081154413,-24.008445262113842,2.8421333738723074,6.273628154600937,-2.629927569587103,5.189159112664409
-2.0185689111947522,-12.187511939611475,-3.6814631255752603,3.781659889459691,-1.0284172721188893,7.863229717914766
0.7563549419463316,-7.004493861964467,4.803917280175183,3.5820493100468456,-0.7362269986103793,7.301563330108064
8.449974653556403,-1.4182228390090093,-0.5770041848835219,2.2797839942793514,-0.13928546045197798,13.69197137247198
-57.77911163741834,17.261275206073165,-1.2643688892804046,-2.921866661569288,13.938469713413966,-53.58714224301501
0.35078102992342286,5.031780582315267,1.4784907919880723,-2.001157109593687,5.505472442100443,-8.351820905370914
6.036121697591529,-0.9490338235460256,-6.277758961816909,-0.07828202292371789,-0.30017800641579684,-3.2678373297931227
1.4581610461310108,-3.556908996644741,-3.3925002343447916,-2.1657164253156345,2.2582603117819176,-4.040821474275485
-1.3816797262867193,-32.86989505230472,-34.8215873219463,-5.309769505477371,-0.48795689791077734,-2.076305429431508
4.532242457119677,22.883897462063004,6.913506355676587,1.428500878326378,-0.3671663291533527,-2.1884070576245365
5.344422875060403,3.314217496311934,-0.5787084674198548,-2.3694398936569323,-3.314349432334202,-2.037058775899147
9.996521426320314,-4.875362635921023,-0.7063669231834133,-5.00705184257428,-5.68076278023271,-2.5020631758537872
6.642500026999506,-12.257979531547361,4.1145192780216115,-2.97009801482284,-10.512947557873545,3.204164523519919
-6.9759972754282416,1.9647569139529129,1.1255791859344253,4.067276735439562,4.765701441413201,-4.827600576902013
-4.082704910604952,19.68676590603383,-4.9127948994880235,-2.89390928692754,0.5994432016326817,-2.689761515211866
-3.008847890737983,-3.4399312161904634,-1.451505884216636,-0.4746224921865385,3.1669142581579015,-0.09500534623313184
-1.2028209350812205,3.2527496050650644,1.891936307853008,4.994169834393402,2.074500730483129,-2.660056694804066
1.550676250078127,19.01246052727095,25.64970099632317,8.825582183424107,-0.9541125764424212,-2.72440758416332
-0.32348685302364044,-1.5810558800599206,0.17114499475230893,4.641117541306668,-2.531502284963647,1.1196312999487787
0.19725746261026617,3.0114397020562986,5.107384919257562,2.8284683137135582,0.387202348116534,-5.372832727108897
2.8529128379026676,11.106223476096822,3.6245306642790247,1.3555468262438997,-1.3092764216048423,-6.938520204010512
7.423953475070957,6.632551182916479,5.3260342652178085,3.823112083789449,-1.5859421773996676,-12.5873716593681
4.338772045253909,0.6338659828576843,-1.668588518963986,-3.709570618277339,0.1632238870713063,9.826592221707141
1.5315399121876387,10.633186107460409,8.916556324537533,6.77395117983948,-4.5325627618027635,1.145595782397657
1.6895469823837097,7.583232407461411,0.17404313346300138,1.854337600231279,-2.0746861103515397,0.8508371481502786
3.3789524838267795,2.3292315154861547,-3.3073197853616447,-1.5173313911465474,-0.11960985515498734,1.780470275968641
-2.9126169397702575,-26.06475788681737,-8.429932596314538,-9.786996236915282,0.5890562631072062,-1.6782863552253484
2.2624423798249347,-6.69428365611012,-3.9215734164329064,-4.353891043220687,-0.3267952837909034,1.1331932233753899
-0.15991559787992893,0.7726315842486011,-3.6388320371738354,0.011140117927672222,-0.5230909478401564,-0.29075570622466795
0.08826486516985099,-0.10689322632265608,-0.7420814615802427,-0.947362904684792,5.43737235465926,0.5144000603130097
2.530948297951694,3.254034632227583,-4.238428988149538,-5.170850442501654,6.505924749756295,-4.344560291901868
2.4436468291021844,-1.5800425662378892,0.13799528002473638,1.3306465933875415,-3.211194528555055,1.5031001890927587
4.88925549996121,-17.826575973234885,2.836329258854594,-1.7745227726381423,-0.519900277152956,-2.5243329723361905
2.442092947389779,-16.276390427589693,9.210708720382112,-0.6228008844107429,-0.7460898463749024,-2.1410870450803947
1.7336038747556675,-15.752590532083763,11.0182088401879,-0.6181210165081581,0.15259531876186105,-1.2065750462798275
-8.10239383862871,31.93300161750299,-17.19436398162067,3.7797793111168545,4.528724824171923,-0.17182952674536178
-2.8584111766171425,0.5959829637621983,-0.3997303244958804,-1.5678178369817761,4.013785688521713,-2.4404029421432583
-2.017490613035817,5.945948046505235,-0.38940024391791883,1.5753118399246326,-1.6761023966971373,0.874362832783957
0.7965817364201613,2.5294462369075537,-2.582314148862338,0.19899719423861062,-2.5171789647078797,3.594023154767658
-10.821433070434678,8.845705998824807,-1.3576193739539277,8.508944841799254,-3.798150302938684,10.18702945393433
3.817206071276404,1.1200839960190745,1.5296249776026152,-1.1341830542596973,-3.0169872019149886,-1.0791045461253663
-5.067937893893734,7.8508351457010335,-6.989173580668737,-5.2014373385748005,0.16480507883000262,1.327509416002976
-5.6960642283369625,1.9445560761177334,-10.17713306075085,-7.074410005546963,2.3523128919998806,1.259081263889272
-8.952486495852797,2.410755325262632,-15.180312500168645,-8.429884436783631,3.752100305201095,2.524387501399675
-1.4314264180486715,4.565617855067286,5.499114133597183,10.168538193098732,4.426560198635844,-1.5839327402280452
-6.889088467694678,3.6142296849660416,-3.011457443322548,1.681495603737822,4.369805755869173,-3.182590391647442
3.457473391627679,-0.9881040548290367,1.635382872557868,1.9217199402571161,2.3270609963788464,-2.9311659045189504
-0.895647794188795,-0.31336357423274475,1.1912038558392357,1.0853496564288374,2.781693942043587,-1.4144145804299875
5.761573985193631,-6.799682706826716,4.419269675730732,-0.4760307066400058,-15.177371662921466,8.84015378290594
3.647044630610816,-1.745029081752275,-0.2014548881719267,-0.0962469265635395,0.6416568220298142,-2.893905420708096
3.351193768993797,1.2113982536022603,2.8805214937160706,3.902480018615885,-2.827220881533219,-0.14835242037502433
-1.0941363435796632,3.1088699382090077,0.8831587377413463,1.2266228969344728,-3.621340500656879,1.7841330278311798
-0.9978735384172581,8.763553610560878,-3.0641733028700147,1.4646111201153742,-0.8191599939150351,3.452032215463182
-0.8546498167078569,-2.309902949483159,2.135370540189755,1.2651092208374917,0.5446258582315253,-0.9767684614147597
-3.804724643361566,0.6354006749303838,0.0015948472720197227,0.4024940929892844,-2.3486542199905767,3.204652452703896
-3.2318805869101235,-2.1943535082528207,0.6874943303090504,0.10865363101142456,-0.9853865180303929,0.9495292334276839
-6.458874921312499,2.996719985085841,0.8747892271794573,2.569440250564794,2.0647676160632837,2.2704290226833646
1.2495455903586552,-0.4968753749362209,-0.8490301937218812,-2.213929380378259,-0.42343833505089695,0.27380859317222317
-3.0253343061521925,3.7480064132323347,-0.5082550480034704,-1.7109252222505011,3.0555269595816266,-0.7079814459616475
-0.024924583806571254,-0.048624028097052574,-0.6173713694774556,-0.6962739922034326,0.24342361842638738,0.33877441690729937
0.5801967937505076,0.16217700614169606,1.016708298434451,1.1124332025329116,0.24394989038522086,-1.0972147143956656
1.3336479969953547,-2.0853876790898056,-2.679070900284099,3.099243031638273,-2.1369815431146706,-0.8259908464807035
-1.1959422008220477,0.6843555545791159,2.346821269151074,1.0746945033206672,-0.02980526050389329,0.0626347080889933
2.859080510344242,-0.3470060543653877,-1.605957443826741,0.31053153707600467,0.23840528747535067,-1.1438401687583575
1.3331250163511474,-1.2552124941156002,-0.6572392254238508,-0.150832831330435,0.02290240116745923,-0.46454654932820194
1.8541810516330504,-3.5311120922713797,-1.6748204559469435,-0.16715545056799663,-2.432624846211814,0.40184933175986126
0.5820288285376537,3.279096007489673,-0.7973013017779296,0.8698480529151151,1.247185569613972,1.2350436240472304
1.649021975987022,-0.16533349975089617,1.5754342280795677,2.845468952165694,-1.069899883831114,-0.8962933254088601
-0.7973090415458852,2.782989288655754,0.2075445804228223,0.503027397024612,0.4528626061236078,0.8987900876782993
-1.349099722351506,0.6632919275978977,0.3257597673809416,0.21242640346520125,0.0730057359214662,0.26957805272260593
-2.8755572852767486,-0.7338253471911772,0.5796539881312464,-0.9073231439276027,-2.9811083287337254,2.5240838287068974
-1.034987462882513,-2.234804605296607,1.6575360602620521,-1.7290206764259093,-0.6448722961242567,2.156231553120432
-4.272922162343126,1.4209296843326942,-0.7605807364041035,0.9735751447601281,4.6198916078534715,0.4461325296382026
-2.1316185863722064,0.16779420514452326,-0.4563849740939019,0.12803394842839144,3.582384092755779,0.06959695312012326
-2.897362956631189,3.5613879065149474,-4.158619273240753,0.5839533286487073,6.7100917040639505,-0.46373598672547683
0.985384278245963,0.04282831943757803,0.639408386650383,-0.2553828520133094,-2.4235703506920063,0.21019697765217984
0.48590332093159233,-0.9342321193280418,0.7488377794632314,0.1402847294019993,0.38447947854360315,0.22433817884927487
1.2219469969679717,-0.751044841492857,2.0248671862482306,0.5569988596975362,0.513338575196735,-0.2144899944694728
0.03680518209321415,0.43555537520484816,1.1902482294437227,1.748381795358575,0.0038146779630546107,-0.9488327734109541
2.572990729106865,0.48121702694504154,-0.6164320548276294,-0.257965471303365,-2.323181582928582,0.4480718444345726
1.3462162958373107,1.3495761515349733,-0.5171265174250398,0.7633033047560975,0.31496615388830546,-0.20197455323092156
0.6558230015438191,-0.12376292949675638,-0.26377609501220034,0.5177371357218031,-0.6421837277336367,0.5255031191568986
1.1929060238745686,0.832048854688991,0.5227476676082262,0.6372192229388016,-1.3838280833913683,0.4805340900920023
1.1160783450547622,1.1873191013179865,-0.5624017835503936,0.9995501805505345,0.2215268827483018,-1.1150174788474816
0.5946842181161891,-1.3566218455984198,0.3244323528599826,0.7665667173425151,-3.9356436647353994,0.5461146524553241
1.4566848034567628,0.07065886878079075,-0.013667897584450972,-0.7924855206742278,-0.9790551049488329,1.1768324678318967
1.4762166649452109,0.9280639863816413,0.9644774494673656,-0.290748044848014,-0.7311707998969581,0.6916423426732461
1.0410394224260195,-0.9834680142747798,1.5571520677213795,-0.2920692073582424,-0.15299906730904655,-0.26947732515095796
-0.31412539846201637,0.28728120434573334,-3.814373216546397,1.4991489783954934,1.0357721179471302,0.1919426366432122
-1.2229987220293623,1.6180146860572142,1.2703285597974192,1.4836648697405002,1.1359403508502286,-0.3391471057457489
-2.0913239425971315,2.0376209105879055,-0.5877196616501414,0.6119756081437331,1.03505454184871,0.6827526957837297
-0.2617722460103784,1.5452993764704424,-0.3841645501938916,0.7119961914602813,1.3312969227377263,-0.3495759599771351
0.932587099112137,-1.7087390797069966,-0.5514549854116928,-0.9651376457918773,-1.4792828123979902,0.6415612030927527
-1.226375592877193,-0.47191642419212165,1.0055391338777737,0.1598495414125315,0.8427480493663878,0.6979363995316008
-0.6993004640908125,1.5525604964847164,-0.22564531103667262,0.7422830225955541,1.1982475573478566,1.1618035677720104
1.2051965884572295,1.2146881513512402,0.308671936284002,0.7391832208577357,-0.7257357037415773,0.6717282952945198
0.4299895047811684,2.1707314473623045,-0.2369494393074067,1.2482596714672787,0.993889473362754,0.19654228084846714
-0.8974218445866502,0.6501428191319454,-0.6760634152662033,1.060814258204803,0.8237113682335523,0.5223270151507455
0.19996913913977166,-0.5565640021212616,0.9806431156926931,0.6042196471194063,-1.7409335023399,0.6543940885639054
-0.7991714560574301,-0.30453507435358074,0.7031937813841947,0.38712502051932784,-1.2139325667785192,0.5739740804406596
0.8281653098025643,0.021461492592089293,0.8925485586837907,0.7603106059401186,0.04182831950088772,-0.5785408406192194
0.9405598705528981,-0.00996809497462292,0.007741555174456183,0.04114096239768017,0.2790809640842187,0.03273913617598559
-0.6487326674908283,1.3270353696513668,-0.157234130391541,-0.12533905451876726,0.5850358781984524,0.7723365935381795
0.3197644953772916,0.13420802982694968,-0.15619567210300123,0.39362378503897205,-0.7976995118865742,-0.5375693151742734
0.3693674646875065,-0.04488941403554858,0.2750826498922558,0.4054005097901296,0.1521935918251407,0.5545517777975895
-0.5058790567891754,0.8352254223498132,-0.595224221031085,1.453007805460301,0.3277101582388908,-0.19378231199865936
-0.8549864859059149,-0.6444043693156521,-0.5650757122576685,-0.26651827935471606,-0.23423772486392425,0.18091164404465315
-0.2948832836012241,0.26634699847568255,0.2354160718664643,-0.20470338442826547,0.5226923222563163,0.4114146249742936
-0.1779486159211635,-0.5092231548046069,0.7692470250876191,0.07485074081730736,0.3130048311029634,-0.09206246793500164
-0.5885723531646598,-0.37388013690907673,0.19167306193736514,-0.39361493884280746,0.7283431234492559,0.16302455343658429
-0.20956461799766957,0.09800473104083407,-0.5571100603681775,0.5539894969239527,1.8889096881569944,-0.5954262214059722
-0.5745551916640594,0.11419913015150832,-0.4753122835914876,0.7106201329257302,0.3052575687344372,0.8035720225348271
0.0023412467491208053,1.174793145419963,-0.41536470685287846,0.04078123424975799,0.9232691755325977,0.164060272680573
