Gx,Gy,Gz,Ax,Ay,Az
4.549707999999998,5.521705000000001,-11.274312,-7.08,-365.17400000000004,52.940000000000005
3.1978652729148758,16.093434878552145,-6.981257534834777,-2.0469349276600597,-0.15039778986820163,0.2617440242902207
2.5712077782133207,20.549357942009994,-7.298160258231432,-3.2349425705034367,1.2485241173329014,2.438431123320475
2.101601888931442,35.715319321111245,-5.753663349615094,-4.842922016112097,1.8269142272720782,2.50170387910285
17.543698043187682,-93.62115438938403,84.7109103482678,10.955432334611041,3.8433816398266156,4.431547811691374
-1.0439186424690163,13.0082990111766,11.01996039699397,-0.34604057550533085,1.9574313356156239,7.0937341535480165
9.42734259628442,-3.1541437984072402,7.012983447371347,1.1872483536453942,4.389389725633427,7.655930278872081
11.655560717592222,14.94229371708151,4.155293316919167,0.11754069210245888,1.6918350446548138,15.10484181053765
-9.039896757574828,-0.9810564170113611,12.234965634037923,-2.99078038294968,10.558851193063813,-26.746143675282603
-7.129016459059229,2.3299762254768996,9.158125259748921,-1.0742286374949228,-2.2697239208149123,0.152617069609586
0.9556865902459024,6.249145464495596,9.450885156405707,-4.201273830526012,1.6492061873930197,2.158092777108356
-2.248198540042767,4.725572174767063,49.35169239890905,-9.46002586492568,-0.9583100457042484,-1.6642306492541714
-4.038236762656602,-18.262453117407336,-36.530808667430236,6.286333773334737,-1.5737199586999795,-1.728866276597369
2.101561110468289,-5.6319941865561045,-6.55062923181113,1.3771840995536386,3.827374777815039,4.308756034521722
0.8821093189433995,7.2096893583277435,2.3350730263241597,0.5900413430198186,5.444948714365893,6.920396140561914
15.824441658865826,12.014063494751044,-2.974897868471216,-0.773970165825403,11.08281063878491,16.840450591093223
-7.302817913740192,-7.754855240232385,2.2945464395520694,5.343753183791936,-13.996133197360821,-6.673521025565358
-4.396125744883538,-1.9388805196618522,-2.103797347764931,-3.668254477718345,0.3032719884743096,-2.055131116243534
-7.921858640935441,0.5470090473476645,-2.016942127951001,3.2952839762861075,-0.1672197939244674,-2.4281194876372547
-22.245891108120723,28.914961254341648,13.445934487496775,18.67942951844045,0.4085535069287165,-2.448401202414304
-5.321687426222964,-5.733111246665348,-1.6466043431167212,-5.362528534170096,0.6355245168794603,2.1855277208390502
1.701843770670612,-3.3068763368843577,-1.6604878979113433,-5.014116827920352,1.3144093883251124,0.635714698186618
2.338598631965146,-7.4163850557892985,-0.4005149840215929,-4.72823877939701,4.6379664735466894,1.4871429189059426
22.767786889283073,5.242799837400748,-1.4864341648441477,4.813458580953457,-20.49572554961067,-7.715292802356612
-4.415075426477404,-3.8806164558969907,0.16262288772416644,-1.8536467367197074,6.142486008165473,3.7738658847202924
1.592606607884953,6.951234084013784,-0.9218297198792103,-4.156138574075338,3.6763717282543453,-1.213096110186029
-0.9980341101890335,7.240756607845025,-0.6606910399724893,1.8400262496681323,0.6718723772694339,-0.941488283194756
-0.08968730408702186,-8.638694021164365,-5.157829347745206,-4.184895790920983,0.44351790925185597,0.5984159318133995
-7.942787870655222,-5.898481613703316,-0.265791153044564,-0.034072347264750835,6.016054685327228,1.325789526387373
-7.776667918019132,-0.7538694080389281,3.937113699820189,0.47637193950181844,5.09616301077978,0.8592312415268215
8.90577775098155,-1.5365663149656976,-2.0914456695129884,-0.6197439730516761,0.8309254336146843,7.827426859539525
-14.816350189686247,1.93985767898648,-0.5246534732365249,10.33553270792843,-1.0588982672639737,-14.193278817209919
-3.7252384617875984,0.7344848933890002,-1.9094263426020113,-1.8067050319314757,-2.057074346027267,0.13940278376601078
-2.9622730725047046,1.667544296733336,2.8931451407561983,6.756311085270113,-0.19203461691832718,-3.0318588152242767
-14.097815761649262,-7.247407871554626,10.169472525073639,1.86635309547633,2.6761293559046386,-2.971641728542659
10.387474276129314,7.190847582289577,-4.233548435759801,1.0805531847858936,-7.666428007319304,1.9919916289709503
2.2009255945800774,0.9069897892307472,-3.984319503829663,-3.0399833407580394,-0.8026862328479403,-0.07736182041658379
2.3470182968263287,-2.085019759633737,-1.447836910702887,-2.649950146171579,-9.88214611870307,4.0963354616483105
15.858533206230518,1.1442520238851992,-2.9827699735487494,-3.449582373756524,-19.927768043390238,8.696746319558285
-6.277422350819293,-1.5314622604386703,-0.5796833336763983,-1.6811148087440309,9.58603695429478,-1.4589806226141464
-1.5767350563113522,-0.244595185719517,-0.01473172567643194,2.172403542479066,2.1695918280046342,-1.2054133814656398
-7.170575866129007,-1.8137872524483747,1.6996526642085854,-0.41360552924014793,6.37829287830884,-2.5996510065946365
-8.233905323579695,-2.4503691347088625,-1.6671698716958336,-8.753276267688845,14.724957537648859,-3.742713778537351
-8.675711665996205,-1.4300846971475298,3.5733463444523323,3.226782586440812,5.668206231946454,0.2116262469555521
-1.32117349498863,-0.23540038511124117,2.6853238951611056,0.010868488335173732,-2.3483571945607014,0.18143932452498965
6.891951386973954,1.7972213486190758,-1.2310819896698366,1.3199814779511811,-7.009029680579676,1.9319588707972608
-5.023537836185733,1.7986534957640687,0.33208188719659204,3.792511514947857,10.930090042932724,-9.513405449662526
4.38304098283089,0.5483689373755805,-0.6781501761338571,0.02211641031912559,-15.608375255226491,6.888038651283276
7.390521315173582,0.17730144082778154,-0.5000907049817491,1.4094553069223932,-7.775462096889774,1.3831097989818117
-6.4749924774537515,0.9937266890393679,1.5944371248771758,1.4043259521969023,3.2714794398031524,-0.4726863533765544
7.531407685352686,0.15096307098806738,-1.4828241131429736,-5.271608857465969,-6.98697922229414,1.4889465169682152
-5.1807049363916935,-0.5948285246581682,-0.8965069575931321,-3.059457044875107,2.283592353860699,-1.894336579588178
-5.104852861464691,-1.0581577803572944,0.5138763285537108,-2.4662352235473497,-4.717313785294529,2.0930513047642996
6.94916299648656,2.7230313834839275,-0.1361191869490022,0.23850647534575653,-12.153385885554684,5.673435955373461
-6.451901647332472,-2.813206853089265,1.1634917675041838,-0.7023929955082793,12.582646270826938,-7.396579377623762
-0.05714669820414131,-0.5417139692048054,-0.8449224747587949,2.6586810308899866,2.3730125831249786,-0.7906452702846519
-0.9972039324922757,0.9145971919915543,-0.21922976459225207,1.41095296065625,5.791350709276728,-1.3082106888625753
-4.281148366842956,0.8581131961232753,1.9212814356532908,-1.9099487733464993,5.028088513255306,0.31405433266733285
-0.8914133819885803,0.557618809759074,-1.9248493069206112,4.494004756312294,-2.104907461767547,0.5497141665630672
1.637119873700342,0.6241972645524363,1.254669277092442,-0.7477131609157461,-0.1629291282294303,-0.9416761525983666
-2.615843822053848,0.3371373425849302,-1.0102104760248407,-0.20322183777256775,-1.3316607813900898,-0.8623637507047335
1.999357478738212,1.989281671292313,-2.0837488695657616,0.13029188183935103,0.4934871940241801,1.583890032804537
-5.189998582425455,0.23965496466873626,-1.8617478981569042,-1.4197088002511618,-6.207434583236987,1.0922425562172746
3.466744437320129,-0.041653715630202925,0.8596738772267015,1.386844287524402,-3.348556884961112,2.069028811857338
1.8968360656880274,0.6487815518971454,1.12341309701665,1.0773689407921532,-0.4325107643087729,-0.005951400435641019
2.5984559470927437,0.3221924568585821,-0.7099847396902026,-1.9917170935265454,-4.0962861252371,1.19304560694085
-4.074444861815766,1.4455335233358464,3.3370221640368776,3.12658944985299,5.4311848303400705,-0.6502709008183154
-1.2061671347875582,0.06700498128336552,2.6384627886510117,-0.3114054480002444,-0.1294077598758696,-0.20410524908221572
-2.8582015089545822,0.4443656501319093,0.6092963368261302,0.38900967689422516,-0.9971216403077672,0.41194023916439043
1.289320287844997,-1.4923427443452297,-1.4218536945051077,-1.0980689308258957,1.4387176665429897,-0.19152334784177139
-0.998460674520303,0.6081770778143836,-1.1033275161935536,0.758834688484327,-1.0904701323206885,-0.622378586673857
-2.5194116013659213,1.0659082072521966,-0.914501400226443,0.7902051345538572,2.340716269959916,-0.31007890285056
0.6546667947034115,0.5848491619862849,2.509224939300931,1.7559739476381502,-0.925097835806324,0.9685491050879588
0.6617194848152268,-0.10185990849642895,-2.354450584784233,-1.210446557857443,-1.2118141820099066,-0.0009129356762663798
0.09912790679890238,0.5848167064807197,1.0887857095864684,0.40885923381413436,-2.609861013121023,0.2967029012274962
-1.1822329459775234,0.7519424111684965,0.6659017429639572,-1.0704951374094316,-1.155507121334998,0.566836831277946
-2.8369059565434456,0.9041576409655694,-0.724832997937503,-0.7630324994906043,-0.13910076046475894,0.7332691583818994
-1.8911384982118824,-0.43449648230530136,1.5589278432407632,1.045874537245466,-0.8553486796707704,-0.2767283182919028
1.6532832583512844,-0.5195338798641068,0.5201987983190185,0.59376543916139,-0.7340203257665849,0.0016736507729695482
0.3365202907663698,0.5217049132674361,0.3176140438941315,0.9110988788007897,0.41491794071329524,0.16049126557346927
-2.4504984505668475,1.8987585087662904,0.466941083496369,0.06482302943478269,1.1637351147887882,0.8214865378301287
0.40342008475509766,0.10729969487459745,1.093132404057455,3.128435068562327,1.4643694306767936,-0.48443035281668684
-1.5102146899397124,-0.9959312148271249,0.854554467387906,-1.111283741474094,0.4079458071807282,-0.2752175338078321
-0.22029171269979386,0.4224716189608513,0.4921532577122346,0.003866015433198311,-0.7433776398596638,0.7446203937167897
-0.5151484224951284,-0.02608004335070835,-0.3342397279383744,-0.9568036183358448,-0.1314138620518042,0.38400021001106605
-1.9597879057572638,0.7338916964873492,-0.5063374933954794,1.2337336746151353,-3.321506063749453,0.42964418528131304
-0.40722061913981417,0.5035979785703184,-0.14194202845077974,0.8323476666218479,0.6295845645661814,0.17236754659147793
1.2185751183437095,0.23029639634730736,0.8050962538827588,0.6383877270577301,-1.4834812208235657,1.1901139914913643
-0.3022373602548337,0.36810829255462374,-0.010044992232123184,-1.185259386622568,-0.6686848136381859,-1.0816757244211126
0.5022713339175121,0.4929076135480074,0.837151038121781,0.636497776394088,0.25880422256371827,-0.9181209538665049
-1.5868174429119528,0.07481290314823813,0.4930649892601562,-0.1313762676619053,0.4200531641888494,0.24292380442389117
