Gx,Gy,Gz,Ax,Ay,Az
-11.709160999999998,-3.3686409999999993,3.4501250000000008,-61.585999999999984,-447.89,31.137999999999998
-1.2572971907911898,5.383710605662411,1.1205036040900038,0.5576416142191355,3.0201352986968697,6.379673473234951
-1.7456807342958032,-4.622007152243083,7.381854544655592,2.344253851370561,1.4743660987962637,0.8517832067383363
-10.259873700546763,-3.2171466046071857,3.322655971588471,0.976037193350618,3.3993865245396626,2.998305799650731
-0.7768305233679125,-51.80316395311993,17.645134997204142,-1.9535684793666959,3.027315282522479,3.1634080768516437
-1.6820912793995109,113.62265438966517,-64.23138314285484,9.863152595271115,-0.5571624419389813,3.666755250553405
4.175918590048165,32.85229837848627,-5.774867077731457,2.2317145916949137,3.234526544746273,4.925799411697904
3.402856310315257,-8.133668310646108,-3.692295065228946,5.270947343421992,1.5163736336926554,5.555557546873178
2.6186749780948775,7.049447846392925,-5.1623783617681696,1.5765618061772042,7.978162829201359,5.1540135160822995
8.446948484213609,-21.360818054508275,-5.1220148153781935,4.370858296238088,16.81190798514406,16.051954500505474
-1.467832408466709,38.39880209412354,-4.840406305013907,-3.1638315716836827,-30.98892791691197,-21.322956531119363
-3.3222351155402055,-1.69023544430864,-7.158906554473175,1.4891430170735729,-5.739656686461686,-5.55307426073661
-1.3553758173289343,15.584090353460025,-11.093945594283117,4.062086595260451,-4.004695844780318,-5.010052278538507
-0.31455901984346557,6.356070778265377,-12.106461869963821,6.114780731833456,-1.5813057446451904,-3.763590395087549
7.757492762450537,57.926995312486085,-28.689502145744356,18.9310183889175,-9.999272058229883,-3.6887571254693294
-4.628841276213827,-14.753723802471939,21.13430721842101,-11.1055897996248,3.9808440216041836,1.594751793923926
-2.9144371471657102,-26.4487058247919,8.416070691938302,-4.728804935421467,0.11181066661150305,2.5022631964298148
2.7287106222373776,1.318792028387727,1.9215983158043368,-1.4089724874050553,-0.5803856985845284,3.252717213989178
5.109002612919601,-12.498839265609964,8.131682083438694,-1.048437743285536,-3.9851494960217373,5.805704044620083
13.47521869667946,-20.91698778213587,9.3823885199896,2.6350707309140344,-7.265218275992387,32.29230228746588
-5.612097739746399,-8.818697358095976,-1.8107961251864884,-3.5262729655636678,2.6919386830390404,-11.483419488992327
-4.707674541678059,-0.3252598052615383,-2.9933617300680586,-4.9575715465388965,6.867959253179546,-4.27106515203324
-4.403019360012607,3.208254423338515,0.24759230588523662,-2.679987704887746,2.075438776181846,-3.376481474936402
-8.129581832744503,-9.163035945061441,-2.6419277026682413,-7.470834425914501,3.7154050266044796,-3.02931246155699
-19.970521301869685,-15.93563858524294,-18.73656908459234,-18.402859137212207,9.877625708751397,-1.9743925521689694
-1.4979783767068369,4.761348465003636,1.5487462161403678,1.3367716247215882,1.1891537796980198,-0.4975233573483513
-0.7841977785742869,6.8380760287404065,5.916296774577483,7.397783918894192,-0.5683613160392431,0.37532816554573045
2.7002371621410797,-1.6776129756428086,0.5371655320855557,-1.7214624234983718,2.156130668979797,-1.3980641401225011
4.333070904702153,-9.28739387595892,2.8081872425280876,2.032318349541616,0.7457131728862403,-1.3532633158225114
13.96065033951474,-10.905612252082594,1.9662504585098928,-1.8053775719271905,-10.326488433856102,9.999490720654705
-0.6789313596125855,-3.6849426304555877,-0.6389556032290165,-2.5282908994438387,-1.8782862122968207,-3.0774572528688124
-0.2825760793741998,1.0633270326226945,-0.2880468630815478,-1.8887393759672466,1.7477198574454935,-0.02273349942161418
-1.390449506482106,-4.924986239106844,3.697571917157394,2.028825887452977,-2.680027634350113,-3.2949086919023896
3.7685346598109417,-0.2745595949488066,3.493881829379251,3.3775303759006055,-3.1874392958273674,-2.3700052714728335
-22.431668829421387,7.484739550855211,-3.652446150463357,8.037165831732871,4.671695939440763,-0.025732270882413418
-4.520052719133736,-1.4671464801284873,1.0557907334049657,2.3751625304550816,-1.3880666945949958,2.50560027226732
-5.74663560780187,-9.221823201959555,4.5714600236130165,-0.41891764134681175,0.3848225599518047,1.7006860273994422
-6.387484126146272,-8.3237036268946,2.1812019566493186,-0.17745436333081582,2.777687781169503,2.682092335125476
-18.756056720192134,-14.310648674406783,7.003918848517808,-1.6807763774684632,10.704181876040238,9.216043278886854
19.091491598357116,1.4918732062091076,-2.021540954946825,-4.43093295853861,-7.743534113371824,-2.247041068449935
2.8938165112820284,3.301872211277777,-4.9813608320519895,-4.332728938294294,1.6102014002799931,-4.273319265333298
-3.333322589591478,1.4820866099269367,-2.1295367000456333,-2.0083216610096666,5.26839048774033,-2.00493878128632
-0.9958276695572077,1.1909000579788496,-2.1218659386346443,-1.327647724706448,5.8506306382723245,-4.406785102632183
2.2366151393128275,5.946766438721861,-15.023118634629606,-7.347935379664057,1.706484470250461,-1.791629223021983
-8.607967964323993,-1.5393551977078381,4.169925731171702,3.5563805145560843,3.9233672925369567,-1.9387438150681187
1.0749470708798583,-1.7208036295752884,6.626746866843998,0.06856680433420301,-2.1215352395017772,-0.6281777424610355
2.569700492518157,-5.190331201258667,3.744847790507094,-1.3344025629788505,1.1071652820663325,-1.1116448201670273
4.060120242071772,-0.9046825499983675,6.161841464576607,0.26057294867074043,-3.807051013462212,-1.0604095646704677
-4.469051102174184,-18.63358176329571,0.9350359486935789,-6.7308642938548875,-19.09697066497065,14.226809489366183
8.55272098764043,2.3377936491838227,1.3801608291542253,-1.063961158618348,-1.5564069769771103,-1.2881145007173582
1.414553143915553,3.6847052561212927,1.6610207381219801,1.7536033765253671,-0.12243004262996932,-0.5804279849224752
-5.01755241878521,-3.536934375964111,2.4450283653045344,1.4172644296412549,-0.2226742619902545,-1.1156221187744861
-5.408405535162426,3.1415913130686173,3.4912098024767824,3.5677274727142665,2.7884763854453047,-2.419859193765688
-11.48728745281126,1.448251199097397,-16.063747395444782,-0.2521984671133931,4.983606431082528,-3.140857678721582
-7.413159720180712,-2.956047978805382,1.3658119931280737,1.2748411545365403,1.3372729834485608,-1.792880803543182
-8.29861467562769,-7.977584774721008,2.9815639944129706,1.0372573299527539,2.2956933180929013,-0.08539158667958308
-1.6566502548087816,-2.4940387855225925,-0.7702132458401652,0.9268944827380712,6.686446598459563,-4.649150234023846
-5.541220598831652,-4.8642101681734164,1.8961351668215138,0.7602420171081152,11.615122170687796,-4.4121297778435675
20.14003799533707,0.41213514940327656,-0.7487186354674946,-2.970719594313979,-16.18489064539445,9.221162024785109
7.319370854571155,4.892609309038044,-3.66088996850051,0.5856569955676199,0.8619866843163336,-0.2905474682475758
4.061328830448396,0.528981178072333,-0.5688867811491347,-1.2055280864216276,0.5431867429639473,0.17427239767447378
2.742303577691923,1.7678314220332596,2.13372833875689,0.13620988961000025,1.1071668464312583,-0.05630905143591791
2.7655126195578195,-1.425812375984822,8.043760356086613,-5.607895694942554,1.1187587463487443,3.376109851740299
-8.771087712781354,-4.145945322398326,-4.0377662519936806,2.905860456000187,-0.6582571853348014,-3.665679613326173
-0.058534434779551336,-3.5949732470885145,2.5154196710617787,-0.30480270720340574,-4.4934377994099455,1.3105449585357074
-5.043188062806588,-6.495373084563836,4.232110047921273,-1.70529305894498,-2.1696012841646564,1.2901581125505923
-5.745868411789195,-4.173853084908185,4.34730864892973,-1.2365402571874184,-3.3228478788826123,0.13181521642761618
-22.598007940273025,-10.857113572302215,3.4175646798492365,-2.623367301238457,0.5305092518938066,-0.8305139649555979
12.07057005518594,4.853456807308251,-1.1648863007205148,0.4374347280898504,-2.7435741184686955,2.0087978515660314
2.8869182433043568,1.52212394569837,-1.5802165318379071,0.5517469113421888,2.3555431896864363,-1.8519186449937104
0.5761056944796801,2.706743182753053,-3.6347215196212357,1.3519553499123607,-0.9568570858488161,-1.7153254823212296
2.572575627070938,-2.2046348948534873,-2.569413237107257,0.8973443498921408,3.416579443556007,-3.335541205552708
5.311981840767459,0.2639105538977249,-8.164543216848308,-0.2376304303466822,3.7927066307982025,-1.5054155367304312
-4.054834111841333,-2.931217229174967,-0.7633910493816681,0.9915845276692608,1.6800510814837466,-3.1375162056229935
2.689461795226891,-2.916645244233939,0.8747256971255617,0.06113995634694497,0.6783976590969627,-0.5328981411413446
2.2240412300389725,-0.370145419534583,-0.4510209556600866,1.085864993772382,3.0023987467100417,-1.78563790432225
5.070296470621339,-1.5963256099461836,2.259410044939581,0.5517853721175364,3.239349681809576,0.8813205542952168
-12.293063204910446,-5.078085944287528,1.379307501278626,-3.8821119954283887,-8.66723183966516,6.420662272528832
5.843241125575553,2.7362010270454515,-1.2799135743622743,1.1592952073946687,-1.3470837754237772,1.2164333232269553
1.5561926162749138,-1.201661678307128,1.7672722987961644,0.6689996821732489,-0.8834221816061532,0.03160561587291755
-0.419878193320751,-2.4219087675569004,2.327145409600305,0.6234185170641761,-1.5745627148005763,1.9398647629635337
-2.8048862916034767,-4.1106174292417075,5.979275885402116,-0.02834057724654626,0.15583091082446937,1.0866402558560657
-0.8595063269586294,0.7178574550099655,-7.104917980145433,0.9694897804404079,-0.7864817875516346,-3.7352350381317545
-5.327459306461235,-2.7703737208993835,0.051307791828723914,-0.3708298735828453,-1.8733856190161733,0.010657268220831628
-6.020017080031152,-4.569624064547051,2.4302049644246084,-1.1126034256067805,-1.233410076114635,0.08965804853397863
-1.481512965224336,-1.9079161221144127,0.07113672184390196,-0.12394188924289185,0.5139621514937602,-1.9744965458647712
-0.4188287693988937,-2.165651536693365,1.4474849555601998,0.15047276848222785,5.358016048948672,-1.9351804684827907
2.330476081085498,3.3130130380008955,-2.852249163956789,0.23010817605731593,-3.9873071531586435,2.177802687694535
6.602775107185205,2.1235775241978883,-2.927990462053443,0.8254777079824144,-0.8079959692755231,-0.618035725397273
5.308587214527319,1.5506682475205704,-2.5809565836362593,1.4247954019073266,-0.7641393805959309,-1.6820688398171981
3.6823191109296576,1.8875952172700885,-1.490749555934343,0.7995598648349721,1.8436501811501977,-0.7358906227533473
1.6922670601549032,-2.7298195412593222,0.15953088858952813,-0.05036695784063986,1.7675022342433584,0.9573981700585916
-1.2673351298414668,-0.8240119034108537,-0.6218125882668403,0.4389139162955844,0.4032481920774861,-2.4029745646535074
-0.8907074523930003,-2.3978107314017,0.7983090808103088,-0.688803154404164,-0.1677943885944858,-0.16781496994068298
-5.666823200934566,-3.0305004150477175,0.5254821032106263,0.3058845287827915,0.7575294050539552,1.0064176410360353
-1.8967677462933565,-2.3645268290072647,0.8586502273169246,-0.02892638092558726,-0.6979529940766038,0.9940476555448441
-10.535258998707842,-6.537952806555747,0.786276165868732,-1.950839325585237,-0.3341217244866189,-0.007670241863927006
0.3529914036709325,-0.7723484748642034,0.4245051870148147,1.1084274715643967,-0.4687826067604849,1.0986287595351416
2.1957097153894227,-0.6873034054336044,1.5777683437884427,0.7352784248076493,-0.13248166452353394,-0.012351343369603751
2.983881523425472,0.04516204440429783,-0.7933395996071138,0.5674573451700891,-1.1723825204286757,-0.17494037614851232
1.1313402580653622,0.1507441938394033,0.04972280730723733,0.1778737526544718,0.8163367626447737,0.12362723892666679
5.667756657514801,1.3116585914250671,-2.9898223073054226,0.25973202243781823,-2.3499255378889083,-1.5597474918827532
0.3069505087548269,-1.7554188197101093,-0.3146082070062029,-0.5421081844264292,-0.33188277800981153,-1.0446733414119582
-0.4245818531742973,-2.1406368063736845,0.7583852016710477,-0.3880707578077302,0.2243531906096338,-0.015441432889980324
-0.41967744830558595,0.5557910441802563,0.04619415868115791,0.5479662707859123,-0.3556203431255203,-0.10399991896376026
3.969873804709603,1.1260155076604892,0.07622464248339635,0.19492128214194543,0.47383128117450546,0.6078783565812438
-8.138841107833507,-3.2537274025217506,-1.6773441935971083,-0.01887489930078856,0.22036433167363975,-0.5461195472204029
-0.92289155676727,0.4991191365667582,-0.7341926493298752,0.7868962794991567,-0.9715664855451334,1.0193799928773766
0.9650237185130801,0.2776397166529351,-0.2541343685702544,1.2370810549821596,-0.6070706312109831,-0.8690413666639366
-0.2725537516469666,-0.7241806790579998,-0.2275806903731377,0.609777997329037,0.6933317989185663,0.12425133255305781
-2.7227016958976984,-2.4707397742101436,-0.008624752746237196,-0.9612762574787885,2.4997219292753967,0.6358010327835202
3.0978059377957265,-0.483598373988812,-0.6142947204432225,0.6797948761744576,-1.73114894792804,-1.1941231277913986
-1.7338118621566787,-2.8374849393799484,-0.4357030728431026,-0.746100747422004,1.4164856562132937,-0.9650085892388354
-3.231328245503468,-2.425327928038979,-0.39423964297460007,-0.3792269334003124,1.327760378046136,-0.48944007344475693
-0.051818778382216574,-1.7238297902521877,0.9402042791002864,-0.6810814648703237,-0.007612659868134752,-0.3110896432015611
