Gx,Gy,Gz,Ax,Ay,Az
-4.196075000000002,6.951854000000001,-6.406680000000001,9.172,-343.41599999999994,-67.58
5.085919506782548,14.373473621746545,-2.6144035988309184,2.853488928511877,1.400411854539541,-1.291328004681429
-0.601079390602525,-3.906575010889649,-10.289154713527564,3.131419617275987,0.9877756821432949,-0.0983138732720903
7.282642391878066,10.331443767238612,-17.029758224442325,4.8125541665144125,2.651493180476769,-1.2562139252860365
-5.180499006977233,-7.214273233510738,16.263601366931837,-3.4348204938258258,0.43707083470544317,0.30408552133956573
-0.8461563275027916,6.243939963943407,4.119623315770445,2.0883918190008712,3.6545732822611683,0.5815271377580299
2.8199541554131806,11.004759144839264,0.7452990764463046,0.3895676275589115,4.270057944781062,0.7943323808819415
1.0267866813225854,1.9431767828020616,3.5835316423870713,-14.41805900406687,52.528067797829664,-21.746461304221373
1.6516958397464503,-0.5031595760304577,-8.563911774410045,6.775871072107132,-5.850204286413723,5.3969110148454185
-2.2961569125492076,6.068750525094544,0.5252882419136353,4.636221302180681,-3.765893977985901,2.691100695246494
-5.183119664145547,23.155077228680586,-7.074837347884464,10.784731980383087,-8.224244362783725,1.6193391960437284
9.959107308784162,-58.75206472949304,15.738684836104122,-21.90287985230926,1.0489204833291854,3.51252214928284
8.18197766911516,-4.3688627369823845,0.3517607787752335,-2.7235600557391777,-1.013178761498843,2.9566128142231802
11.90453637636172,-16.57435283702971,-4.164036208556869,-0.15633360131838905,-1.2689236480576955,3.271196196459473
35.74227400224508,-18.513944051658143,-21.70602913759173,14.896711705049105,-5.367597082630313,27.18960127159797
-13.95834193853512,9.272494006716673,7.241497683140239,-14.806007217145776,-0.3702270888985466,-9.81096081624198
-6.884841166439681,-6.692278923219902,3.654390000951442,-5.083541062973415,1.4461681965159374,-4.446375086845987
-9.29457053944858,-4.744012853934203,4.060468261780944,-5.01403014603825,3.938034853692432,0.09814498144300599
-13.183670732314349,20.502556170769793,-1.0065200832791223,7.516971912837868,-6.076224276380724,-10.413474204163645
-3.952036978025333,-1.8585639825163278,1.8297728240445212,-0.6885355454362662,-4.8953924682628704,-5.331377450804261
-20.342662879698096,17.409820366635305,1.8276355406830425,-2.8589976174532317,0.5249086496552845,-5.14901105728826
-26.665542582666365,18.675110789922705,5.1442868371235635,-12.93572232460518,-15.164051566015669,-17.59095523719031
17.105020273138265,-14.258394489298626,1.994965411868925,12.251660502882189,11.345189622061444,5.7718526910925325
2.6441928710774087,0.7445666017815059,-2.2664805477628107,4.848351241645886,3.793947997654711,2.276180844389917
8.289269593303302,-0.5621060662004218,1.1390151271499067,5.151313809477788,-2.6225995222138243,1.1562131914251057
-5.4339700942983455,7.72470429380744,-3.2422732264050707,-0.3250526023168483,10.473882728121968,7.259025920979193
9.186980070771192,2.853680867469568,-1.5225453433165592,4.413202849068028,1.0375598242826685,5.089437955089418
15.06825832259268,-6.463062187516337,-2.056063103706955,3.3131589058240207,-2.4564956820036965,4.609761208955436
28.312418706305156,4.81727538338892,-7.709991469265645,3.551347043824504,13.06385707380307,4.712277578186943
-23.193685584398672,-5.211308314853295,0.13336981863787845,-5.131079084104763,-21.504486390679993,-3.144763696224146
-5.037394259072538,-5.341956571934947,-1.147462278012453,-0.8243928847287314,-5.35826807311551,-2.3138579270195594
-8.322809173194425,-6.425868475998174,1.1081620744780396,-2.5692616185702137,3.333249618869801,-0.5674761169587856
7.852330793680933,-20.440980425612203,8.526483523791322,6.0186557035547965,-10.329938921256623,-7.533014621872795
-20.731300353786636,-0.68534865767402,1.8338630674342755,-4.29280484672678,6.120556162530913,-3.7735706559436197
-7.043823097658331,2.9939432088614493,2.0686612785786207,-2.033555876368271,0.712317527204688,-1.6067139810101567
-11.466397699400579,-5.166246687025203,-1.5777754954595786,-1.3510774077125052,-12.842909674524618,0.8512755919797188
14.936072817729555,-3.6147793236819656,6.350534338853285,-1.4126536013160962,16.217850930069428,2.8411131729332793
6.797777262704972,-0.2705546115492081,1.0513309979338963,-0.5462800373388547,2.715826041061572,0.3576375430427069
-0.9454182006053765,4.074755755388467,2.0640726678400076,0.9389237409614398,3.5568355802972142,-0.3219465614214251
-14.459709808966366,3.9769754910824076,0.5804071813553944,-6.143143010823573,11.742615848638735,4.891344054539945
11.209813299231216,-4.963339767458255,1.4004791806821915,4.05107476285894,-0.07809367846104515,0.005691471291614278
2.0530394154202263,-7.371645249499285,2.3001751336390743,1.5306920735802794,2.5597380712621876,0.5289838471934949
4.58895996424298,-0.18630622666545543,4.385814930758658,0.15579180942934404,-1.2383977675504902,1.2396400013869733
-6.997325999244873,4.119564272260186,-4.767333041833685,0.294311567546352,-3.788152304153372,-5.138269791289027
-0.06526763830012206,0.24385669479623162,-2.801759865658605,0.5642180796820053,-4.4352898001821295,-1.041087741529885
4.563897495872786,-1.3475753764965637,-3.6127956718341316,1.260925975290801,-5.0090936842037195,-0.06110748122169907
2.425724128619162,2.7714126701546937,-0.48825436291696395,4.252631094122734,-1.6803716760767977,-5.342677280200499
0.26402389893326106,2.1532252294501446,-2.308022644989914,-2.4946637562767506,-0.20371992947370388,0.6985217672956494
-0.5389566140156676,1.7711807659757655,-0.3670578098430097,-1.3715674508044846,0.47089716957231453,0.9750960979369527
-4.015863317420067,-2.674642607764323,1.4581705138158827,-1.7094576825028938,5.532729657448803,0.9264744281974407
0.9093406666845775,-3.8604604641411457,-1.2468377017887278,-1.2164625932742816,-2.8455661621932915,3.293584675801755
-0.16367188528738474,-4.438019844411903,0.7754413676844076,-0.21584282926585963,1.332703291106237,1.5376722136962697
-1.062007261575515,0.06366780610055034,-0.4141228255843794,0.01596609897675183,0.672173735305051,0.7330617503910795
5.409118523734918,0.6631423064573664,-2.5959974146251477,-0.43103556523315817,-1.2736198943128072,3.1548520727854186
-8.527280116690061,-3.5939392106412438,-0.043798825838044175,2.3279686102627197,1.1117014559278653,-1.9407329957697637
0.1948378111653541,-0.8329538968172714,-0.08214285425489373,0.7125503292674428,-0.07425590956327155,-1.0329781479346274
2.092816800507944,0.11210687316073091,-0.3682556729779511,1.122944091169153,-2.1347968502960253,0.23101583528170305
-2.9338552263671764,4.880208807822574,1.348223757584309,1.0999735995278122,2.017890306517024,-4.1844656607419
-2.400959339977737,1.9908413122706505,-0.0648195212336211,-0.09344276917232248,0.18165123156003626,-0.42402554628622335
-1.365376200710815,-0.9286362502540783,0.3044869922562651,-0.319749784326838,0.26046233911811423,-0.6541442798604398
-1.3849516052748916,-2.759039848498637,0.39407397587668636,0.18189198584399802,-0.35784551251927377,0.27500975211505063
-0.11164071537374931,1.7083209543619873,-0.6337066937434993,-0.9125626277762562,-0.03269542359341723,1.010845198820094
-0.09388608135307272,-0.29916895859617615,0.19565084245284858,-0.5151195127444305,0.4362198015933275,0.7813560351099378
1.4760113012512055,-2.7618121391271613,0.2759328013785526,-0.7373469631823137,0.3849164960481487,0.6567380781885677
0.14694410760915222,-2.379489969182699,-0.690238780274848,-0.38016801739537764,-2.7173326168387955,4.030287793999949
3.040123345349772,-2.651385025124001,1.2311116100690112,-0.8265751712863273,-0.16136850686102638,0.7401707618161038
0.9337493096893307,-1.2873096902220196,0.020390252185730387,-0.4447148936350556,0.6603832035379453,0.23377050162890523
0.3080537557903046,-0.1344720046106067,0.09396306742034938,0.11731399611633725,0.6994153308346378,-1.3472777863908738
-0.8431029047403211,-3.1822069016560506,0.9653800464612877,0.04261071912853809,1.5478644249938642,-0.6233871460491567
-1.6638832309797087,-1.6425448167486563,-0.6104135282925134,0.47516185107828524,0.35224523611217873,-0.8187132477410085
-1.996934042008703,-0.5979793730872189,0.12280638822748896,1.0043625030906544,0.8632524619692159,-1.2792345678586856
2.621326728390092,-1.9696490074824742,0.7768725570975548,-0.36728846949853633,1.679163502381206,-0.18339020302014875
-0.6101161030456899,1.0700002113380254,0.13614983803279446,0.37847127393000035,0.19018237289379902,-1.0183633284849969
-1.0024003607836751,0.012378981104923803,0.20469446854254636,0.16855003527537635,-0.3178021913507524,-0.6470464952446743
-0.07999101146491606,-0.9452627729357505,-0.13610242972106346,-0.5890041482191828,-0.29778746416958113,0.7726593516019882
-0.17166076590834278,1.0704379323363078,0.712282047660798,0.3746337735817051,-1.6477976133298238,0.5979829342417925
1.256515080450212,0.2864961213161555,0.07845842607823175,-0.38714787382728005,-0.7301126164842782,0.42963841770779054
-0.9668675419098718,-0.3752153343764294,-0.9893181354091614,0.05591833544725944,-0.920653932714522,0.3580174744378871
-1.7348103453454478,0.8552292798405073,-0.25853996139348734,0.4425146436072263,0.2990906723824672,-0.6501794585985589
-0.3562463621907995,-0.83395972422333,-0.8005518246192844,-0.014729531885495382,-0.2793908161941791,0.9297471264316273
2.1665451959284256,-0.7082143007341237,-0.33293417415636406,0.0046075403915121285,0.11146143584012032,0.10970873904138971
0.344089991420144,-1.6307943983655429,0.6641057224158232,-0.21450282554690359,0.6344201799956284,-0.6879518777547797
1.8404817311430235,-1.0348350061555827,-0.3871542757522464,-0.1584627688334337,0.3406456456461344,-0.3914312902655482
-1.3760923294811769,-3.118514727819483,-0.417239143477088,-0.15612308556409696,0.7520792674675011,-0.21259827526212538
0.026789183417814284,-1.235766415353285,0.31750247223279016,-0.3944888796955714,0.5282012928094179,-0.4580452127078192
-0.0010807025340989485,-0.786187122071051,0.6136098542358251,-0.08016037577347274,-0.8653823504059267,0.7250908007654251
1.1389723281693462,-0.9809411703046105,-0.17253699712606618,0.32722796422969547,-0.023651179560615784,-0.6566708221413347
-1.7555128887481053,0.23767899321764144,-0.6390754885397537,0.028172623345061994,0.3036642565878776,0.01797628289211886
