Gx,Gy,Gz,Ax,Ay,Az
-10.550579000000006,12.386573000000002,-0.6538950000000004,-4.1599999999999975,-427.486,-21.19
-5.427931452557291,14.372909752125029,-0.4822961523603431,0.0795803190041795,2.9170726634541806,4.449365833132233
0.2718889667124707,5.1908060525182576,-3.8546001009545265,0.10308810657296813,2.1316644944431915,2.2649296539795287
8.451996557275335,17.154518324971832,-5.943054261475395,0.3785604288850499,2.3912249024823895,2.290926151897573
6.606034195256047,22.403033045871222,-9.107488339896586,0.6354704360425025,2.5445856571285694,3.7710895672468165
-26.360786040336798,-51.132453862051264,38.69387951317058,-8.401828797384765,1.8479649178929638,2.047393369228019
8.495930321672157,-2.84134699929705,7.2811352253047446,-2.6489144672827205,2.8424170793486527,4.2594266047599
6.083266184331771,-4.479770089682423,5.846624082978969,-0.014125016238689447,2.5123397438644655,5.622871850557873
10.865325708333815,13.28434336702272,5.497652019714506,0.4290754689851296,2.8388662008421575,10.47231263819949
21.44113304520896,10.09284718551564,4.718335920777399,3.3653755761323567,12.44967101698171,24.73127947577336
-43.65406875331584,-0.06507827666753485,2.780945621088667,-5.896573183199479,-6.642789513855398,-32.046549276193666
-9.422191554067487,-7.3884123804685045,4.374031022136184,-1.767117026161493,3.279805498820571,-7.295310202794247
-6.029603405779511,-3.6783521517372195,9.406267444222118,-4.910087537814189,4.234822866605186,-4.721080651050484
-9.484916100024115,3.320105817717077,14.928783243149596,-9.490324486861734,0.9493760094356865,-4.97185881874233
-11.913596136659512,-10.216563169649524,36.444217068397315,-30.573067996737876,3.946110937217528,-9.367655340362358
9.080595113985927,-11.52328540038901,-24.918153910503072,18.96188193265911,0.5247291863448028,4.81128509200794
3.8451163761351976,-8.828435270522807,-8.622245639603147,5.128665305146535,4.899860439583891,-1.224068881141535
0.663339814740245,-0.6056861527153075,-3.756149714487326,3.8681321957578434,2.2286931704595423,1.0248598355927327
2.4104320908406605,-4.19463308825088,-1.3767504717931494,4.011643926755498,-0.019991764241541254,4.675772690734471
14.358610018653604,-2.9529675245714184,1.1435244623645549,7.646345095051414,5.724401215380128,34.79096511872734
-3.5316025418628736,-0.8399159843242981,-1.9647826263205759,-1.788989165412706,-3.480066884791794,-10.467384863031741
-2.359893361195729,7.349042495112465,-6.805177883446584,-8.785688292078532,3.2931066528625,-1.9429413629869623
1.20816262548263,2.335273514164684,-4.256567231966103,-3.3418524569526857,0.8772495186055989,0.1627985079010669
-2.219870763101661,3.6014394020179594,1.1787360318515543,2.773704311951671,2.743793565429247,1.0101061809608116
11.945691779177038,26.46491756624165,6.288101882818539,41.7595808890285,3.137667995307756,3.3760525030238098
4.927224960871844,-8.81902166673104,-2.3599582831712684,-1.3249435201540722,1.5467382992851404,2.899451282895806
-4.02029307964302,-0.05723905112835803,-3.4522360870169266,2.48184843527976,3.405929004415456,-0.5492257325232341
3.4093499736563397,-3.6089197751690856,1.305821823190344,0.1567064793674514,7.004615033712598,5.4842923640679935
-0.3758378489544918,-0.608385155221022,-0.26896991531724423,4.394174714275966,8.75824723419444,3.348192996818262
-22.433040713487234,5.915114422801738,1.3447394899480365,3.067451758141221,-20.1920000447336,-10.575567882635697
1.7667670086483092,-11.866823112551174,0.8473303045711731,0.6478478279247255,-4.151923805447708,-2.8230641648749693
-13.053508117249914,1.249605949561476,3.4992648480582935,5.090905942512483,1.976429366272964,-2.86043292457957
-5.470671693150632,-4.519991355609974,8.224366553079367,3.8957391303107127,1.7323536561606343,-0.04628468376722855
-22.394976001846118,-10.034809307345089,17.55044603675084,10.13708616622611,8.279915387142818,-1.160239593835092
19.385092306764157,10.260500736793384,-18.655126093740378,-9.00107162311743,-6.713812395342454,-0.9678537439617572
3.533741372771674,-0.537774796142374,-0.7390730375283766,-0.04833312624368735,1.569377489403699,0.7451541262417007
-3.1407992560217624,2.4312928924608803,-1.1606762667354402,0.6952987101129271,-1.861741975646498,-0.10551574692491615
8.654121312042589,-3.943187204480696,-1.8357216398456089,-4.632169711495379,-4.25826915770886,3.8715574073979724
8.863818131416195,-13.11727595855641,-2.8311508579297295,-4.765175360264948,6.287115134186405,15.378078416466277
-11.620362954212137,8.771059818581882,-2.2255854853411323,-1.5440384431509833,-1.0211953663481528,-8.57577815583686
-6.186149945084679,5.265819627060372,-4.804974041253466,-1.2781184083310344,4.476108560353393,1.1989941626957328
-7.15698605427759,2.8211586270865805,-2.329427259239589,-0.8037223797204113,2.262921100360006,-1.5843722331899524
0.6512000130712752,-1.3424556034754107,-3.1614030767555645,0.48846154918594564,0.08087951860232268,0.6945104522996643
12.593285382918133,-13.973971243038156,14.454850982405475,11.861875235993288,-3.9931437970341426,-0.3756050768889563
-2.1761180410021197,3.4771639517467334,-6.599987773558287,-2.6978634173064924,2.9526169269096925,-1.4297708174088122
-6.58125563433861,0.48019191987693444,-2.006769452851087,0.32531372197561775,4.994339708975913,-1.470851765851553
-4.579843754552001,0.9758794888187136,0.9006171295763967,2.909387421406228,7.689103508059033,-1.9709454459831122
-7.435600930024222,0.6633814853709492,0.1777348978042252,-0.6322526396754143,3.989848474277786,-2.1897356924994305
37.08900583477134,-4.574789757733601,-7.165193644271046,-3.395502840431192,-29.118335000161068,6.804444623804596
-7.481469225632951,2.3143839748445227,-1.6303109018330937,1.337239991869938,4.72317355646668,-3.966292089720114
-2.896544406399482,0.9115791950185801,0.061931119421008596,1.8637765839918723,-0.8722349938652307,0.3614785968468873
-4.987365210023076,0.3590658847440564,-0.7771614065156872,3.4152007603669836,2.994159565127577,-2.8026166121357043
-1.933300826655058,1.6533252036295059,-1.4285926427995137,3.550536309785281,-0.6283083921199044,-0.9757882579498567
7.167430122687176,-4.187187055368506,4.510516754826402,-6.317884625284977,-3.9864656592870196,3.0871923640831476
4.732557597830489,1.679829692236101,-2.9412800231857625,0.5160531949827343,-0.9829986612453538,-0.5495906430752494
-1.5376910561736494,-1.2985465180122064,-0.6913847485065286,-2.2411811265389034,-2.9758686690719918,-0.039325155722367854
-0.03678883643143205,-2.4698765223284562,-0.06756740604387074,-0.7007061152177408,-5.106877952952659,-0.2999905364377228
-9.895079017026877,-3.214652459185255,0.15003428524407234,-1.1455431045894187,-1.9177100071220847,-1.2376765499539937
12.671633369635254,2.7361670966675784,0.012086369634358357,-1.5284548186382763,-1.9221725307811939,2.5748262466625693
-0.16690660714026684,3.2802143565345876,-2.6445452205487907,-1.0770719535122046,2.973144704008339,-1.735961745952192
0.49845713268802466,-0.5470210979886966,0.3704890762287125,0.37339900386349156,-1.300626253840238,-0.09164972463284601
-2.9352536873676605,-0.002045144088994144,3.707623485418446,1.3570618330639337,1.3775795877854973,-0.06876863805606004
-4.850110322938849,-0.5051091255403324,7.634144363045417,3.4234686478781104,0.9789314929239339,-0.8703462484074872
2.909454547640381,-0.2830899043487052,-2.9299611529045855,-3.096950358876988,-0.8504390969034671,0.033928923973270436
-1.154423103209815,-0.607638790879245,-2.71763995080531,0.5632882169592104,3.6073161603198507,-1.9075796706921324
-2.6329735769719784,1.0771729635623954,-0.5347859592607913,1.075876548410096,2.828351101104265,-1.7775947431242654
3.8710276991087933,1.134343377186752,0.49037716382420904,-0.6535745945389215,-2.5193673703272834,0.4628417833014505
-4.379508152634929,-3.8850943792781347,2.574122958132241,-4.84855837647887,-8.979563854332975,7.117789242547133
2.1812190015896773,1.5895498423868903,-1.4500622714240377,1.4235326605637784,1.9972547097687663,-1.758188755916692
-2.219368301350847,2.087705749672123,-0.5392815238630249,0.9908314708086309,0.9902534752716389,0.9396675441541797
-3.4086827717549504,2.273770447768702,-1.946327926413182,1.0284269396164216,1.8995169401881102,-0.4512171747850121
-2.390057252398417,2.7617388812355186,-1.7289464949616997,0.2761147620821292,1.0020749524940942,1.246359244507968
5.398774782695303,-6.764637770642264,7.25945767856992,-1.6639810802733357,-3.634122610406513,-0.17465992410571152
2.286828739348743,0.9082642341759785,-1.064168716189329,-0.02761848933360697,-0.4022690498190584,0.41404709136694384
-3.527943939699589,-1.014118741552808,-0.808378275128346,-0.8467694705610808,-0.5918126594591979,-0.11343620435121982
-4.899278598844499,-2.0693931185633465,0.3115200936484037,-0.6387114083005507,1.298145552581715,-1.7417940432664532
-4.1859417013914495,0.18102440850835183,-0.8435351015741434,-0.09095898552215587,3.707269550310815,-2.3700023825235856
8.409085817080832,2.1449333797833923,4.7414547055607095,-1.8683334419263233,-5.79079138595239,4.101573590049066
0.09070477148430658,1.0944978289945249,0.5824027959577771,-0.39084472741913434,1.7908165712851407,-0.575125619725058
-2.3838845781865956,-0.1980555499402217,0.6544875168358334,0.2077353847476274,-0.980978849204778,0.98382574088606
-2.1700168628975427,0.21407652208895883,3.082025275311851,1.1903769896394738,2.13178593915034,-0.808511792398311
-5.764305179135347,1.6484304104122467,2.2764639758810508,2.2445215197751347,3.9041756707084865,0.03860545009378047
4.023192245805429,-0.6739255143593704,-0.4648037520140912,-1.9822483305687675,-2.4673881535337046,0.7424694393622818
0.47007938098887025,0.784354029960642,-0.6600785696503689,-0.12585155154548472,2.362641401662213,-0.4754085561869274
0.277436711709936,0.2423827575463589,0.15008036618945733,-0.24736947640787968,-0.14414998010288166,0.1748078624540532
0.6281247522907557,-0.13107140022123798,0.8528554648695039,-1.0256257508285063,-2.8933249319949783,0.6306736230595038
-3.2467474528284592,-0.36272934488020847,-1.2536836557581912,-1.4619086907431285,-3.928133676512886,1.2320049989051163
-0.6481145371001213,-0.008507700140429418,0.22352971691810752,0.25072095299042185,2.4177750518073555,0.6527930431824721
-0.6208599048969216,1.3098581116495092,-0.4464004599005666,0.05906959305685089,1.3236499821877021,-0.15825087425547696
-1.169878807515784,-0.24939193857767455,-0.7845115121363725,-0.3907234616440707,1.1281435138562181,0.7997674262187799
-0.6625061564097777,-0.4797597744800186,0.39903141844937673,-0.3824094195751738,-0.5082552297069128,0.8237978434657184
2.398639465890083,-0.5717125214658082,3.593144393193337,-0.8799966246175097,-4.029790514040058,-1.1126822262076748
0.40756445365275135,0.7050355834441309,-0.31273992418449537,-0.01838002654979924,-0.25625644000674075,0.824091596873732
-2.2808038303193343,0.20891265127130187,-0.4549400849683472,-0.4527572096518787,0.09069586230258694,-0.6510977519974877
0.29380398840011174,0.5775280926725541,0.5420547146513786,-0.3283893321320955,-0.5514554105844087,-0.41461590537495385
1.3340269822369328,0.40044641236240125,0.8884331416435709,-0.33547517435540575,0.769096058595591,-0.33182166292829707
-1.43580710874987,0.7476558579842218,0.8408439253244524,-0.454632720633416,-1.7478040410704312,1.1149883225438504
0.13212471706787632,-0.22951781797602372,0.3158173106608685,-0.4667007052993867,0.1594404936539494,0.7465527760955648
-0.9091746383465282,0.5285533786547741,0.5398656522830939,-0.0957007133606966,-1.3770782320317014,-0.005795816553548022
-1.4523254951842666,0.39695585836647285,0.9850644386935457,-0.1492791154953082,0.4053688928787429,-0.3264670972013401
-1.8724982369757357,1.1064873853827881,-0.12745264483975222,0.3850707186398359,0.2149090531085523,-0.17411533829123887
1.1216210452997333,-0.456281945852183,0.36085083839123333,-1.2820557785267068,0.414205027352107,0.48378227240133204
-0.31474970054851215,0.9903638567299107,0.44624276613590924,0.10324280705842609,1.0910183053655262,-0.40388555587708436
-0.9093852960162637,0.31965146323708515,0.36873881528879704,-0.7000773872462435,-0.7535955137530337,0.2680164435006571
0.013983914264373455,0.1653824225588273,-0.27335365450761173,-0.4949661861957492,-0.8645757601021168,-0.5887586041787022
-0.8944404961046679,0.6637579710618687,-0.5369286130949987,-0.2591271694557324,-0.6563372890912139,-0.7962673750142704
-1.234590129405239,0.33335493411530537,1.1955020838635813,0.4258397433209089,1.6565999096551998,0.8320474998324076
-0.017297041396100117,0.9448560923086049,-0.015530882298730037,0.24721601915838037,-0.33830365984358274,-0.18985504418202073
