Gx,Gy,Gz,Ax,Ay,Az
-18.171992000000003,-17.265303000000003,-9.615253999999997,7.047999999999998,-431.8860000000001,-22.026
-10.178972531686236,-7.358101069501179,-7.000092929879334,1.6404745639902352,-2.544838196923254,-2.4797085457335144
-6.244029085406717,-20.45850312710668,-3.7198969746609665,2.98906645134773,-3.054261799523347,-2.491234785725715
-0.1875750397488869,-20.267022414861305,-2.6597725354514363,3.0259170935961737,-2.3373088337663943,-0.4826392919314174
-8.317064971539338,-52.229150601984365,-7.182581896749874,7.809512645587039,-4.345860996055958,-1.7423990876377313
15.378007991616332,27.603735315953415,1.9089110268716993,-5.600076793835476,-1.218659251143228,1.359853437276589
0.562633227793156,13.775390855940707,-2.448226250518088,-2.3246468776364306,-1.644755602720581,0.7615537389868283
-3.306828251879624,10.391337949103237,-3.6630257357174996,2.5731046466077627,-4.377455120203975,0.47575850220349064
-0.32595769172913025,-0.5616929470328813,-3.122159794051895,-0.028177445700368065,-4.238429109927386,-0.8252992301995989
29.948956642217667,21.232906503274727,8.233510969364989,3.8320063715864174,78.04288212494804,-29.53103039157226
3.089847019184747,2.004020647983827,-6.268747028545874,1.6965878318934287,-0.19652331456312844,0.4328829852830216
0.929123031766915,-12.59331123292381,-10.137242697611981,2.443486476095265,-1.0446301019678348,-0.9857395097203969
5.187832521370806,-3.8190829583271704,-15.227908064429757,3.919460492627479,-1.1298180713414379,-1.7612735540791578
13.656467206253932,-30.83138899783026,-45.94386072670727,11.054743356346213,2.9334104668101357,-0.6304817577963606
-8.95068925336507,37.6745813936829,41.65190391374689,-10.597332274652233,2.6658201407449598,1.7428811011750187
-2.817266207266565,15.864998845010764,14.303594775534657,-2.6426891085751647,-0.811589170947137,1.2047420130910513
-3.755047317915647,9.191217294591144,8.63413397966995,-2.7155293257324007,1.965195591501705,-0.31128669788082425
-2.0639072504167855,-2.888223398930024,4.306723988995173,-1.1282018609707611,0.06780591001209402,1.4762442967419909
17.563780877201093,-10.551368998392343,10.60161561249073,-1.91865865801479,-5.776538804202728,29.138422589533764
-1.0839892371995024,6.448161024602632,6.622499749373378,-2.445308764894951,1.7074162784184947,1.4411761509030354
-3.0048683430030856,1.8203173212522752,3.634320255146661,-2.1446209086347197,1.106135973671003,3.569924119352571
-4.611831890418571,-1.8516529464592582,6.295167358468986,-1.025075092485526,-0.8313470491976492,2.4307645881294038
-2.1381267656198037,-19.11337372559632,8.365268108917949,-15.520973653514519,-0.7222796032760341,3.018332669910997
8.278707381587559,15.447759729687581,-3.9306100811856197,14.207745261599422,-0.9130403331233024,0.5309946265870623
1.8215602388996497,7.343714428428234,0.5230234615061433,7.642624413798459,-1.1256101531292266,0.46712077631808646
1.4491971954173382,5.705100428649346,0.9287027779161281,5.516132120516149,-0.249805902177751,1.8325447039693898
-0.7374316569759614,5.716594262625611,-0.7541466162478745,5.737545525695887,1.337549872020895,1.166081364206099
-2.8116413204715567,19.074122777859216,-1.3939096778686664,6.881234199565927,-2.4856084507119887,-12.717694388878115
5.334498299299717,-0.9513028959697456,0.44472260130416297,-1.1302541776668562,0.3079212878981695,-0.2932503886699991
2.257054113500663,4.384600313607891,-0.4087300443387045,-0.024950649900905342,-0.027526156530536805,-2.481891418202947
-0.6998640811980201,2.700548827588884,-0.5676125792528957,1.3122612866390937,0.5087721878291678,0.31856273577054006
-0.9663846584710645,-0.6385539562121729,-5.769263810500334,0.6665781046701127,4.733366789965389,1.8617229250729226
2.593026714271137,-3.8406424694888166,3.310788331311392,0.12567448691251593,-6.605486377027194,-2.1914953990559667
0.08103653157050217,-3.2198808602948574,2.486758048199143,-1.1721374186517912,-2.7116105056375472,-1.5451200386105173
-0.22688758951366123,0.5894229793896613,1.3197571975606361,0.6792919984588961,-2.329886611759484,-1.4007649708566638
1.3611438497437158,1.7328271501346972,1.3683725064097032,2.627069266428787,-3.6444456060684756,-0.369577864898075
-2.7430090732821792,-2.2053762783662796,3.152089238588239,-1.0033730317319358,0.5145867993268922,3.1613633907569536
0.08877040182328433,-1.0500131889281474,0.9729292005185441,1.5401582047452216,0.5028693662281742,-0.38409101461117123
1.7772615196424697,-1.1166727318343843,1.8543296922449066,2.7610080322597312,-4.075151404850048,1.350339150898208
4.793981170570947,-0.2256057357382033,2.969863587628391,1.6324192698002191,-3.473541488783464,0.6349764442438778
12.941589609259733,1.7839780377877288,3.4255486453721105,3.723675085581618,-5.61721573113981,0.6614185934571607
-14.146631905252416,-0.9719135495120427,-2.4237038272861846,-0.020789013950256896,5.671009718163452,-0.9711673559100303
-1.0760800323243669,-2.0373398541929095,-0.02659938943475426,0.20140592244383348,1.1756576916573511,-0.3260877202382475
-4.543389042562815,-0.34720711469058213,0.6486885137682497,0.45185977698407886,0.9839436443664438,0.3909630404117752
-1.9604976759493447,-0.4291029462048779,0.5684001014978735,0.9355450745388629,1.1839745879754662,0.40640858778855354
4.908160524375205,-2.3178607783423404,-1.4725285714594651,1.6320547159598329,1.739246777227851,5.521061237053665
0.6923837836135343,-0.08094544989287589,-0.3653486867641299,0.8072677222945843,-2.124243342677592,1.0738805394318658
0.1563907381435405,-2.0020269200029785,-0.06375677221306841,-0.40781669527416764,1.5821588471574946,-1.1617682723202325
-5.318627606177866,0.17406479230274163,0.021043880498601064,-0.10949408423838225,1.4538927119456293,0.3849521477207045
-11.787133274698881,-0.9313568746098811,0.03437840924072259,-2.388277811250406,4.745528546659553,1.0046779896212275
9.295530755598023,1.9434266273191032,1.6152751783483015,4.166795177441432,-2.991594962541235,2.164284261172421
0.6610621493739135,-0.15087498888039752,0.6613438425629012,0.5122894338730313,-0.48517839362978676,0.6751214868637154
5.472058328283472,-1.724022131138526,0.6700425161186029,0.3742821109005838,-2.8950039787992687,-0.4782698805795684
-1.4547557130974065,-1.6416591536547966,0.7818686865100404,0.7516235981177181,-0.6546541423155241,-0.34777252560781746
1.203581689852409,-0.15454224301570685,0.3567926603508136,1.751711942842325,-1.0827292765373624,-1.9137969656500844
0.5407860720738249,1.7270421892476644,0.17832257074246888,2.3667632192114945,0.5848124989459575,0.5699208457174336
-0.43848083702982255,0.05902502479218996,0.723439787484981,0.8189746785708365,-1.605856238486787,0.5372719062425181
8.381804404985928,-1.718915970311151,1.3246254792922214,1.2277054443392426,-4.563535000353341,-0.15475957520024664
12.30729014339246,-0.342249169801237,1.5315823420124532,1.086591441433414,-6.382065656650301,-0.6837483587809559
-8.836053649060617,-0.7517903125399276,-0.18213845997971023,0.7932396426985813,3.6266401021690577,-0.7008267371824577
-1.5491156227382263,0.7731626473867519,0.14427343162872042,1.6025651531368645,0.33620799925481215,1.5168414921753286
-3.4934223735144143,-0.4596889313646173,1.0261802236387165,1.0911218272073353,1.0389502237337442,0.4676288921955237
-0.06790010625727838,-0.9572644351124839,0.6581673129028196,1.464569116809284,-0.4824008987396482,0.5928929289289441
-0.49292193217740365,0.778108494788188,-0.7682790636949566,0.7811625500029901,0.8821935146050845,0.8684485905585099
-2.680323790046013,0.4700768909195671,0.3456692946968464,1.1737007249693348,0.8695657773805916,0.9224203869871047
-0.06003731935571088,0.4952243902016493,0.32876947552291874,1.2843120114520548,0.11510696145483953,-0.13076777458831496
-6.486997480041113,-0.21412463455920294,0.45014353753956216,-0.6735315606763236,2.303939734983084,-0.6477497582763121
-10.680387382935113,0.06508067596195868,0.47676123022667233,0.35312643607144967,5.845653103472305,-1.0105835980608835
5.676842981176396,-0.9257985770371815,-0.364934297771475,2.8096935474499545,-3.9506275931579116,2.1057630125875844
2.09408294883809,-0.36051048707806355,0.40347882879987274,2.39143585913569,-2.7004723794540553,0.3375482102633422
3.1182574721531244,0.020688248148294563,-0.9694000031037283,1.8108404198651828,-2.9169244150530105,0.5698609022188312
0.6364905000000012,-1.0093555000000016,-0.106518000000001,0.9079999999999996,-0.3240000000000002,-0.4720000000000001
-0.22978719865673536,-1.1306155040275296,2.62643183278741,1.7689939098129617,-2.1283620477662364,-0.6015641406005099
4.450226606269407,-1.4452210113912631,0.1344498306870176,1.7010836565166072,-2.5508408133878735,-0.05089048366322807
-0.5510616731988554,0.11038924844980805,-0.3289644403400032,2.1583853687446983,-0.7361428234919747,0.48301923640220007
5.261296943873217,-1.1061256225660183,0.8140975690960321,1.5348149800373874,-2.9608232768286586,0.8144619971884886
6.813527152140303,-1.126285684054623,0.16162680274992502,2.250105867452212,-6.258635501389369,0.5828985353717925
-4.637597733987052,-1.7530373511759545,0.6928751924254039,-0.6356479441297844,3.9950293507631964,-1.9611948581719971
-1.1399596119424098,0.4826521809288794,-0.5577627283379856,1.3722809979156527,1.826980825487034,0.3419892709278163
-2.410965822113808,0.4113056020478081,0.4403630158576062,1.407499741699878,1.4830143744105213,0.05249790965899925
0.1421702937487983,0.6167035148472819,0.07428219520952399,1.165068443636255,-1.5613212279036213,0.4134846948803743
3.76295998221553,-3.015444913208038,-0.2050176071954653,-0.5649739177517331,-1.0912008785489216,1.2525677894694025
-4.631543575625073,-0.3405637078753721,0.15051796638139137,0.8740323006193432,2.4555583606626867,-0.26662512875953204
-0.40615815269116995,0.30896258369522545,0.9566127843929018,0.8873380018006539,0.048011421804571075,0.08048553484452092
-4.611304099858133,-0.7451884659408587,0.6318816954088261,0.14269960081454058,2.7739216022438438,-0.5886301306746984
-3.58210529867169,-2.739533639676517,0.5419309728938948,-0.614636472494926,4.704282794212521,-1.336509219924642
3.014894935619579,0.061775684257904584,-0.03549312202017747,3.0475280991007763,-4.707813213192604,2.0239897563160354
0.6268412697674641,-1.0919148076243954,0.4424058471159285,1.3950886836227565,-1.676331001313165,0.1404930229146346
1.353511983012159,0.19287177638901748,0.057828318187589114,1.1294136301621192,-1.737818280834072,0.8133204984855816
0.5444734373640039,-0.2971835976136664,0.6991631611352328,0.9802548664407692,-0.1202603431402881,0.21699570218076625
-4.629540384782388,0.39241682736207106,-1.0458834038781541,2.9401188224757333,3.33216504482159,-1.8932751094254856
2.5749068034019955,-0.7219550176605167,0.40509122070165793,1.7298754626806228,-3.0350435098704773,1.4409097226220489
0.6727768663064837,-0.4259866429139828,-0.3348707239502162,2.4696829182687647,-1.0803939101414077,0.7683401446744222
2.4888039660986627,1.1351672215747173,0.044393003107217055,2.7978358377688766,-3.833429607883169,1.5976900678126442
2.5089532025189136,2.188005855318033,-0.4512909817576885,2.817921271799936,-5.2661278577697646,1.8870199156804586
-0.7055314709853653,-4.20703741641363,0.3572754145340614,-0.36739686157686813,3.3393312707015586,-2.1735521768911217
-0.21643198723688828,-1.1307198273156303,0.35051386402179663,1.3172647980694927,-0.3637616746858221,0.6321412490522642
0.14519340369311928,-0.9598524425867223,0.12936147500842182,1.6240533517756883,-0.17304590084046456,0.5680835716600489
0.2308823451363169,-0.2641810239855342,-0.09573008195880406,1.3800086763305526,-0.6271792452807046,-0.028379648725078366
0.7664305254287387,-0.48080901274781646,1.918232479904041,-0.5501297897998332,-4.857531860578048,1.014503905995165
-0.8228322479411727,-2.1884849326214937,0.3630571329867787,0.9256119849892318,1.8534430862089974,-0.822770608859425
-0.8861018743918241,0.2742916585316786,0.4149078785608686,1.0685688224679597,0.08672428304271107,0.27002949588494973
-0.9936925801636379,-1.9559230078980248,0.8182594347206845,0.631546157594566,1.5915516462298704,-0.6106807987707361
-0.8505451971310386,-2.8717477687732718,1.1314869717354674,-0.29688599764144674,3.261745464860095,-2.058796069254587
-1.371273054928781,1.1467775566408485,0.44365843132661825,2.2184330109133543,-3.7748606586210474,2.6148647570945682
-0.2204465355833211,-0.08850588357700775,-0.2185552859822265,1.0110633943127385,-0.19815502878309088,-0.07349426234045059
