Gx,Gy,Gz,Ax,Ay,Az
-13.082009,13.720773000000005,16.820445999999997,-17.455999999999996,-436.56999999999994,-8.901999999999996
-1.2426652937115337,14.080250279702295,3.8488852014810417,-2.7414246024696225,1.6014891818929657,-0.09166999168288789
-4.3058509243141785,-4.210363519277505,-0.7441865788471351,-6.451872833533631,1.6491378468700504,-2.8930945318439436
9.653864702182362,-21.313973537661564,-0.06809644392906314,0.11263099656606515,1.7799214442187934,-1.9367735914220383
39.6288595164622,-235.49573034393364,27.59038557882547,-11.681461720527247,4.816484271796547,6.398495296581243
-1.3062107226990038,34.307984604730706,-2.7648708421496444,0.2018562477716775,3.1709622326644755,0.39179842361735273
-2.611053342651946,15.620824460887325,-4.313695578461294,-1.4585865993646745,3.97073555809701,-2.5331573861303003
-3.9931913465907867,-1.2032395168454775,2.9334075122926184,0.714582495232025,7.993321998841808,0.8078954730796108
-3.4753922013325553,16.407125954053477,-3.7003910290394515,-1.1776851843652147,64.3407874456424,6.159531792750476
7.016856416297864,-8.292978869602745,3.4129088783772317,-1.4071279834793904,-11.52030256077606,-0.8353612135651574
3.9908610037331775,-6.820415125703564,5.758671030943562,-1.611906331413756,-2.7364854668652754,-2.119819228152436
-3.543507842744754,-15.849375291605654,15.399877856425292,-2.4253428443978615,-7.898205079328533,4.234381751115963
-1.4769241018736106,-73.62365162225183,79.86563202848005,-1.1223666990434156,-7.627615606506115,-2.6502262528741993
8.53964106486232,7.119715957755958,-28.109708199731497,-0.5703678384222624,-10.00494279169779,-0.45154686971959057
3.6753366638639022,1.8562784186528485,-16.574800079142516,5.35659450428366,-0.16024416299756233,-0.8781171250048943
2.0135556001146777,9.857500263367951,-12.390175235946373,3.2998967208473533,-8.192702629158338,-0.2160046973055556
11.754526777640486,-12.16313125551578,4.1719226917677625,-3.7727649998911685,-11.941501613162316,-13.056531023157394
-7.675707180407515,-3.1015664724162018,-8.865552984204937,3.9975451120388907,-0.15102603297008965,5.452272115706939
3.4661160553486337,3.6200024510918274,-3.372116736608981,0.1503475827378109,-1.6937723347995153,1.0348912392044551
-3.126140009934688,13.217378249222861,-14.27470531005941,-0.9399650375449515,-1.4888256350815992,-0.9073653208773065
10.970199359744022,-51.35402948103891,-22.982546926733527,-19.024412476789117,-6.538086213615098,-5.260037014644588
-6.845805998340487,39.58463850188862,13.71668982082862,21.958062557162734,12.39177856399016,7.231591245417265
-17.544948460206946,29.10197422932372,7.377345051820337,8.313707601033038,7.14843500321491,3.398269050712634
0.3600961056246512,15.643461530843304,4.375438260634078,-0.6044650284562874,9.866446554547199,6.41853021507084
-2.786998105502156,-2.4520297945891656,-8.385362497527293,6.866571975986997,21.254063071411657,16.117270652655584
11.716957275317256,-2.0050211109495946,10.196561495872338,4.495408370378206,-13.915607369492566,-11.854889155934682
-0.01659043271200944,-3.5110411902688092,5.288596225281709,-2.7273844396748954,-2.9358165846979523,-3.3556261931955818
8.46757022891548,-2.5895131198422288,8.870827867438605,3.110135252829292,-4.649637309967422,1.845093432780547
-1.2357361111695147,12.217630329130424,-8.76480150503219,18.471957880639614,2.5967096755405215,3.8877729737878317
13.16504570433141,-23.70641419975193,11.660903278233258,-30.454664353007637,-14.07852009954244,-10.955460668100098
0.8990084037717733,-8.693135682393136,3.8595275415803547,-15.02491963006606,-5.6892466118976905,-6.664935637929914
4.067534311416106,-6.058763678849262,-1.5796834959513624,-3.9380703167412925,-2.8451530256794717,-5.005815943873555
10.200375837317962,1.83087515341036,-0.3015893764905515,1.7962946060707377,-0.5542354949317483,-6.10026749864965
-19.834003035668218,-1.2425741004805466,-7.575707493391916,-1.7550357765175773,-2.7661528168652065,8.185078830060919
-2.6865280687251234,-4.1715582353558665,0.11621504636664404,-3.346376222206602,-0.7608704106065785,-0.28225173236340273
-8.648675506086589,4.08780903357885,-4.221204376466842,0.008497987693873221,2.351603268197529,-3.33441741199793
-6.488342597361244,4.899283705136199,2.6365846171206107,1.0956709476163546,6.874271027808042,1.3630391223786749
0.9039725287322042,-3.8681135438182297,-24.135278370273515,3.305006847637051,-7.0847688828563085,5.2000750175052515
5.250120435479319,-2.7062127527449014,-4.152207800980104,-0.8812163788447774,0.6354742645743343,4.100131602519824
-1.1322214600575125,0.1439931109049002,5.976728406628198,-0.3712059863883318,-3.716971576797744,2.26493095224966
-4.063517263289016,4.5525776072847775,1.6526356958219501,1.9691280671779219,-4.671674274906227,1.5875300608761076
15.473634345021757,-5.135645276427757,-1.0291360622246128,-5.603297448105978,18.030460195564594,-7.639036833048729
-0.07252375879662493,-1.9496365319097153,-1.4071921037433575,-1.7071776021404304,4.543767189926599,2.80382164324341
2.611677845282949,-4.299418935134589,6.27691621948008,-3.6287056763714474,-5.842460904030149,0.15896292695686642
3.3194487970175977,2.6415738031740714,-0.3933873081488582,1.4936100713524645,-6.810337514497858,0.04679254488478107
4.054995271166922,7.503677120747686,11.24106679753467,5.461470133065296,5.150849811913412,-6.434049897570875
-0.0371559149213152,5.276605674675079,-1.9979459133268933,2.2519117553312578,1.399560336567985,-0.5918453695027229
-2.7287891808504483,-1.7559336899468878,-3.928509283648648,-2.2108224223433486,-7.946411365581056,-1.8258508729511982
-4.290487538604612,0.1990692911163614,-3.841372460826092,-1.0135207699518447,-0.6707719861493258,0.7758990308479015
-9.914495485840538,4.235365516976583,-2.6007103482774725,-0.32707193831693304,-15.63610168399654,15.231877795141322
2.7681320604979645,3.7164476039316967,-0.992381484273668,3.0527238951108555,1.380165878835262,-2.0558873530930537
-5.8899750441300345,-2.093205931593388,1.4344775504125153,-0.6304965937825707,4.678121015359134,-1.2684035736793737
2.791772074772366,-3.8703299954334502,4.319152043516624,0.2349251530806274,4.160057229138832,-2.8075862771339555
-6.07198324978919,-1.60258203143787,-11.731822893411186,-9.616920382123446,1.4843764356036475,3.6661661569412454
1.9539039906445157,-1.8808759385502147,5.5485685346797915,2.9335825655362857,0.6777497893493432,-2.150769052589503
7.431315595987557,-3.3608245489242368,5.260726462129247,2.918889563715538,3.77959959688814,-1.7663141018029669
9.834800697949957,-4.042834775484809,2.7789280909456617,1.4863180047490818,-1.1326685562176713,-3.9768533968392377
3.448324025819135,-1.9798324207356712,-1.5143098281451386,-0.06747425018044495,8.528729542794915,-14.132687467930609
-1.6682816976749413,-3.9381906623596,2.3785235603040626,-0.9846689043480104,-5.000788014224803,4.925199540674384
5.557861313905385,1.1485618478812514,-1.451847245550056,1.0253763349484224,-1.5507014121436637,-0.35978603159375533
-2.872216935649519,-1.010685582725975,-2.002957068488178,-0.6501118890470232,-5.551815271237105,3.9848830727000024
2.107300527991946,-1.449025972390361,9.383503213166737,4.438751813718476,-1.90816703127504,0.29529018916955296
-4.0945378777964425,-0.8340753195140718,-5.459813362790106,-5.395063366934533,0.058088898652175924,1.306307009213345
-6.683918302037675,2.645942282257122,-2.631467185778161,-1.3865141157485283,-2.086120850744783,0.7714581053511038
-6.264195093424237,1.1685306301236114,-4.5224131684114255,-4.120178119906377,2.357591939465012,1.4519079643070985
-2.148905886711586,3.0316184876325973,-0.08955779137818146,0.8728962443250492,-1.6067219865104976,6.478656968351638
5.503269932143198,1.2830476686891128,-1.3484386280549938,0.30175965595535903,0.34692288441507424,-6.767167505748458
0.13449045900847678,4.880751665140803,-1.5001546912349935,0.2874197220596203,-3.5610624255384016,0.310475284021681
6.050592439478994,-1.5365361321053634,4.2990969228189275,-0.8338276384462971,2.4069508619582103,-4.327323421438981
-3.9969094310673783,-0.3132542089005038,-2.478075580270384,-1.1801863921086517,2.260432734841377,-0.8160721139355411
9.621017637882794,-2.1846832889731407,5.919003668669535,3.341389423176735,-1.5107086516745083,-0.055110650623042434
2.3285089789140963,-0.39087935032782906,2.2052030579708304,0.8488250316137483,-0.24189765188317736,1.1822034140765383
1.5724405450772379,-1.9137753257341434,4.301539550791638,1.5337635904755094,-1.0161336599066566,-1.1870922552575434
-1.297295872234441,-1.051851260623124,-0.8795769924524587,1.1668623754493568,-2.315778514417581,-1.4273899580279714
-4.567640998746867,0.38524762933689166,0.3803605114296822,-1.938812645134126,2.388170899704836,4.519789210137047
-1.3512366620067304,-0.8863631693613643,-1.8455800466421879,-0.14279531852201038,2.9304263977470053,-0.16973407364739923
0.5592997580201848,1.3147867472806567,0.3086287314730407,-0.3668464713069929,-5.597792423939532,0.9081069680938268
0.33177910111905895,-0.7937991193024326,0.4587998961899338,0.22822507271482417,-2.4594476312957494,0.9017579220001983
-8.48384130164376,5.219023042391887,-4.3804734352094945,0.584119933386043,0.791043611892952,-1.1948136022077647
-1.345167725806693,-0.049218470728178795,-2.816528521826978,0.5486559567315995,0.7952335916528037,-0.2711618001259676
1.9106090959114557,1.4302435335524073,-0.9896415439440274,-1.5999125842912276,-1.1879717865377937,-0.42248506888246506
-0.13335374417330725,-1.3400721302290874,2.784143240583873,-1.08652030298766,4.094231249588665,-0.26177313511911265
4.1142538112535405,-1.6427599933583756,0.8432495406244822,1.7497692074388091,-2.7397920260556994,-2.9122112447836903
0.836460823340746,-2.0642912290513893,0.6610559406317396,1.0631584313006457,0.1425561079353488,-1.089243276072843
1.5406262421974812,-1.1561170291021106,1.6905402239123626,-0.8190600884169397,1.3327160311352797,-1.4217236589852338
-3.122268045385913,-0.590026144711253,2.2264221430900735,-1.0328711798819883,3.5883709580901613,-0.5283347578173393
5.903201075501054,-1.283680249741486,3.110745447496148,-0.2221616091426714,-1.292460726976422,1.7225737502715799
-1.708729753551438,-0.6752878598930765,0.5379239140308694,-0.46091073003610517,0.3954945971358058,-0.881350897237319
-0.6131584207998768,-0.07671532414937379,0.7888973591676472,0.7223953818365411,-1.3501678907119403,0.3507826602658363
-0.3583889442557643,-0.8777698408375827,-0.049490533460135766,-0.14210641923303607,-1.7077902706375117,-0.5023569229603659
-2.7191896388627272,1.0984814190036614,-0.25355717993339943,-1.0215983481514248,1.2782282507907987,1.8501174605258845
-1.6223932811240083,1.1357101735689663,-0.18903286017811827,-0.8680077691059035,-0.24568184537196358,0.21618102768249425
2.7028149483012545,1.6112277691198336,-1.4463568409426586,1.1696121137863027,-3.1981317782705854,1.0482344375918209
3.3699789820955686,-1.0965325943114728,-0.7409677758063656,0.6394458381896014,-3.9402157695036975,-1.3849029907278103
-3.024827702863005,-0.2528905352141208,0.6089246099975731,0.4861917559192866,0.14410087690533546,-2.1461487487492685
0.007485224798994716,0.4335041574418472,0.3719739832415512,-0.6718440177694296,0.7025289219212371,0.9330846028035407
0.36191857748358114,0.8613128641191241,-1.4614643224448332,0.29915294758831856,0.17451304134786366,0.0930586940855252
-0.34906252636755364,0.7393233230497465,0.691077461768056,-0.3107529921698608,-0.40853125927377437,-0.255031291144985
2.3312611027254917,-1.1744576564058191,0.48964720007168916,1.7141211166631036,-0.03889765200063955,-0.9226222366972026
-1.6151921572124888,-0.3334481237517372,1.4507208012099735,-0.7558865058034681,0.7122106803616908,0.7650118781545107
-3.335921876369916,0.42027781717376167,-0.4536605473894183,1.0513563082467727,1.5861872919391913,-1.568413350258448
-2.217043576793165,-0.5046079689972647,0.9974319106448637,-1.0340626903099133,0.8539087387614244,1.2609980127168556
2.576531158005258,-0.8027976132865866,-0.5349530525319154,-0.8351033144273529,-0.45182118183188136,1.3551505616785782
2.101910659787928,-0.7134815549559221,1.0306129211625048,-0.06756451311318781,-2.5954425048920573,-0.9782625844511528
0.2381591506882832,-0.4956149954397179,1.2918817960417095,0.5001942593907986,-1.3019567738422182,0.4374580960367917
1.72189709916691,-2.1253082629091806,0.3529154350676302,-0.5882355142167326,-0.46300966320009473,-0.8934846479438142
0.4227079047077056,-1.1250696004780638,0.9181715151636587,-1.3089316032180356,-2.427184807793147,-1.1288285199155546
0.6692563196351349,1.529622189241139,-1.0098713726810036,1.3003606078519954,0.433827186440307,-0.4619454350512635
-0.10533455418703963,0.04834954444420758,0.8993598026656204,-0.6657802860349068,0.6166147866403823,1.8523304146193407
0.39125998329326883,0.349556969566324,-0.27188886962445485,0.12327409888198212,1.0582166789194623,-1.5144238139472863
