Gx,Gy,Gz,Ax,Ay,Az
-3.260640999999997,0.4816840000000038,1.6357669999999997,2.87,-586.508,-26.444000000000003
1.818703600058495,-2.7875061238498353,-3.9982546731611777,-1.5054624903938731,-0.4104462519456565,5.133938450550213
-2.3847606445186855,3.9702967327657057,3.022290758893488,0.8477240542936159,0.08871508695374317,2.6796627535606397
1.3405266118582466,12.664888298899655,7.058062844963405,0.8047178534399834,0.48131091692080563,-3.290151327308718
-1.1237904050595788,-0.23014420576413663,0.262445125809722,-1.5477096746433703,0.6174946142756621,-1.1296727938963258
-3.685990362369873,27.720021974855744,-10.297796533653461,-4.9688715090918505,0.7450669543710183,-1.0570287224557682
1.3922455952204662,-14.69322892438894,-0.261094132166748,1.1279629794794614,-1.37633654417238,1.1744097312740565
5.072429157545858,-9.808905549364036,-2.500325911451636,0.305903189319776,0.7704483882410782,1.433261147454089
4.3799566948013275,-0.194566403970037,-5.104137245130462,1.7283149645447962,-0.13608143504726963,1.161834159598606
-7.284342656036989,-18.178973378202862,1.4112246856421828,-3.4360750818431347,1.5947930566918394,-3.426590670343306
34.72877307261618,10.17821794040037,4.265327021181724,-0.40326855888383606,60.52768107072134,-0.2143319258314591
-3.1454535190308057,-1.0968400005362824,8.531452263702107,2.780607249225489,5.381727047523912,1.7532164954609897
-1.1593282309956485,9.163741972010502,-1.0760283183971917,-1.1418433302688547,-0.06595171519819598,-1.0655456844139226
6.328190337702407,9.00603835195553,-1.2505354882292368,-0.8627965617292082,-1.6097395540205983,2.580884990840356
-4.624261223051981,0.04188997595478483,-7.2835941940783595,-0.06751088999790994,-3.7594544626198454,2.0738636431419053
0.20845097237843824,-61.65811804794315,41.20660339897615,-20.621586511264706,3.8735365340929366,-1.5664823351186596
3.911043612022584,-0.8191554743596674,2.5255068623093235,-1.6206167821506026,2.946912515036269,0.05039268380913553
-3.3651210758637933,-12.391531038698616,1.8960355985916058,-4.039863383205313,-0.16560468584328614,-3.7009553597157123
-2.1776740630752025,8.961870284099641,-0.7110039776860019,-0.11612443294079194,0.07222605072377021,-0.10441513065459174
0.7698980288880498,1.829192463112678,-1.9266965987103393,2.3776338494121756,-1.291250785090788,0.9243361608790426
-9.409828894046496,-14.89371280979843,5.978544869415845,-2.917872194139356,-16.517116845352298,-3.8477862257950024
-0.013888995381727947,-6.827285040411892,-1.739277385845822,-2.9334370460001025,-1.4996016787426347,0.2612104601348413
-0.5680997415700069,-1.4432952054077797,1.7573469332821874,-4.123584300803369,-1.1389449497500426,-0.6562854191238694
3.209244711325395,-10.201579888161861,0.5100977663013241,-0.552504883146354,1.646005790780255,0.1271494410655044
2.4761873162356522,-4.85999490020551,2.745257256037404,-1.8685103041542181,-1.1795836800001565,-3.375014038337023
-3.0693849376503852,23.64769077263411,3.6931502705386245,15.476638098192124,-1.651662485715092,2.700648920799058
2.4834885574366314,12.127196854912821,-0.8072825904687374,3.2294585090942407,1.7499992483079987,0.4798403021521091
-6.012588436699678,10.4194191511077,3.5304381405335983,3.9415267260566904,-0.628909718681679,2.05330050666576
-0.10943797197772809,-4.017553432253223,-1.4134183461071634,-4.136736079343629,-0.3865831199618224,0.4632292062299845
-1.5121252994168708,-6.587115221530534,-0.9303409295850971,-4.872149226677351,-3.2794755815555905,-3.571572308508828
23.984963887767442,1.748315678145238,-3.056967849491078,4.676824562748195,12.634537907299114,11.52241496404676
-2.115092410770476,9.466041751803933,-3.8186898660050588,1.5615121073074771,1.3077025927627353,-2.248805219205817
-1.5375715827886831,1.0368600445568856,-0.8568602563579102,5.506573505153402,-2.2023603102905764,0.74228757201685
-3.260586787201648,11.860313690739233,-0.040691241739714945,6.729217881313675,2.0562653168397973,0.5221416242141251
0.5960882286803378,5.002661278301977,0.8013180209770455,1.6922462795813296,-2.80779246852248,0.9020614849777538
-1.0615633000108002,-5.029208412992901,-16.62114101743671,-15.417284094230647,0.4319413527196958,1.6262806808807202
-3.4217913152526522,-6.768949544058209,-1.4090656551489147,-6.521811575400452,-1.5548411639136086,-0.7265397641423887
4.315742013845904,-4.673422858260479,2.4423178841660143,-3.1920655380821215,-0.9879521698936164,0.6745803615733881
4.2454544765900035,-1.2634165800694175,0.3575017277029665,0.640064429754921,0.8855569940254201,-1.7039554605170046
-0.7310936710127058,5.704414468350978,6.253585144703665,10.454166381434373,2.153190655129277,1.0351170736157644
-11.53730301993728,-6.438039902774613,-1.0564713360271338,-4.702852827235933,-20.404404670662768,-3.12784125882506
4.38619751402173,-5.9805998344112234,-0.7755624527743916,0.7712159167353776,-3.8906849972391306,1.9390549894384765
-4.231915509142803,-2.0841580562997932,5.540037690656414,-4.508075629163515,4.898505781372354,-0.6737709600200776
-1.3772169940125378,0.4782678825379525,-5.884797968450136,-0.34106826626784587,1.2446879671654763,-1.1237492838025953
-3.4010486721998205,-0.9936162634267114,1.9908710346753342,-2.2622956016404823,4.842097391650565,0.0853692927473686
4.0744511807488335,-5.278495851530405,7.088655459636097,6.856306657338138,-0.07127580268393152,-4.457888556908332
1.8412129855430528,1.291378761877165,0.9764040904135558,-0.2763811332487891,2.9910610446899524,-1.6103155623812992
-0.27784043270326064,2.7628741593815542,-6.630585219783768,0.45880679610221975,-2.288036705576899,-1.1435736213842387
-6.954388932506165,0.9495770377590504,0.0029761921993508023,-1.8503597357916612,0.5362265918715377,1.226872513778844
-0.6515511575667634,2.207999908868172,-2.9704075529625564,-4.469947240283193,-0.5118103920100188,1.1448975625955342
-0.5413868416950316,3.7887298395959483,7.665884517994271,5.523175859319033,20.06106227231643,-5.3840843606799655
-1.4582933075046929,2.5558615769477915,1.0643090567951288,3.6074940260247494,6.081511760276545,-1.6322508515769578
-0.6965517040310244,0.963448289793958,-0.9949751148985548,2.7291921824935894,0.220457679765987,-1.0608636553716706
1.2665775140446578,1.991701504890336,-0.6744441007481867,0.1535627804330495,0.7325996756923328,-0.7208940301830795
-0.9772439089377889,2.4354545868392283,0.9157112087917758,1.0797644691552102,-3.9565694515389693,0.6732565213926526
-1.7365238496226674,-0.5540329651661768,-0.7511957493391446,-2.4524001928073362,-7.290984705543092,4.554968561937857
-2.2827030604986858,-2.126959677288368,-2.658017613371459,2.25971137339251,-3.3553459901327303,0.8123107286214415
0.399451242242418,-1.2168115662804726,-0.5958690385284559,-0.6288548561398895,0.17617810446794613,0.22432326161169125
2.5618626482207327,-1.3782017430349476,2.636061422406453,1.5944310532561425,0.1967844244687253,0.6065642362375826
-1.5441756695694924,-2.0294072012870252,-3.647454953912528,1.5328955725333857,-0.12213754872078053,-1.8499142181473331
3.8603642114504804,-2.9773170063362335,2.7673362824285657,-0.305848446924066,-15.56102837339112,5.427877557782745
1.0249857502817714,1.5620985864015176,-3.001443390667222,-1.1009316046267643,-7.677258724334222,0.21690049072600104
-1.136802653853139,1.0110472915586115,1.2908094884627972,-0.7350773084011366,-0.9298942712291091,1.6507497189561748
-2.7173909677174146,-2.2501442265082368,2.8555170392630154,0.18595510687818345,0.19552604846954758,1.0940032997541738
0.3310762255345594,-1.2487822124214494,0.7015025331352925,0.15891830167052073,2.399467046783822,-0.5131434719988779
4.716258444536373,3.882295889900117,-2.9313641678912528,0.2794211769042598,3.09029860702976,-2.091833868467472
1.5965891595212969,3.6061521463001456,-0.5695726036911521,-0.34660458816902096,2.7095339358286794,-0.9967266739060892
-1.0927764051194506,1.5163312260526054,3.345393069606215,-0.8910777732868207,1.7441893216550954,1.6529280522744758
-1.6602255088538336,-1.0572978165618978,-0.277675955088272,-1.3455491438033587,-1.0503194336333426,-0.4634635401444481
-0.006579692561605843,-1.0626384135337918,2.122596634508679,-0.39861908327495044,-0.12166148335499605,1.8411321304411694
2.459581034706761,0.37925123587359477,0.8557490979950871,-0.04872335631973912,12.300309921346846,-2.3325917464738803
-0.9679490356707364,-0.9750455995636532,2.2590273916886985,0.6300497113739407,4.747390402011359,-0.06092637103484533
0.38590629638947416,-1.3229648540853787,-1.372969094341094,0.505330263628698,0.8273702357903508,-0.22978512994070932
1.0110220445214362,1.6348039031598185,-2.979279422949174,1.1635434345725728,0.1847675834256615,-1.3785088176792024
1.1834424674082786,1.1363192361097811,-0.6545460075306804,-0.015346528839036588,-1.454502551556935,-0.015465052185524963
-5.335289950275694,-5.7098088103661615,-1.3860210810663454,2.4248458419905967,1.2545678917775707,0.13116218045786843
-2.1591747207532808,-1.1351820272625381,0.46260727441014327,-0.04581017722530356,-1.0784403559881284,0.3416258013676258
-0.0007419597476521801,-0.44772924119903135,-1.2477099046447895,-0.27742954898754385,0.2773458852853307,-0.910104151147032
0.43164946696524015,0.36866590971026203,0.7964409967932404,0.6368309234458747,0.27083545428131484,0.32323120278485074
2.1718600303326574,1.4883409529829075,-1.4049814790138964,0.5277784374248851,0.8173498364816213,-0.9614109978572073
-5.040217066036304,0.02400551783045568,-1.6451272433632962,0.02339839226445395,-6.901421652428415,-0.3780490224288252
-0.021285214418893625,0.6087096148767921,0.8926312903866412,-0.7478020622487467,-1.1995290837756771,-0.2898123400958369
0.4467924439166353,0.8713511647937076,0.6924850056821885,-0.16738922648405388,0.30624421209000036,-0.0516309107926598
-1.6968023636007386,-0.6384943638361389,0.36964770691478954,-0.9386092239655504,-1.2421107015194557,0.5179929435106793
0.38713393279330877,-1.3725751743414327,-0.6813282715415678,0.5622925980210599,1.133782659438859,-0.10216523849752165
1.470625090560176,3.9553404716784164,4.446100556904936,-1.4777162681964073,-0.8191327959312427,1.9569826388526401
1.2945820269219912,0.2168627701143368,-0.6921366737143979,0.18473167536543988,-0.7902159437414198,0.6424332215542867
-0.3178013588161991,-1.2563172105404392,-1.3795575708410717,1.3694476677555263,-0.33615503905502486,0.3518558549024463
-0.03571985365545993,0.8207671463253828,-0.10228282840201358,-0.18105856323873196,0.39805234517600185,-0.4300442038012501
-2.0027306880546853,-0.6781273594814042,1.078976453943732,0.000770553890479253,-0.7877259700929456,-0.21964514358563908
4.172070372322269,-0.049353629252198106,-0.3492401864684156,0.022771333880350464,2.6463234347633287,1.1041654516804593
-0.7323666692283233,-1.0490705404657292,-1.4561582855325725,0.8952268976600323,0.6334724146722982,0.33596387484533297
0.2007989493608598,-0.6911483711185584,-1.2293390028386348,-0.09712597643912206,-1.451890905077232,0.10210388874747618
2.06320624504436,0.8725999886730579,0.31456997027334394,0.08236400962179549,-0.09342509717092584,-1.2093860302507282
-0.6632620668153851,0.033975700951605015,1.46933048617425,-0.3688628300042028,-0.3346392913233375,-0.2759390274164319
0.5416409741883943,-1.0764825049874753,-4.243383697044,0.898803619433599,-1.8720136619924965,-2.1301144179259515
1.2052932409251829,0.2750102749047942,-1.1876094281253897,-0.006094258640529163,-0.08195869367343447,-1.2241775367336258
1.7230729139597112,1.740833127258109,1.0786031659211648,-1.2188526615564006,-0.6109512721909585,0.23872914782164045
-0.7652996472094564,-0.735303089747728,0.39528207107326657,0.38025792944572767,-0.19497587359785618,-0.1574327688281032
0.852146208150917,-0.19698216937500368,0.1620165831445788,-0.31245754988325414,0.549077724142875,0.943666951340945
-0.3762119336510479,-0.34446098206823766,0.623211972002956,0.42031560233487975,-1.0991698109116257,-1.7296427433364323
1.845802506722677,0.6864294556862365,1.0354983036375853,-0.31073886452149635,-1.4548421067795885,-0.9765822545097447
0.1925490889538526,1.0997769398592343,0.7267352524972267,-0.18408137519989598,1.0742996659559219,0.07040734620209693
-1.6528286733675606,-1.131675234627119,-0.9678853568699863,0.257709104165451,0.5813393710853267,0.5472113421265606
0.25331285031557915,0.3399987933438154,-0.3149244186979022,-0.38666975599653125,0.02133896814614672,1.0997111986275991
-1.1012375123655367,-1.6930190601880515,2.647327941323429,-0.5117579602483107,1.1639348608197226,1.560689983778462
-1.5807305171555843,-0.3917118217260397,0.15153571884055927,0.1960997675343156,0.3453126198644244,1.1208370508380738
-1.0086760873343696,-1.3157826964565205,-0.3574450922289046,0.8713881936797642,0.6346058627577293,-0.6599133398467781
0.34209133326681795,0.0972532317412877,-0.4315730638216371,0.038078642089934,0.022127863977964957,0.11551543663267268
-1.2427483904348584,0.09258881909318563,-0.14119713267890358,0.25006647344075117,0.26413169646061946,-0.9773362227551083
0.11015573285700941,0.40609869286401395,-0.33144076905302894,0.05104408792463233,0.41785275925948184,1.0135160756350543
-0.6141376559861634,0.3853943784379735,-1.0850470509234733,0.20274633085897079,1.1092767285627698,0.4329525009592508
-1.1104329644478372,-0.8095973068476818,-0.5688642321286346,0.20582819421323936,-0.3108329286812118,0.049338585435663274
0.16895933873779656,0.5751731434162825,1.140905982991603,-0.29238649715913545,-0.7001997247732206,0.04674452778095611
-0.6746581122015519,-1.0349523670102376,-0.3301426337687598,0.7242984915343124,-0.03620421714552709,-0.8780419286911904
0.7302315731374203,1.389533718544731,-1.5656069499834449,0.08607672198571086,-0.3739278633388512,-0.45669848067199814
0.9320510960755626,-0.6177577418979997,-0.4490891875823522,0.03824804693050607,-0.08030662420910811,-0.6891119563553824
-0.0967073113099702,0.4605589989161724,0.029348208806610876,-0.47314739487672297,-0.034712675643199166,0.2656075926272296
0.18683072584980775,-0.09562401794105828,0.5489843141924757,0.043530317364918775,0.27712990153143313,-0.1935327063984128
-0.19005553723138138,-0.12340850236745271,0.16525590058973205,0.008175937597103479,-0.10298009960141671,0.5483123796301405
-0.3266581267201585,0.10588358524781327,0.5521144127600449,-0.34580679386644564,-0.18708696678286257,-0.285515229085488
-0.9590647996224404,-1.8988674503116316,0.737518404454475,-0.1631544177643629,-0.21674959850661327,-0.11500783534703776
0.4688639941669974,-0.5114833742635035,-0.07200083564585208,-0.3085596762717573,0.5868964169077897,0.39644905117714907
-0.19410480390980506,-0.14755105200291574,-0.5157181848755882,0.2730866304312226,0.24686281803091806,0.2656251784863258
1.1454050405546528,0.34647282438912014,-0.08210358199018883,-0.3720783148764468,-0.4648462736684209,0.5256752044720329
-1.2189901231019489,-1.4114508444265368,0.4840451261526858,0.20488353395264985,0.644013039596828,0.05180785098968409
-1.129506770810126,-0.18705394066001227,0.33641996719894846,-0.21443997338065685,0.08796307872561353,0.7931345067074804
0.3969342905114205,-0.6204119757238172,-0.40855052374786394,0.23653696988515405,-0.18204575791277844,-0.3827594813470365
-0.282752827952244,0.6725572549379326,-0.5989231575110456,-0.03569527321870167,-0.07625130523110663,0.5100137451077396
1.6817194378203295,0.6776826996779693,0.1038298621482823,-0.1532331370712031,-0.23708649930114262,-0.3723013795975873
-1.3075484484683522,-1.2744229490405072,-0.6159012466082346,0.21000397694508335,0.3507434616245434,-0.28060831958874743
0.9638133535738047,0.6582061394411982,-0.4358771166289138,0.117463342223919,0.2631718325703878,-0.11903810184799923
-0.13242541352931214,-0.26163054095688193,-0.36295553489800714,0.2322191118986773,-0.5551757184744249,-0.3176166385821607
0.2664223581741798,-0.543804924199232,0.4895367497593286,-0.15408868418515023,0.006904254791668535,-0.08614914899840638
0.1113463743044835,-0.3735790996912251,0.22747929550703894,0.1531923388300843,0.5169284885281724,-0.3565944242593559
0.10540898576296645,-0.05357254936920493,-0.04709361195177949,-0.03351997810165947,-0.39589261586040414,0.3058765935760735
1.4603468600915228,0.041033720032333826,-0.3396872193198689,0.21936386203630914,-0.42464483981429385,-0.816026928305927
0.1257240488440127,0.5813624074060378,0.10088508258846951,-0.21566718778390595,0.019517133853414692,0.312556211615213
0.7497959656874318,0.19209787410251353,-0.17966033416454155,0.16638450404333727,-0.05752272092239907,-0.30587316771442324
-1.119941310273233,-0.6465102837453351,-0.10899009675758334,0.18011970514578485,0.30946790637221905,0.3344844623158302
1.3499127467918492,0.7557738162021397,0.15185211293170398,-0.055848257825664244,-0.46840660789279753,0.2506768257432511
-0.5635757491062023,-0.7167981490889035,0.12611416697334235,-0.051050855328764126,-0.6047940721812917,0.30329966538926634
-0.16762846321096286,0.019607262638364473,0.34148396107788603,-0.1785584016903397,0.19676987433038917,0.5368687236041786
0.07017688326945337,-0.7698992657897177,-0.19301618371010085,0.1551863612524147,-0.04993807050110252,-0.2907078002273321
0.01691888074793202,-0.34792138293425146,-0.3476804429639736,0.050584710150134854,-0.26074022498559857,-0.1274133894780345
0.7631900189298859,-0.25393215084540277,0.37297194077575835,0.10411253834044557,0.2984123936702374,-0.39182437128988645
