Gx,Gy,Gz,Ax,Ay,Az
2.2690780000000013,1.927466,-4.593248999999997,-29.885999999999996,-454.296,97.96600000000001
-4.168484401143057,5.677599676263984,6.891862609352499,-3.096930522748733,4.597555570769458,-0.7086146709060812
0.19193949825824763,8.920701748427977,1.8257331542766657,-1.371235825287659,5.0012311501763485,0.8833875322457697
-3.1935592298770894,11.723991915191949,0.7897969515877481,-2.267119280986786,6.637317550502587,3.7229275853298645
6.752512037115771,-46.82712239698903,12.363205393725009,-2.023671650324257,5.511206427648913,-0.4907474461431946
-17.246391505773673,-216.70746133021262,73.45418069217378,-14.87578891070564,6.488776935568041,-2.2283003123049
-2.3918564587362257,37.966674571057126,21.472998827289032,10.875673124761606,8.987620362477964,-2.3522807451763788
2.1845399278388102,10.42691775430014,10.950605639551142,1.4559446742088036,7.368311197647366,-4.707679748191826
5.449357574504214,6.313226712850955,7.653198794629166,-0.3064061579383761,10.796531051629277,-2.0703608632259556
20.591801023627845,2.14920698081025,13.596733894123055,3.156624386219592,20.267922250146963,-2.1327824861944147
30.682149660937622,-13.540011479140599,25.664994548765627,8.713966947951818,38.79868386935125,21.25405333664794
-11.382074080133442,37.6755213499562,17.365479043110504,-6.094131956867864,-2.0129799052960493,-25.167654038883878
-0.35694476814758547,13.577504798946894,14.045385395786068,2.0802333361354712,-8.334331295477766,-1.881177383707714
10.363631527253254,12.365750209519877,13.114043462518978,-1.677442821848266,-6.376104648854982,-2.938822412259505
1.4667270744959722,1.20651969676209,25.853355262130673,-1.3122850772332315,4.620824254143305,-0.23873497614022487
15.079451945092064,16.73519512182024,85.1510851646707,-11.757167565784906,-1.4504712895017637,-5.821054779873753
-31.116970108287436,-65.31763488579838,-63.54316433878638,1.2198022548418157,0.804204993141763,2.279688240379846
0.30846141449835773,0.7777465494239575,-39.1732257406576,0.45612345066718707,0.31776340469165243,-0.15521249995302444
-0.04088787522710789,-18.560084930098732,-23.194541326656697,-5.532568324597783,0.33087569909526593,1.825935319127818
6.438441200561165,-23.142607654623987,-11.794006760678215,-3.006016486780349,3.2516842126811154,-3.061834650139481
-9.666776322649973,-30.576545343459582,12.533059020858449,-6.121261969239672,1.9177183480020368,-13.106957765115846
-7.90874648040366,18.97100690470706,-19.560120344151343,0.8793777395610161,6.336964896127449,24.238016216063592
-12.0654851662098,6.760745835537829,-11.728297209032792,-3.76101018257298,2.052075549641887,1.9932455179295698
-1.5068914863955878,-9.948280244311391,-5.472350913140705,-1.9165742184949695,1.5400647995471983,6.9689280653138965
-5.410448553175673,-0.47338774253434934,0.5891010988315486,-1.6607609729232777,0.14601166636478963,2.106579497379053
-13.483274153437005,9.323033010583025,10.993622286690972,-2.5869580749442838,0.872426087303587,-0.8463032956476799
10.269979162671113,31.423074962382444,-39.98174121735291,37.03369003310314,-5.732308000435239,1.0266553821729207
0.8538857522260042,12.331508246969424,5.019462224335207,7.404523178135948,1.9919186913336766,0.6549936579648827
4.309671709989689,0.3620181064317656,6.360953230879316,5.106764363222494,-2.831610480999244,-1.10269632046338
-1.5607967095100514,0.0796345750491092,-7.357075563353121,5.027278481048991,1.486647080047049,3.566678699798956
11.38669155958862,2.6656308757540996,-0.42980625104135006,-4.16602481257558,-19.61350292118336,-2.8328465188014254
-3.518589844123272,0.10368467100491147,3.691135517766314,-5.482378263916129,-17.2326200382517,-19.844151544544317
19.9388141783369,-0.06669675709472164,3.3784846049794375,-5.882324954683614,-25.63521282429002,-1.2154098818624106
-6.707735499620461,10.101364740483312,8.146982932957474,7.147031804346504,4.086521889242374,-0.9060854334336396
5.969088840174679,-0.842060844107305,-4.330602130412693,-2.097332116832664,-3.627995204923562,-0.22831621110259515
-0.9027046123589546,6.544125537501737,11.692286022577813,-6.588541688743911,0.4813338793098806,3.9675749648382723
0.9684675211600124,11.346228974133059,16.937526061013408,5.753083508997749,2.221252048499458,-1.099603844640613
-2.522561427553837,-0.3500451213849072,10.1808724852739,-5.498505305857885,1.4608367116564593,3.043763119559097
0.032217748142289615,1.5634880981010313,-6.533469145324336,1.1974325582655854,3.369847870485698,1.330446413236753
6.3554260878358075,0.3595429428876393,-6.555483289458946,-0.3276026328497216,0.5681586569761672,-0.588553860902115
-1.0430045277050781,-0.6258343301638727,-9.437671801323974,-5.732548409824667,-2.792107311728447,13.395709379967224
18.950484835411267,2.932380390455784,-3.5606219456985917,-3.3339185498918367,-17.523429987111545,13.203995809531467
-23.468467197559747,-1.3363465029437331,1.8854890160975413,-2.9680551095205625,18.694015669286802,-0.3871455748178293
-0.6974032559958521,2.5309248291641597,-1.5621723646089434,-0.04761297013091781,2.0388715896778926,-7.265096726836491
-2.7668103398676926,-0.08933734815090766,-0.7665220580907253,-0.292696259282057,0.09540963681190329,0.0827701638999313
-7.269060375796885,-6.288985168543745,-3.616749531567134,-9.653335295745604,5.813273964934808,-1.135727092666171
-4.53062840932193,1.3228115961163762,-5.024921599326273,-2.1048117532491157,2.607637395747738,-1.9642923912406511
2.583612197135568,2.5711604310014304,-0.6102230094866807,-1.2125905365124692,0.6502750817261347,-3.5745200134598267
0.7242820445629121,6.360843472531089,-3.494238352141305,4.380609896181517,-4.498984968148823,-1.0425538710374969
-3.2464295987187968,8.807871729203988,-5.718353739347702,4.27088096289442,2.8006584762649,-5.026133398852201
-6.665305854698518,1.2867039927149608,0.929438684822314,4.750697838264983,8.587405643100315,-9.70253847726368
-3.6341250980101485,-0.6379359205594861,-3.541567015689038,1.5390715410392795,-4.630807205010714,4.381829386194829
12.375918105485699,4.945006023112326,0.8808096695900058,3.7356564294248473,-2.251063762506453,-6.651727059743482
3.039109195422422,1.9901026110688331,-3.5829412714359132,-3.527829621153116,-6.698516467987124,12.038025062620541
-0.3950575827294931,0.5816545174341017,3.75109660567184,1.6604474204892365,0.22438760496852694,1.2968098841100695
-0.3432378052852716,3.042251618714147,5.467536908730764,2.020432707127462,2.877145261883758,1.2988695422527372
4.090318491110295,0.7607889286568531,1.785503563480137,-5.432051844765514,0.13047319215460634,5.49986865627052
-3.3723555606948423,-2.3528190475354798,-11.933729271047312,5.204720534568617,1.2390579941662223,-0.9501103095383607
4.942472409284926,-0.009496901338873376,-0.014216211017779923,-6.475822773342337,-2.4776582229646493,2.3320021151161927
5.3874748647155855,0.7646194636456343,4.6862578614716615,-0.8457223293527691,-2.6583744201080863,4.641371429705506
10.380498382794489,2.385926166034912,-1.8590492498408668,0.41196471666123147,2.418599380838849,-1.569573107746606
-3.9821889978263325,-1.3967387626275374,0.5026707528549346,0.5774070398438498,0.22121344835142276,-7.260360670711819
-12.28017306707601,-3.4815768565387923,-3.7453940391467357,-1.006792845832842,-5.065095456757661,9.522996389194711
-8.005286156554053,-2.670232225323059,5.733002828976522,2.2465959748200586,0.19605310568199352,-10.729628324648314
6.977731375476619,2.004979783437162,0.011067112285037983,-1.9371396033330692,-1.2388957694334666,-1.5011524714729532
-5.162744666173566,-0.8640740065163257,-1.9071917137050551,3.0772515991081173,0.7023682523699679,0.9501015556130852
-3.4790934416044292,1.4402715474242507,7.244638184225202,-0.22001041254024833,-0.8779657299052226,-2.9267023536078116
5.7908182559508505,3.9902634794452188,4.351122026407114,-5.502560006748885,-2.762474148639554,3.420292914886864
-6.399159811776066,0.4764154813089849,2.389908366649787,1.3578737813933628,0.14172441247656709,-0.52192438287604
3.7011350500981623,-2.1598063372239302,-1.8632943158741877,2.394571164569562,-3.5134540064347553,0.5716934694935607
1.6935431477876468,0.5980349809393184,1.6336112518627404,-2.5243471329528755,-0.2066191500626502,6.25992536781485
17.11701484114321,5.657200981342881,-1.7860719364095359,-0.1609863356946739,-1.9942909959853705,-0.5314749595208831
8.666737103144284,2.173112965162715,-2.051024190805763,-0.059507578595765165,0.08597772595287176,-6.201047026417491
7.140344439585797,1.4661741349617177,-0.4765183310900891,-0.30404961884819803,-1.5146534032197105,6.099333057435841
-11.029868097847217,-2.986710818670183,0.2786427920725689,-1.116315352705695,2.7775519124479304,2.9336832195511438
0.9730188949283343,1.1817226233149198,-0.36382124451995423,-1.0654425749212306,1.390879466997958,-2.9847904733998787
1.0278424015042993,-4.074885790404474,-2.40497179713726,1.5423152375939453,0.9729147708921883,0.358103963586231
-4.960701424674211,-2.321880991284569,2.5168262908821006,1.612845908632538,0.0512025286379989,-1.8365543728607543
3.234320300882568,-1.0717749133749537,-1.5737909508938788,2.5309193038529436,-1.1179891281265022,-1.9425827375833826
-4.7286199406053235,4.166386072958683,1.1309314257744407,-1.5130901803283423,1.0789331988474786,-1.182948779717277
-5.246531828438753,0.13928399733190733,2.7564077893462424,-0.26769961078770077,1.7612924595040127,-2.376563646581027
-9.702349407179799,-3.65632896729649,1.2181003227657499,-1.5432726234408918,-1.0282128567810127,4.644270914314745
4.140201480531895,2.6066822604297846,-0.26334839533732834,-1.0597944258934693,-0.11738767476875323,1.3411369189540168
-1.0192791755579154,-1.57322301129395,0.58315181739346,-0.7539281837620773,0.18558924954710196,-1.4394365754823182
10.369199472494516,3.57321051250234,0.9370793074189729,-0.2677620230891047,-2.0703874131914057,-3.2989585650955773
1.3505798426516253,1.105118760155155,0.12726880801035195,-1.677023183537104,-2.5646512083448574,4.417627707343784
-1.3946183674776202,0.6914093318315759,0.3915426898761154,-0.47483569963504774,0.5102028861735026,1.2129288008126173
6.175287648668632,0.2522196297395043,-0.8094615181226723,-0.47626619982717905,-2.2298162512744786,0.5152909580503526
3.3312290505872832,0.28498439829128797,1.9577679287901821,-1.4987451569613017,-1.5647546098558445,2.2517004781086682
3.7016177962503063,-2.2377955146121726,-1.5721122678317418,0.6088418659956147,-1.3218891467888392,0.07638916341468666
1.7195516331944964,0.9929122445423626,-0.7563405245118511,0.27562554761801206,-0.9277362229042225,0.32675218487026214
0.7547746484266353,0.8494563506666768,2.0077113562039868,-0.7494733371638029,0.7644544697096277,-2.502630578364262
-7.544765439690793,-0.7121723466151771,0.5028070225144802,0.17290463890783214,0.6770470911462345,0.978344061092211
-0.472302089287266,0.7041263897164443,-0.1377398844275557,-0.18433457194412728,-0.35449075467200264,-0.6106480628505976
-9.586437495199736,-1.3629521206970203,1.5410515723620284,-0.6199806331424742,2.23891440195114,1.8779713162824287
-0.9683161340049924,0.4308842850009459,2.00867327269983,-0.19910667149811523,0.4973086149925383,-2.6952702595050937
3.995057137476571,0.8752325847387219,2.4498835821453184,-0.11730376491021305,-1.0597811140432736,-0.08970956543439046
-4.738966810801691,1.510726496952186,-0.5003290038923633,-0.05386682526778752,1.8728315556392046,0.4927907959223991
2.3290565348839642,0.8144417062102998,0.3416754204119188,0.7990703701375677,-1.4004331057095425,-0.9631903211339905
1.3627196538624853,0.9820067969033057,2.391916685370611,0.4944961067921195,-0.6599644114441384,1.079678767864793
2.5283266069913135,-0.6089520591437751,2.867850346010312,0.23597645451005,-1.5188048115210169,0.45224562489347786
5.345949610770818,0.4184641878520363,-1.5063352305678026,0.3699148383272475,-1.147503340620294,0.17015070639837448
3.6222871059647592,0.3138845792368269,0.712450420226633,-0.45853495806733136,-0.5447274758459439,0.6713639693876583
1.2339081625520398,-1.4342853075546373,-0.44633145422333903,-0.5949597625474985,0.3890300197250214,0.976512542445191
4.969497068228978,0.24656092285949993,-1.8201106223249066,-0.38795067986503695,-0.23246698264297128,-0.6531351937013277
1.9887164706040008,-0.9360297265915241,-0.16068108309734241,0.6896090635976405,-1.5275988929106097,1.760516562817537
-6.302778500542514,-0.8086483956843454,0.3792222573523625,-0.9614380068809705,0.8976601190733029,1.2499968038216902
2.218407014245308,-0.9111068188554658,1.8372248090373051,0.10712209942412809,-0.5352074415089835,-0.6346443862040907
-3.53968060089054,0.2176906875158574,-1.1254787208378165,-1.055667190403827,0.8660412661174681,1.1191916680299083
-2.971490961875861,-0.17546101548094117,0.25183637398967695,-0.7028969284895583,-0.012732577930539002,-0.982674113001514
-2.690401922855634,1.2119788122698738,-2.429240762845918,-0.7162104333396075,1.0872337380629808,0.18191761643476334
-5.19599226532139,0.5871646802551715,0.5378462364633776,-0.2813430803852204,-0.7984792666939224,-0.3528839993260397
2.5637299445995394,0.5048900940681473,0.7456286952209094,-0.21347207879642166,-2.3041279043741003,-0.534469895036314
-2.1057117183143657,0.2232152244226402,-1.0285970298422453,0.372494487354734,-0.6364997198784845,0.03542670336971371
-1.3484336240991328,0.6909254954822937,0.7891817090821682,0.5295519865486104,-0.21408701834803978,0.20848924790300283
0.4203154196953669,1.0097151793058923,-0.0679700984626436,-0.32510351309352187,2.948532295385702,-1.2432476724198058
6.589849222970355,1.4290686060785096,-0.6789285862814068,0.015352590005588446,0.009995627346417846,0.18333110764937366
