Gx,Gy,Gz,Ax,Ay,Az
-11.229474000000002,-2.016108999999998,0.9011610000000004,-4.679999999999999,-484.90200000000004,162.472
1.1009011242390283,-2.3718019651972027,0.6334911700259617,-2.3214716708527963,-2.4445968490096224,-2.8392312159742854
-14.413007737458107,-3.7356658150336575,-0.2650581690406111,-1.9281035742209405,0.7280947061417643,4.08352986902276
-0.36084540092028417,0.4289154345465518,4.150065630494698,-2.420464378894155,0.3944019826363658,4.441262496181804
-8.853882904678585,-40.46830583949697,-4.052999172660029,-5.334060972151828,-0.859291887800747,3.197785811995095
7.533332533423634,15.69679667723129,14.714005934516619,7.3156151633842645,-1.40183169403642,-0.6826432023021527
2.3946565290279547,5.783921670260549,1.0604150807585144,-0.683749022749865,-1.431225410392774,1.2969750761923888
6.890110940045258,-2.505950037545565,2.3212220761559776,2.7560865491807833,-0.7011543942738142,-0.48149355526642956
-3.331364369268995,-11.685289171805728,14.062558116951102,2.514125664339888,1.4217469232374254,-5.169681133911608
0.818367617929157,-26.333193269754645,20.93312390915013,-1.4718111384323391,21.457656077441,-61.597135477412266
-4.371569841993455,1.8708485470747853,7.8039017638934345,-0.30326036715262766,2.67981570128129,4.409325941697561
-3.925148049737032,15.09117096070043,4.44808892166383,-0.5350042024289161,1.4523690100580406,-2.9114482027726547
4.629967983550549,-13.540031002284518,23.91124038297513,0.6863641770632568,-0.113491465647241,-2.5083662017857002
-6.113053871424515,-10.83397252382047,29.360554940258446,-8.47759045725213,1.7338637367570051,-2.6029654938862135
6.734220082819012,17.556228749780335,-51.29495831401397,13.703211383266039,-1.642557753752397,-0.01211195784115393
3.1172743336877686,-1.4646334109773331,-20.88588213530283,-4.177587252513674,3.7413305512950763,0.2428826391433329
-1.45720939569809,-10.02276770305475,-3.6800923771234944,-5.500271914071971,-7.11444779642124,2.276956296597203
-2.1473096423898337,-7.601215934890973,-4.871994498192737,0.13730970083001126,4.486977340015716,7.589876189725699
-4.027746439679528,-6.163815886072634,-17.25077156145627,-0.9893679239905477,4.8523628195265545,16.203414375463783
-7.732017311179229,1.3011782465510509,1.550195788567069,2.9534441649890395,0.2428850373190361,0.19887405669420533
4.097438979315978,-13.113356732775838,-2.956143999396383,-2.8158395595622596,0.4894576975700903,0.9297234089758473
-9.651996634527036,-9.766819581396586,-6.762479816505632,-3.330243522431092,-0.7336011392240815,-0.22943953237570464
-8.856391777566731,4.211523129512163,7.32036204339494,9.550797169374347,0.4001379771588062,0.18119225933509384
-14.126301629236648,-4.548690520264488,-7.422429960641432,-7.889092725726994,5.750352907556564,0.35588442623676586
3.1285321146489906,19.701024949918292,1.7148440908684015,6.744755338087142,1.7570997853819526,0.8161661063809326
2.413767312444988,3.773304374411887,-0.39897910844368223,5.558058890146187,-0.4384894138748494,0.0836153966592037
-5.169213676057294,3.706873979690141,-3.4310133373556075,1.0017632570565227,-2.08804428070168,-5.29010517200872
12.483972263853477,0.7455657546096712,2.8536178261422442,-0.7623788179103619,4.682306557667013,1.5945418429424998
0.4919816507413888,11.117437661973183,-6.68004065842298,4.092046429178726,-6.613567160896273,-2.614600620285771
-0.9698872151768123,15.367157964495831,-6.629818046312589,2.2396896712581356,3.9426755015235644,0.3587847118198565
3.5269026887324513,17.492144833248766,-8.657439708703581,8.043731885624068,-1.3215909231527996,0.9876249580687995
3.264705638963832,3.592013577216178,-11.35365262784295,-4.554403763796804,1.5232116494217396,2.7370577395901323
-5.456331854411308,-17.7858553897931,20.70696950499651,-7.653953152603519,-5.6244346764499955,1.2719003516949
-5.437658340637906,-4.15275636918237,0.09165774232232726,-5.521211626348412,1.2627061212408204,-0.27981234768727403
-0.6989911477093782,2.434817441969595,-2.236766084329503,-3.3128827112223878,2.074865499932395,-2.8977825085393016
-0.5702582420630655,1.9214952471525137,-3.184172547406017,0.4801309222090467,5.996253121498225,-3.7520140487973945
-1.0186308872841905,3.0988187557263034,-4.199739626120629,-0.10165942855089605,-12.204321614980866,-8.580504257195225
-3.113100546725561,-0.09506196580949511,4.922728617796659,-1.909716652128974,10.42159282522018,1.25729028382221
2.5903382743030123,2.633024320084277,2.8621069425497927,4.08969796911378,-3.5255557859498707,-0.3676946125138482
2.5581556149449405,1.4219003188800843,2.9947969454495933,0.02005603008527901,2.801972381081102,-0.4090685787748838
2.3787591524990344,1.6853399113239231,4.0943737988563695,2.308481464692485,3.8598743032372003,-1.474254858304525
-4.0834487213715525,-2.3554359418314412,-6.756065642173769,-7.710570887118157,-0.8145558688896796,-2.5962233373617956
0.73402933244453,-0.5983089302480502,-0.6694946778031237,1.1712067654012142,-0.8725996381309631,1.22380626263614
2.8286774920173188,-0.6016568339091227,2.657955014938644,0.7722188536340268,-3.4956943252396275,1.9068523336123617
3.3053902649106974,-0.9121592120463492,-3.642926180660259,-0.6132433889587784,-2.4899843787184928,1.7522213085080365
3.061941662184177,-3.054151279501434,-1.4043262065717077,-5.034907941973084,13.790239369059005,-3.1032738845133743
-4.82497144269926,0.20275641628684174,-4.385120625434839,-0.8594108247753085,-8.303197626450252,4.712599419757842
3.1399700299374147,0.3399963187227112,-0.0714803683882539,-2.738060987434396,1.3842967461933617,2.324713577613615
-1.0494060924036566,1.3517085394388952,-3.6873396800254836,-0.5826598956659438,-2.5631054657509433,-0.12113754089576778
-4.9425476181767225,1.110388551257938,0.5473073543401862,3.3936417578115647,0.2525706276475377,-0.6038768719226593
6.013179695768491,0.8714145303058538,-2.951828685226388,1.6852168839905308,0.8922218462303964,3.505560074067737
2.745531503964844,1.6359266995472577,0.019286936797353382,1.9487479502891816,-2.329777825742897,0.9034808394319135
1.147682652382835,0.4676501944213891,-1.8772165301018497,0.30523963770024404,-2.5261084526720907,1.6191803911953722
2.778929892050851,0.995170122652623,-0.7347878866521121,0.4393933818607778,-7.483069106585882,2.7055499725106706
-1.3471449265168096,0.21394219231137235,-3.2535753879796694,3.0517543189011964,-11.144329941640708,3.736819686165458
6.509022470203946,1.9734239453871045,-1.5515468227091147,0.4564916183408542,1.6861405772809661,-1.3364969735103909
0.7064413091784238,-0.8199381358393623,-1.1439048419044398,0.22684062759702478,-1.742952446616508,-0.5981013180808379
2.415793987682126,-0.45177623726043686,-1.695777311295661,-0.6779252914164141,0.17337618712682257,0.7646318513039095
0.24859556873472077,-0.9198885307036171,0.8383040857603501,-3.551724821586626,-1.0289077108858142,-0.06347858535986386
-4.900654665305291,2.714441803969248,4.55824129187905,3.209304183986182,0.7353061262268008,-3.525226067598731
-4.453485481138626,-1.2217446197954551,0.764239945022278,-1.4803908943894317,0.9755690445367678,-2.0947609347004073
-2.0601177709149434,0.714215593488092,0.34530016313763406,0.15143135835665195,4.687919900177766,-1.4946359003869252
2.1712834597261432,0.7318827133169639,-0.5239570172663401,0.28121792872564294,3.1810014077534756,-0.9799088401327293
4.596457440722646,1.923909978875307,3.9734555595561285,-0.6667706674425562,-0.024099216267604806,2.507623499842772
-7.9404343301959,-0.014628815430024478,0.937509577473232,-0.7222430578127137,5.645908566573349,-3.9136670544671244
2.5066086786646684,2.0217080294780354,-0.21972412675699105,1.1880448342844694,-2.4464072596031063,1.783615757358613
1.0621047759526774,1.8311021468637598,1.2225266916933606,0.4621580858508229,-0.9497177042813858,-0.4872936407375291
-0.43562393310427816,0.33987490956189265,-2.5563681251089885,2.0863241004570954,-0.6476006252384916,0.6915217852913977
-3.8196620578788236,-0.7733354387384018,4.364306828876488,-1.8489735739269606,1.8608474113249933,1.023435870179347
-0.4232807208476823,0.577534893492492,-1.2623770194762423,-1.1870970182754519,-0.8500952895422192,0.6514890215206872
-0.309244561914734,0.9446611888979797,-0.7481983473404722,-1.0397638236177555,-1.908336963769833,-0.06522339560480768
-4.733520507030569,-0.6915745535295722,-0.27518819400870975,-0.565231451590018,1.0182920754046063,-0.3726477186847468
-2.22791039690966,-0.32086844866650915,-1.0124173303137198,0.96663017601599,4.15380538577867,-3.2738386097544403
-1.2782758904044016,-0.96894167488458,1.4450759450119386,0.605039911630407,-2.541598274798649,1.375181412130918
-2.6504742468084252,0.15307425893818602,1.8261560846876561,-1.8219645934738076,1.8988391905899045,-2.211613234195182
-4.820459999746651,-0.883154325217143,1.037674095866432,-0.039873760823477045,1.3652969430249724,0.12786440922699946
2.1588043430866906,0.018798926378117475,0.465874202369144,-1.2275055329698938,-0.2762576773069008,0.9472818936172046
2.9545359304792633,-0.10483981060343245,-3.4355533585909974,-0.5225864898075422,-0.31193650315996474,-0.36167775885522047
-1.0679314370158295,0.02367702554301085,0.5976654028788684,1.5386881749467438,0.916551547985245,-0.6379303061498243
-1.3715083374609427,0.1122556783038946,0.7296037593421804,0.3838902729285961,-0.92096475256894,0.7065509767222198
0.8821431511325473,0.14301128214289044,0.48542152478531836,0.4792811632548055,-1.6813809082728288,-0.8529564834235934
1.817624377734078,-0.16110579343863268,0.1029157040468667,-0.275959589815423,-0.606532094543838,0.5241959031694613
2.6207007035519934,0.8645221559090137,-1.3541214208840189,0.9114940376625404,-2.7259108153895815,3.1321280768274926
-0.09879394358630988,0.5185698306098233,-0.4937652346544561,1.0311369390273033,-0.6570090725463028,0.7168663499606365
0.3317160974717117,0.8138533429517691,-0.4843672726526656,-0.41199333814788713,-1.7667537935440603,-0.1754379233447938
-2.0307457033819083,-0.21023507806516212,0.3877375675547181,0.23734786544229547,0.9889485887760124,-1.577933618753241
1.7487997363329875,1.987772369349247,-0.16457111395024177,0.7206997189902192,-2.110568596864462,2.411829743076633
-1.0022435899145343,-0.2249850510163106,0.7188492195338436,-0.7041665578193401,-0.21757303605675488,0.8434308208893884
1.7084713136170118,0.060246921366991155,-0.0630663917896585,0.05930989905890576,0.17341082095888238,0.6465386565837643
-0.5806591630204745,-0.22785612514973103,0.3504184995450135,0.17205087507538958,-0.33328213724603106,0.7331179504464256
-1.402250286259002,0.37842409611791344,0.38532366712212907,0.05935764370357882,-1.0160325041664757,-0.3714242838597178
3.5465622395188054,-0.328877994866877,0.3546352751993243,-1.2251616022347243,2.5751013498624746,-0.6798042991475239
1.0786840701308553,-0.346136381789137,0.1921411593176386,-0.31027778554304286,0.12291051826978622,0.5396416884680463
1.7224864092306489,0.7240925082006925,0.3822521782124932,-0.24176616103151483,0.5149498895696305,0.35391821298720083
-2.93788125947801,0.17583235299251834,-0.20542890186901186,0.294400970032619,-0.9892648268620869,-0.22007317051898198
-1.375216430742967,-1.5255587351051973,0.5220315244802783,0.09752241432609604,1.9758561679823667,-1.7409425571829307
1.8970414712430586,1.5066172641197273,-0.5332023172324392,-0.3305111483157519,0.20345596273079242,-1.5564721938979302
1.0178592591199906,0.21334770008052933,0.2523306835051286,-0.12780972684600073,0.06719979676876199,-0.9329942492808962
2.085893538890279,0.14868419165604418,1.1261321335661612,-1.1710117076088915,0.06623511856782371,0.39379377257892156
-0.9414021754060942,0.05184021695537,0.23528860984356162,0.35467691991247186,-0.045950898813821,0.9035275972391401
-5.691972188935682,0.2773360497379733,-0.02628283562025336,0.2413444358871986,1.5735558975330928,-3.767251475555452
-1.8048898138426142,-0.011629595221510719,0.6275563334266149,0.45975635790933356,0.6212903241480966,-0.8161529421961842
-1.468228290365603,-0.17787733222931648,0.09063458623715001,0.43416369497168616,0.38894884107656164,-0.16713694366048865
3.8277721630021255,1.210597147878859,0.24723630215719178,-0.3922785330080491,-1.3480790514971503,1.9094117624176932
-4.452146998239513,1.2591112482088012,0.6726645258199048,-0.2687027125761745,-0.6170868013487655,-0.7695034649345851
-1.77240039632943,0.43595418967386557,-0.29346166516023464,0.698225331007425,-1.1779847681654498,1.339538658400824
-2.144376880540275,-0.42088829447844833,-0.30461203991511543,-0.31295092483665976,-0.12001699809896554,-0.5655976982594746
-2.829011009304688,0.304849946821566,-0.7650844827085663,0.7568764005489681,1.761218118622122,-2.4560036213357277
1.583814001856804,0.5273127099738336,0.7578759310189912,-0.7670002176926447,-0.5081042727864563,-0.05740990744244856
-1.071597543913575,0.4488425132818399,-0.7060320170314393,0.22211798226822313,-2.0980251780852295,0.8620189089408361
0.42700329428210415,0.562544627547717,-0.8021765335217348,-0.37509306554104327,-0.24897825151528574,-0.07859863712228
0.7906413652399206,-0.06484302700439423,0.5578773459951062,-0.5003210927350771,-1.1729114199619395,0.7668904543686736
1.0480903129724664,-0.4910558533528099,-0.5937915746425346,0.11616816298432693,2.0070880113078724,-0.9947214170151013
3.5590103717881614,0.6647316337855049,-0.37574186219629924,0.24623119664950838,-1.9378532326171443,2.1383577944833667
-0.3455437325744634,-0.44712706151036963,-0.47695460019315816,0.027987792866595973,1.0963544247880606,-0.08801586899102731
-1.0607231416621574,0.9057263267903726,-0.49487974731205586,0.2232280503150708,-0.9450032033028261,1.415263613769876
-1.5527847308593994,0.0970160754118827,-0.028887210411155835,-0.27521742651124714,-1.9575809475046415,1.7245521595783186
1.1779648136699354,0.09269795094480622,-0.10072672661800194,0.2310199486187286,0.18895489002596605,0.7166075694578518
2.820598212414009,0.5099951419449491,0.44375819639728653,-0.35180106491645263,-1.7608480978153613,4.334490973273025
-0.38157262332342523,0.40931725749437625,0.043594063445704045,0.6604923438458438,0.8455894184197835,-0.8474641412629909
-2.0891246155443137,0.5711189631471433,-0.1976760834983932,-0.005661734474298594,0.6865608596456853,-1.4793863406254242
-4.928464724277025,0.5161746642198052,0.5752693856929527,-0.28661239934888605,0.594824955207159,-2.451476538874624
