Gx,Gy,Gz,Ax,Ay,Az
-13.174671,7.004867,-9.384043,-10.606,-478.68,73.26599999999999
-6.839868126429845,12.670835732616444,-0.26193950274165734,1.1582090659741702,1.7955314168887473,2.2111682302525812
3.188995663524361,14.589206674519348,-1.362539626778533,1.6351344670657058,1.4563642058459176,2.444793450161809
6.8031120014183895,17.36840358080289,3.3929105048870687,4.676556016476404,1.9687671359363923,5.871481589508608
8.645198935407194,20.943154695068458,2.092383124155542,4.58702275649276,0.5027237528639014,1.1632232253615233
6.552763699575873,64.57242710180677,-2.4614796182574894,9.182690941321175,-0.35355541035958066,3.2438668451995003
-6.934190980954489,-80.49261606144576,-1.8538518844374914,-12.04708808504368,5.707292224100364,1.4567936329812876
0.9490842130604011,-29.172729276084144,4.133883450696258,-3.270851297020157,4.8356681555239,0.9076538990060966
3.033345435784461,19.97292261074518,2.4273362317199076,-0.19595558643064837,5.036431576428262,-0.5187400365848065
7.584529307993323,14.382924599386838,0.6258027245962731,-1.1389915754115836,10.144176825575194,4.036069679472307
4.030293253927511,15.16422324629561,5.612966755383509,1.2546478383484723,-2.185626006570712,5.951292564183727
-21.965391546994937,13.94433937443549,-5.956851512929714,-5.736481158241152,-33.68454819703232,-22.58467769019275
2.8833041403919175,-11.23423172454618,-3.089188522662506,1.6676774220421389,-0.5486833574424281,1.860787215690452
-2.1187112426051806,2.679081365787493,9.446243678455815,1.154733433354231,1.21074623446323,0.003751988343056567
9.567726410750177,12.188470885779068,9.674105781956928,3.2525008854528745,5.863543410162148,-1.4556750296443515
6.809967467258882,9.901980733621347,20.427301505625934,-4.927879214634798,3.140754726219648,-1.9226123105492783
20.965952307535904,79.88361453696574,38.929525609921455,23.57412699693359,11.068652160434352,0.6586975921265594
-8.477183958821001,-51.923132394843456,-19.556800285463808,-13.864373529873703,0.9084257665605349,2.8355597874461624
4.663326680223723,-12.625967750241482,-7.763039464326304,-5.344844057345224,-2.5803329495325644,4.5087625890631795
-0.6527943775874374,-16.42999229470941,-9.687526242028309,-3.030650298756032,3.012541497861875,9.392357095675756
4.502944703965191,0.8229069053736466,-0.6995696421110962,-0.1772757124797184,-0.31941725414021693,6.939706444805134
-0.20928010099671956,-10.538148098486127,-9.043682911101872,-5.7261445253834005,10.055701323414597,8.471944520889393
-0.8332860164770821,0.019956184019547463,5.112562205812077,-1.1264272080854107,-16.462467864636462,-38.675054365805316
-2.9782735650837786,3.0094494460188073,-0.48089967592691174,-3.770440410536821,3.620930505460292,4.490545189161752
0.01637015140101239,1.055027031379824,-0.8214625068014326,5.216696144838167,3.6182438366130936,1.6678885132523906
2.911171315448705,-5.03527714077255,1.4484973791173812,4.5801176430250905,-9.710426537193149,-3.23779533520365
0.49977140783816343,4.565078357616591,-4.395809265953472,7.786688386091826,0.19616288184389655,-4.357369866621905
-1.7313656603188843,12.555385695902277,-11.666010997280937,23.77502348064196,-7.6706213589721814,-2.3499847223521484
5.124854308625746,-2.703232587400142,9.645929315100366,-8.371583451500857,2.1666028392988808,1.0152753873732399
-0.2966142363676405,-1.164634082533829,0.007123514877562354,-1.9207777727923256,-1.0823273636719097,2.252842128574268
0.019362619334134745,5.461803390549268,0.8808420138649641,7.801897033382456,3.5912303877523066,3.4607802499713944
-8.795833670464178,0.9936756519098804,0.10446647336912895,-0.1784779855763018,5.39764890655212,1.8689143354404911
-12.471987183744043,1.4445246694556504,-2.0485875043545456,2.225690541196591,2.9811137282243787,-2.0920040345022963
11.90501700108938,-6.0132504938609195,11.523028931137457,3.1109060342680777,-7.66689674160844,-12.497817890593502
4.338848513399312,0.33513011479738375,2.7162178182081664,6.215675799691036,-5.983102153514223,-2.548988052200201
-4.1110374475656855,3.5773929614780258,1.929359468610068,3.3574589189264525,3.5295982546045677,1.1537580637970368
2.158504325263034,4.066023434926385,-2.1317013205005892,3.5684080786586225,-0.826221507431472,-1.3909027691188425
-4.1273006331076205,0.6865095579635412,-1.9979545562847085,0.9772138961519454,-0.0540369146632258,-3.881510622217425
2.9455598861171457,7.019701894534151,-24.89802335111208,2.304624700466685,-10.594800292482285,-0.6056452682538106
5.213177758946806,-7.123196790778336,15.39675015239052,-3.077847628232804,0.8310898324065862,-1.7456371970700133
1.109129293491747,1.7511816327734002,-2.122705844163594,-1.4358010851410838,-2.620013713014043,-1.0484627203970334
-2.427702934333734,2.3132351286593535,-7.86503671526673,3.2133332411123425,-1.910886288856918,-4.506076746123959
0.06175781478740294,-1.645355389230863,-3.8497628606680414,0.9374490395280183,-5.370435579338233,-3.5164485600911597
-4.121409122371409,-1.2759093850030137,-0.2534171258862099,-0.5371410433361037,-7.457858735421181,-9.505309002929959
-1.6615576136887322,-1.959592714995929,1.6665215847001706,-1.4259490546815656,8.107674574022097,1.8806368991850007
1.9079067818454991,-0.5234221370733166,-2.0857201260156204,1.3153676845338604,-2.8884376155356426,-5.958212304153158
-3.9857620963851446,-1.3212700136061488,4.264979982867065,-0.20245963144203838,-3.1573466985068954,-2.4719747471434474
-3.692842695516611,2.2774176662466816,2.8351830076117643,-0.7434697148503664,3.073808805169305,2.4100641137998604
-3.959718736345258,-3.497497574274196,-1.154176299705391,-1.670917507571152,-4.6420981274922335,-0.3426818926975068
5.619465999763692,3.566514883582955,-7.370921641460376,-1.1500301684440857,0.20069654099127088,4.311660982009597
2.343742187672724,0.7478331143935358,0.9559353323827235,0.2370761864262979,-5.89231563583852,-3.8236908890345567
-0.13213582029527648,1.9330974516150634,1.5864545493547768,0.5160725036929218,-1.1646612048469653,0.38549464528487576
0.8822339258928098,0.2789606676461464,-0.9901491661069753,1.888860780898585,1.4713807697472392,-4.693688604809691
6.619427895564858,0.7600204295963946,-2.3438846935789712,4.724749788674866,-2.4299875225688643,-3.636963055550341
5.170949925908144,2.895848744391646,-0.5583060421255763,1.3021863869114094,3.2983479075560234,-5.4993327536994885
-10.138135730031497,-3.4865983739132016,-8.648727667418955,-2.097663371630468,-0.9358880008841657,1.64744148677887
-0.20037863449245985,0.5190703235108131,-0.9691410085381811,0.1789746238413632,-2.442873404393551,-4.109219942443968
-4.6463180929778805,-1.530278025676651,-3.3242934265147364,-0.4290542228836707,2.6262216519351247,-6.014311478936462
-1.6513907807174704,2.0483653914613593,0.3019412775649304,-0.384959658224423,0.01004186249265393,-0.5551810023102037
-1.7102704037300092,-3.239920660156538,-1.2145512645491037,0.3046477116269442,-0.04196678156545519,3.7145056630213418
5.571321965406012,-5.083296940710723,5.56894877098099,-0.3036122650963191,2.162361615182482,1.5358388873300108
-2.044805712643051,-1.5782192717987826,-4.146673181363864,-1.1493675335274347,-1.7548657125335307,-1.911600358005601
0.6953346145734963,0.904752047937031,-0.5052526927086949,-0.658276889725256,-0.2908174259674965,-0.545833603650772
0.16498795630398444,4.65465852570291,0.278977623596389,-0.1619136837080588,-1.538924445856653,-0.6464840516028785
4.885675510408191,1.9479103493265202,1.0373949449692914,2.692139512493741,1.8961309989381636,-1.3261241614089947
4.528374580923625,2.321793200792241,-2.3286796572191513,-2.9843259980387566,3.5202488817290094,1.603430919681367
-8.640744638728645,-4.888266212828369,-1.7531117924267254,2.2789736410404546,-3.1263074876225634,-2.326998097398419
-1.1762194239671029,0.5783945025130548,0.9912941772193622,0.024645998459594476,-3.4019947901453103,1.869162217034047
-2.624922058796031,1.15232690907786,-3.012443587445847,0.6246724587673027,-0.4328411821888702,-3.096218439217303
-0.7174209004501699,-0.5898145273813196,-0.7614353222480337,1.5077693125040224,0.952553226417761,-2.3187133538074494
-2.2906943054204154,-2.382515401776124,2.7881983366582164,1.6779901535994992,1.0695932747734391,0.6049524327010884
-0.8193059258290925,-4.730910696144487,2.7554250576544157,-0.5550676528810083,-1.6694607165263413,-4.556174265429789
-2.0940730344895018,1.466173050081642,-1.7607847238058305,2.2398486383092395,0.4456545789630173,-0.7738282352250283
0.9007438504578704,0.013380389389300085,-3.3693778281907827,-0.2893933208598152,0.47755594726378514,-1.8788943956940463
3.078972509129324,0.4147932416187131,-2.6869476941712693,-0.6571453851128551,-0.7757534727030704,1.45370640311803
2.955001232996271,-1.5805137324428906,-0.7956826036223217,-1.0714504494433301,-1.9753091818498643,0.7864237154962912
4.0701747829172055,-4.351530628077194,-1.528669662909742,0.8125701051911467,1.6823991921457229,1.0476010345618842
-7.023622325003247,1.4268654290395189,-0.6304535427638784,0.10504297521073758,0.13204086246723146,0.05790342423287509
5.223051866630168,0.34669862942514307,-0.7932110442760698,0.7608493062640977,-0.40015505562642195,2.537864400816008
1.5619989208982847,1.3771346184233852,3.9313258901476917,-0.36574184487780226,-1.1755693331471426,2.891708714874084
-0.5486090000000008,1.1504495000000006,0.9986840000000008,0.20000000000000107,-1.0230000000000086,0.10600000000000001
-4.922221045368717,0.7154508262016903,1.715787988551452,-1.4315792682516026,1.9479579461864212,-2.8894425117731637
-9.995339457149779,-1.3069735269314875,0.1940206575141179,0.22450679492578995,-1.098623316083016,-2.184307143138384
-2.4766790511797487,5.681305810260353,2.36176669210262,-2.0086809167419046,0.22424556728243863,1.9378371638653886
-1.5654555861275712,-1.9820143916445594,0.862900919286067,-0.40739538585903323,-0.41684920808602366,-1.6645443169545033
1.671109109116765,-3.319932566775453,-0.6407694682684824,1.34345729950534,-0.41341753653114743,0.6054158506998117
0.9526162765499523,-4.48640940402065,-1.9005031428350958,0.6484958329109306,-0.3082968997576039,0.6676911876568559
-1.5550181231383837,-1.6833278333256665,-0.04473677243450391,1.9664701597620644,1.4115755130458538,-4.505096400958292
-6.8950085748627625,1.8361449981824292,1.7053421618247624,-0.9882914304521091,0.7239838757628982,4.842886253817232
7.734426991215447,-2.349365734548309,0.7585834296590939,0.14568448991191685,-0.507758601593836,-2.4728064808855237
5.223077065993034,1.2851855297575945,0.6294203992629284,-0.9390929604344445,1.0485367585756387,0.04542230826919558
1.2019638314656593,0.43145558431608677,-0.2637986560120589,0.4756729484947062,-0.6807649919509366,1.5257081160999175
-5.6988909304280515,-2.2347829633594243,-0.06948013166459444,-2.0685931040989938,0.7506751666997582,-1.0073389812961173
-6.429514848352636,1.7868636066858512,0.35145304471122474,0.48655540779245254,0.5151135616432657,5.777466309097603
2.9274734691862463,-0.5924349795923107,0.20050515542624903,-2.7400070021656506,-0.8799871367433716,2.1471082628423557
-3.30976004670666,3.4597058579299333,0.6536103849863633,-0.2879509339907629,0.8542047296041294,3.5407471082810624
0.012541779737343717,2.4933640221638416,0.2738904397323645,1.108497260948702,-0.27186223258499354,1.6009775275224598
0.003155218208326982,-1.3123034373863987,-0.4787968454909042,2.4925641510590344,0.7237098759958911,0.914418240143358
-9.702478703400505,6.995691241861284,2.137747596088965,0.5598105938648523,2.8738417871899924,-1.804487156769599
1.2919692337519728,-1.6628032127627508,1.0511227249976514,-0.3181243661312787,-1.2349127683467143,3.2998741190712737
-4.310710939765741,1.3200419945131239,1.3592517006307652,-1.685525802670186,1.1865953287016398,-2.2991110943998176
0.705513341625137,-0.8043280951749545,0.17246642194376138,-0.5418404895016034,0.5293304368531677,-5.166149365428663
0.0640275611374288,-1.8943981878996676,0.8742486339587342,0.09327290548392142,0.7344743173980717,-1.1320198117526439
-3.358723777238062,-2.716928528126786,0.6647689641866047,-0.8147626975698894,0.04102992731104799,2.9788532940599315
1.9420471309983545,0.5545688395372063,0.15631664154703995,-0.6947634071676327,-0.8586541103178761,3.4694375471039725
3.666227361349232,-6.127756262731664,-0.669685419378359,-0.69859897666713,-0.7038047986618867,0.5872751587310536
2.402494783772224,0.3078134016679912,0.27137962913542246,0.34404707018981917,-1.0000361380328282,1.6498928684453904
0.7809611630458213,2.7311283762781153,0.7205552197508548,0.10855363214423575,0.12216046630572891,1.6741241166332737
2.468395392520413,2.9010748333150067,0.46949924448977637,1.7591927756459047,0.07360097816267772,0.015180709876854936
-7.382745840513933,3.8478475337003064,1.0827919453803108,-0.5837295986999899,1.2552447972622114,2.654114107350802
8.255723724055757,-2.2313535046766866,0.03934605280954043,-0.1278911441911899,-1.7421752048570858,-0.9851720470242974
-9.225799670991933,1.9409410586515696,0.6850887035988451,-0.8944312059437755,0.5778454892375304,1.528949261254431
-6.811589320692716,-0.1395714703266886,0.6761297056294094,-0.4659488168626188,2.127302958151621,-0.7379759896543054
-1.2684600028844617,0.41904399689109456,0.8516703478696195,-0.870923404494359,0.24145539352136824,-0.9830149210692212
-0.6040943953183038,1.8636894048221069,-0.3386682259131375,1.0931580891502568,-0.4325472155946043,3.5892083015508858
3.5642833064999992,0.2572403898349368,-0.049214181972081494,0.1551142011199009,-0.1487159505224963,-0.5229884214990637
-1.3882603088880159,-0.5493221030289945,-0.595530806096155,1.3335694938685179,0.33757275698117484,0.9311860247972128
2.3752548859051816,-1.7367798826252583,-0.2919343841144753,-0.0658471556439093,-0.24013318633564795,-0.681295909074912
2.419129694330445,1.0260970606682174,1.1677375927448808,-0.3160286171178553,-0.9168381737040555,-0.8449501357087401
-0.5464267922019876,2.4912526520232348,0.6357829953385421,0.09643861343225787,1.1610488104985524,-1.504199187274447
