Gx,Gy,Gz,Ax,Ay,Az
-7.277232,-20.689134,-3.444012999999998,-47.666,-477.44399999999996,34.338
-3.355423301607132,-9.718697425369557,0.7371622877753408,-1.871500515738636,1.2480231780338333,3.987899486148785
-16.313873523621513,-18.955519502701605,-1.6278848846984637,2.956781423753875,1.9510721678830714,4.087029630803966
18.800496721027304,-43.47259754503528,4.544457720443077,-3.432078552003535,2.765486569387726,5.311282193987886
4.397292851486187,-13.15293521023765,6.9189989319981215,-4.1888474812374685,1.6313338037236598,2.619455302508052
-4.7246260805295455,-153.3705077346159,-4.997663948940207,-4.457897173506266,0.7978947606136835,4.638802696138919
0.5052574329057942,49.337051744927486,8.765814883697267,3.0618358532941734,2.5641809734630305,6.381564824065257
-18.3177483044511,17.19725776895848,-6.233206587730235,5.183486199415729,0.36514643990825557,4.435912385004181
-0.8948228998341509,8.708443678677302,5.972114446378915,1.6437495001451006,1.833261466150966,5.944670744185684
8.769865215382936,-15.856502472364694,8.559890138428074,-2.482651968519477,7.746204799051924,5.329313493373384
16.733183861726424,14.645638011360301,5.775885317382719,-9.236447827906197,-1.0740393124328502,27.825887118019637
-11.550899454818207,24.378047559692575,1.0657964924897394,6.862512479710269,3.213111575812283,-32.1388231524578
-21.937919497085957,7.259916055229326,11.133405425455281,10.324231680503793,3.082016960408974,-13.781643345788424
-19.867501856177608,-2.784013762250922,5.308169289682789,-0.5870389588176543,2.676311111644498,-0.6652378973311297
-18.802246335868688,-6.079539062468216,16.351727226629702,1.0580671620257192,9.93712886419394,-4.523365426003336
-6.141662979162897,38.36531464027783,57.730640178841014,-3.5539658477006744,-5.545982524127117,8.52387340184006
40.362201340304814,-51.61041697309962,-98.40901441561257,-15.37454015583578,19.76201288647089,-2.4227097008845715
-5.5358923698734435,1.4222679592777148,-28.766297085293203,-0.14082038274224773,0.8717281705366149,-0.42377702576659937
14.228262830280357,19.09987716813213,-16.824841799856635,1.8415960211855316,5.087094399234246,-1.0847523173964226
-10.406576381065069,-11.538004837504609,3.972684395878506,-1.097354761018083,10.331761935937205,0.5666523741134688
0.7945771867258458,18.639317747039545,-26.812775104524256,-5.220778985149099,-7.029158370940213,-2.5589189385630173
-35.61590884822721,-3.5368153907707978,1.1877000466935002,1.5974269387996665,-14.999029235483587,34.53855801371487
-10.718438842053976,-1.008546792270804,-4.043447387926144,0.04715420264750991,-1.6259950935920884,-1.9774811637184615
-5.315833127392376,-10.676518263511888,-7.022994419065062,-4.099252394427339,-1.7776998845121503,-1.801594471261746
-43.64802624630222,2.8891732050760663,10.529554890483453,-5.533547907120358,8.796610102089522,-2.351287843459512
-7.826395838539659,14.784730274037091,3.650938707759102,-0.35159163643703417,8.336037513992055,2.607335176099811
-8.251433963507477,-53.82459552156523,-41.18467935707877,-19.89485137256601,11.971668583039186,-1.4591302797311574
17.61287018920493,27.838838879102912,-0.6287100823896097,27.81123536994712,3.963155754002848,-1.7863493101121002
-1.6659701813577446,25.8135157255087,7.725391280060887,13.848216197570373,6.331375141340716,2.4215739043588522
7.4143382608003385,24.883627037666145,1.3710804016902551,13.847681348076433,-2.9817095561655584,-4.600833997102266
-20.13870103212856,-5.831513756050582,9.556989641400794,4.449807239530744,-2.434778702879724,2.7302225713227504
-11.584155714809848,-1.557534972748793,1.608491071377995,2.760721606480718,38.732453157809715,11.162047386159454
-3.3933927442741805,25.412626413026587,13.622664119589214,12.53535670659117,-48.67850282174264,-9.030366997020831
-12.20484829795232,-8.402245556736869,1.8235280463430321,-4.868575646362979,-32.73994284956473,-5.8178601478669005
-11.360326737953121,3.6928225731370894,-3.8290281128214065,4.252462863660468,-4.372450950261319,0.4924268614290286
7.597262384647536,-3.0324909048037014,0.2385537898330916,-4.960377780844097,10.478286902748145,-2.016189381076946
-11.68124090597869,-0.7529399825738025,9.74626758519571,8.865598188100945,-14.292627040168298,3.198657055939871
15.597713426226125,3.268325130952569,-6.113536006827991,-20.509910194723055,13.97930122826293,-0.22045214392890755
32.22772741344228,-1.7739059939609456,-3.5789873932277567,-6.865630953326982,-5.235339823040307,-3.245902600218725
11.653712747722018,-4.733100202616539,-6.389385639152777,-7.960855212994058,-14.174740181588394,1.202941455848432
10.97902299899505,8.716084533135287,10.269354768225561,4.716507371645314,-20.87529046191772,0.18217177615983182
-10.469028314128881,7.50752218876665,-9.322409956140067,-4.402122149192968,11.333657332260426,-3.2866322396695242
-0.03756275826765254,2.392546567619241,4.80382324705776,-9.702060747275587,-38.81612832259201,13.603380114692655
-7.5391664283662285,2.286560889790266,-1.9318055526109639,0.9524660649199159,1.7725259085959892,-0.4830574664183307
-7.300999083085394,-1.6111562976627543,-8.715077812617787,1.6745414370158258,9.578096743225789,-4.914330271677104
-17.03862178406645,6.659214588242891,-10.089869684861913,6.5349835731178425,15.0400772167277,0.7120877430568552
8.781456473159285,-2.3578777881601374,-0.17853693046271335,0.8798884970824096,-5.815811509163309,-1.514605169114612
-4.005012742399548,-7.755881324845667,-24.79683702972396,-20.66378704251658,12.260178859354252,-7.137433768419309
3.9632947322008096,2.268909496578066,3.4917479413210426,2.7470902147997904,-2.696754386088937,2.546355307895137
0.7704976694764047,2.526170181611724,14.077694290965326,3.336120400617836,-7.523356106492058,0.1152060957900014
13.807524537595139,0.8638804091135213,-3.6382522469707075,1.3875670376216445,-5.9324141871048415,0.16070785213120276
-8.827770905904208,0.5624362555287581,4.823802329145233,1.9955601571341166,3.3739480785164373,1.340516043344646
-5.374876867081042,0.719857670292595,-6.010615287913271,2.8602654086220056,5.753871126799508,-6.769718361877544
11.175084018862368,-1.2262825282079939,7.718822146006158,3.7704371012230027,-4.421800386441581,4.584432746905677
-6.611080907597408,1.5083186220649192,0.3644677928955804,-3.1656532715805787,3.084198160472109,1.9025463696083569
3.388588957775613,-4.5334624762599285,4.382506434122064,-0.04889041110629444,-6.482587353631409,4.042018760031996
13.01979132857927,0.4448087500104443,-2.9437730807894185,4.865936410072523,1.2369569469776978,-1.4267966703251602
-6.496377875831606,1.6876432904271548,13.542859403832297,-6.302526003451934,-2.698839593713783,4.2384316747669075
10.223495146051267,-2.2215561543120157,-14.767243155939433,4.125325379842986,-4.767751954583245,5.3744362386429
3.2071599155332393,-1.5103890584498156,-3.6344542158923607,3.0932404562809137,-3.6264212328593337,-0.9378237630348125
-3.80270398094132,3.4811131989126767,-4.500268466166178,-3.858736057046685,2.56571588399458,-1.816823875288771
-9.665856538042735,0.06407704337744935,5.523896031340632,0.49160759695189604,-5.495640564569452,0.4108745670580438
4.230661015177544,0.07206342565149004,-6.472073502033451,-0.7921741303126729,7.707222153210999,-9.223851923788363
-10.19575829554319,5.904620868537134,4.684836196791178,-3.750692616825403,-21.26536036021951,16.66792440360026
-3.191873895200743,4.02762872973655,-1.750252333660927,-1.6881448543220308,-1.979927137386901,2.4417815497927613
-2.983864893051061,-3.4985924216222144,0.15567518781420553,1.0226087105558923,2.646704340419297,-1.6224394423911608
0.679623911010707,-0.4410990382046498,-0.3776305508759821,0.8358439311317796,2.6310102210527226,1.3402452832928355
-7.227693233162113,2.094453983437139,-0.6534011795303907,1.1979274773928161,1.1249688956642792,-2.381410583666566
-5.447453221117464,5.101366232385206,-5.995545555495095,-11.939407163240514,3.0799445198920714,-3.628888157264404
8.07709308588774,0.3725206312245275,4.519359843364224,2.1004400888650046,0.5089426595764415,-1.8833243013740462
6.312701006390823,1.8130864456525546,2.880149805353538,3.3982401257818227,-3.6890856106550602,1.8003311105841568
1.4105945928358268,-2.2814487692133985,2.541528323442324,3.784711513742808,-2.229850522826789,1.197875821504819
3.5947802793756645,1.0959923086099683,-1.1677316717202684,0.32166224599120685,-2.091707198205061,-4.309249212387149
-24.84870654995106,-1.935927142618219,-1.95829185194548,3.4723343431941447,7.958728656038812,-8.962521281072178
18.40000357024281,-0.7452789520596519,0.16114043953644663,3.1247037681422687,-7.577498011240605,6.071416655624219
12.459198308017193,-1.589516969579725,1.3288872172687327,-1.6444882024450058,-6.79694670189498,6.313630161680182
5.80847646596235,0.533818915064157,-1.7437927594790197,1.3159035192156194,-4.3969551173797505,4.838504987675298
3.103834027856796,-2.370519609649855,-3.6263436176707913,3.674374130077649,2.4426570401278793,0.7197102753301774
-6.3061316552249025,5.7649531460388275,0.8222725116666683,0.12171560284730726,-0.5685359670200332,0.8109740508305157
5.104514028510312,-4.108654637974406,-3.263177002054361,0.09840394288090393,-2.0140290536960084,2.1220034465715507
-2.3069822663789052,0.23406735025804792,-0.5382169603947216,-2.941698480696077,-0.8169471294155901,-1.7949690722263223
0.32521778914724914,-1.169600026024325,1.0808103303026748,-2.984892073643038,-1.0979233848777223,-0.2571842098117353
5.4384099762364855,2.3068715324072655,2.164213862198714,1.5263811044683417,-7.855934011761253,2.6663629069930237
-1.0213519129742066,0.6525299973439558,1.5724637155282872,-2.6141948709882943,4.272325681538705,-2.5634368124961155
-10.108409159140061,1.9228609383321609,-3.7034867641306115,0.5236742635865386,-5.884807929062346,4.614109373611091
-6.2614638756552266,2.0479506119573303,-0.046336662564373965,0.06382278433283162,4.768154065536141,-3.907042164846993
-0.444516277082605,0.0769157352827633,2.22674851151661,-0.02406288287713687,1.7568880315280124,-0.9045981687392612
4.185639471907094,-2.7291484282563734,0.14829048261869826,0.1166119320373813,-0.22988289884456314,2.509352932384947
-4.271841307943207,0.4224101654973116,-0.3053843891631354,1.0415754102461443,2.9863853361765313,-5.168002857072801
-4.083215572704672,3.5039912154142514,-3.0080385138303276,-3.8632391184544845,1.5441419573789616,0.7633079478508193
2.070463303662839,-0.8123706003348752,0.23787364320519377,0.45509467202959586,-0.006552631161008904,-1.0141518647321204
6.089216431921471,0.22243130809468314,-0.339866463217533,1.0848396325242944,-4.922227940322831,1.246245880884627
5.578067455618044,-1.6520400554078507,-0.30247128633727227,1.4969956252541503,-2.841697941874602,-0.0313689567867419
1.6390752639162955,0.12487668154479592,-0.8625432663577082,-0.18709110385805527,-2.866645686457047,2.839241563661556
-11.528181261170726,0.7590738890623827,1.737555857216755,-0.3462355260700899,6.0965866422487345,-5.723074326361118
8.487732822181018,0.965941331681385,1.9085668440190167,1.7484717898250985,-3.5055684583492557,3.552153440982205
4.972973848739812,-0.9071541039601954,-0.2735173508581086,0.3641962626447153,-4.838333902157716,5.229132300837351
2.895843633345793,1.756940053689755,1.1154680477640087,0.4683700090484779,-3.965260422652913,3.980465246554421
-0.5750224083111699,1.027853859584247,0.3573363656856905,-0.9414910663071652,2.697658735465252,-4.2453105512452955
-3.1463929294457125,-0.8022045721606753,1.1181270604218048,-0.40012697403591524,-0.4647649267342553,0.904164512563173
2.8201275575667584,0.9124274997257236,-3.1898055857227607,1.118761541660163,-3.1792806533782274,2.780102435700074
-1.599923157164108,1.2624833213650355,-1.6629010566969518,-0.20158917363646334,-0.5036393522508229,-1.2062457353290346
-2.0579005240942587,-0.6151156737825918,-0.8680842329182523,-0.6082335008886224,0.7411265816000978,-1.3330903087184187
2.3461276398529565,-1.0238948414399176,0.6391441581799491,0.5491130008524518,-4.002656242810392,2.04193179413316
1.4349531271199307,0.4288934541968562,0.9760457784820789,-0.9444236451889823,1.5681438422344236,-1.3936581124230902
-5.825054143792271,0.05019649995662831,-1.3977830643270615,-0.19186956173385922,-2.753463289946911,0.1030433524634311
-3.089902235704804,-1.1185388951124535,-0.48440833014024687,-0.29563747328727663,1.9445819499110655,-1.4597121455967903
1.3651779608649997,0.3632342168662632,0.009682187628362926,0.31363322499144264,-0.3221521494092219,0.8153715281643537
3.596359486587149,-1.5792233275995389,0.8750110437269684,-0.05671636139663816,-1.6392337630909388,2.7786443969260968
-0.7700662798421637,-0.2664560966533138,0.02754087748286066,0.005130561164864045,0.9999959296609986,-2.2220366268673097
-0.8908182433139937,2.034901987471917,-1.052061097588388,-0.9424719370546475,0.4736012617407164,0.37529601003739266
0.8144830424621445,0.37162715176714767,0.30063194168512974,-0.22549056052664973,0.11972745882104596,0.9108210894561748
2.4573587917456186,-0.15611379904401312,-0.6128291391497537,0.05287305715781432,-2.954014477143588,1.9196181225083817
2.3621425620017207,0.6716372028184999,0.28036668974815104,-0.11598115938074638,-2.0753641448120206,0.042309665062923774
-2.447473088623232,-0.7224036690143787,-0.13313095633470806,-0.6082346061683079,-0.6100130164237552,0.006518411192412588
-0.9570750652694815,0.5716251767817954,-0.45717461228392686,-0.054644532339031104,1.8152279013798704,-2.9486407956382465
1.3791193592063695,1.7781217504277325,0.9999922818952367,0.3510904940259224,-1.679239633306258,2.1097201951440083
2.3143503271973556,2.514757625439012,0.8842462465172418,-0.3979140233111178,-2.5617192389075747,2.397747488442486
-0.07013404060042683,-0.17083180675315113,0.6056401004375107,-0.41648528773287596,-1.8691952894493868,1.3680520260548592
