Gx,Gy,Gz,Ax,Ay,Az
-8.226853000000002,13.903154,-1.3022560000000012,37.589999999999996,-451.366,52.91799999999999
2.9562552791914807,7.423053875661601,-3.523999332177534,-0.2847663918900465,1.530033395198231,0.4511208247566869
4.555733823414793,10.701000595348368,-5.566183504726705,-1.7568001980785635,2.4351916484946816,6.388560859390109
3.5827404784564676,21.569711716711296,-10.184080455403342,-2.637097373967427,1.9765286569060574,4.339982987560977
-5.369699092086111,41.61701010979115,-16.522514970178005,-2.973621002541596,1.8407402707133778,3.7902346179083537
-9.256660558661252,-114.87026995870917,43.913123991478216,1.9175819417519713,4.6905320158716135,5.182823820058837
10.419457989465473,-7.310652237611421,4.752072963750965,-1.4624677522259697,2.594168881587691,5.301467740756567
-1.1130454908897884,-3.3604344133291835,5.334209171565693,-2.1290865490334827,3.8600119161259006,4.611441749707945
2.851867874558251,-10.673994684359409,7.770079207307136,-1.480909290466198,3.185951717587476,8.495475376007807
14.025084763053163,-0.5086620547797978,10.843136638849815,1.7255568297043768,5.761189144807545,15.398151004339983
-18.685351214180542,6.203904816761152,-1.780148441223197,-1.5017141423895934,-10.55723214989224,-20.55592559536944
-0.7535864700467552,-4.609062878714015,7.013038299240748,-2.469600021858263,-0.47365686468508716,-3.370527739058081
-6.133481390360144,-13.368223244027009,7.587675508633551,-1.859410062078827,-2.9823026132073363,-1.4339627395795138
-0.749338889369583,-17.48888771393612,17.943274681900085,-2.784337083656113,-1.6252885957044538,0.19467217405489
-1.776095750526023,-32.25255333028179,32.702934103471854,-9.393795502147324,-2.39051903715839,2.3531468640615802
1.842782813882472,29.70869199895826,-31.232161466951304,10.58924515452019,-1.8134629527634312,1.141579860088239
1.0876678498278582,12.776311204623344,-1.2401190208515502,1.4046572800122257,-2.5195205411277035,2.157000062654683
-3.7053671959439,3.889368332964816,-2.9798774218589217,0.1695072502087186,0.584338626142342,0.7107584220621315
10.608072932404912,3.90113636990274,-1.1906666320734982,-2.682706471232776,5.7190820818213925,11.5828274561474
34.89670643143665,-6.459808006729072,-2.92171164336197,-4.731568893026506,6.700560775425997,30.658458215507274
-13.572941310104362,5.071522963818611,3.355392045676431,1.9487438264493846,-5.151832073031955,-14.296189745460978
-4.394990442825778,8.918861830977132,-0.6348229308412815,1.4198025095082631,-1.871004850311905,-4.092377099725594
1.8678668541667356,0.49303916425850325,1.040634518377013,0.3109381268911107,-3.046829431484568,-0.010725051640583017
3.612995730299345,-1.5292446917991471,-3.518531930309838,1.1617939022449673,-1.4223955989090822,-0.8623901814421729
5.335015021654874,-7.5723961950889915,-5.130639762212566,9.490883507812521,-3.843080351836913,-1.2737794478369096
-2.085226222184752,-3.3392455095051643,-2.276794038041251,2.1885591376437734,2.355913765965206,0.6027605644127368
0.3324447748366465,3.7094958164690266,0.40698974888533124,-0.48473799647082677,0.02364389349932794,1.3651906312254032
-2.2277771142775915,4.6456887151898405,0.5064161394488256,2.5489167762934883,1.6472536077102389,2.2598545514884676
-7.130176851853008,4.873085626418183,-0.36070177637560485,0.10184350226075645,5.789934750969339,-2.9065561216337787
4.920716793887976,-19.721880639993422,1.8251814516617135,-9.427397098663203,-10.793760870352086,-7.110418196259635
-0.6953066584916168,3.6946052694441147,-1.9219399674612345,3.919008846302302,3.517734055774161,0.021765961358865007
-2.077397687045523,0.4118934017686239,0.3548417431185369,-0.11206384790334396,1.2347520123597042,-2.2681463587809167
-2.083232063259623,-2.073318143515367,-1.2868812352172072,3.6016434591802873,2.547384012225758,1.462696667181317
-3.211995053151154,5.3147875813503385,-0.35298721162168123,-3.0963591028218516,3.690967905943948,2.1350677076296996
3.488853031365299,1.5383822528753237,0.21492956164654153,-0.5041626284599507,-2.2268043561708053,-0.7105394872118589
0.4984987994988732,-5.401573713239264,-1.3505147917369713,-5.0258213158770895,4.406930381292924,0.6932646075830717
1.4204619950277089,4.289482162625286,-0.6321209375264809,1.0355530541984044,3.4013818234384767,2.3288715040630716
3.382924070909578,2.066281727820556,-0.7196532684512558,-2.2482437650411895,2.5448294302412884,3.5717195046798684
0.6387239163778808,-1.4229921880470413,-0.6937351550167998,6.019607953534039,5.120944447141285,3.465440863880777
3.3467445841619097,-0.6166213400638647,1.6570119836689183,-6.5674975142270515,-8.198534416045543,-5.970003362383628
-0.8876026062250768,6.023225150737318,-2.4624046490484672,3.965124651332568,1.9140408862105454,-0.5073588232172423
-1.39660888215839,5.871056475755873,-1.3922837599616653,0.4943079489245148,0.6385832716638924,-1.9818438059152497
-2.8516635260654852,-2.9721788319341624,-0.913382540178253,-3.4032966014003967,3.1657047237651788,-1.8130393151187194
-2.58565580649297,-3.9163813881278777,3.237421600721454,1.26164904209432,-0.948300408260654,0.8770356896599897
0.13804933294224703,6.814701793642743,-1.571180402673307,-0.8041373493297959,1.227934990410469,-0.08749467528360583
-0.7536597801926386,-0.47530757017218583,0.8954086875736131,-2.2361123316270364,0.27008565369074955,-0.06189261786117023
-1.4445219087807928,0.9639846349411182,-0.5328743214874154,-1.3158329625665637,0.5329293808772537,-0.010067719857514423
-3.055376474167839,0.8183628858054304,-0.18855637219076263,0.8722910745082508,-0.2817606224240026,0.4105800487984606
2.5182639380556777,-6.120129009224653,2.752946654672483,-0.6359784012878593,-14.585273710306241,3.845119948990641
2.386037338138478,2.3470954378116,-0.021318462507190314,-2.837905835646293,5.637263962175712,-1.1442525414660663
-2.9284662093860767,0.6265364983687958,0.16210197543578958,1.4190520059064111,4.299222819787271,0.16805445765008475
-1.33829124870118,4.104998122587749,-0.544252593217502,0.1507968621956005,3.565545074683862,0.1822838201306004
-1.8175556690386914,1.7649096125833108,-1.1392193501950998,-0.23349446094513848,2.7953054945659774,-1.613294782358303
3.1816407148718184,-1.956030149914921,-0.605919774240003,3.647885146822434,5.316056710066325,0.21022917873645808
-3.805431704396407,2.6567379721267472,1.493612996812328,-3.600333768199328,2.9589045302730295,-1.2948364109272248
0.4857316496646429,1.1744393401292113,-0.9502938201188433,-0.5345922200434434,1.635422079636013,1.4617815622484673
-3.035666460266394,2.709370823633353,0.9101678407473601,-0.01916911515030062,4.343986915895565,-0.5567680869941705
-1.5427171047425703,-0.47322103207830846,0.0542352306625037,1.8894563322100248,2.2475452618635163,-0.5071327783410844
13.232425969004886,-2.9644293942162387,-1.6154292732077353,-3.448514231911696,-10.628174011483246,8.459071739446049
-1.2711729324954755,1.973559210973853,-0.20509494525480879,1.374654427245932,5.2826200380742785,-2.012710419445733
-1.1925773919215241,0.36246792571403175,-0.007785027742663209,-0.19512217825974534,1.9277622190571826,-0.6933407239618881
-4.020373437373808,3.225531993126653,-0.4934320660937993,2.0571416640716045,3.10157559409957,-0.42974900705566177
-0.9199786619319785,1.1322856869037303,-1.250225372118562,0.11959788582738634,-3.0898624802347983,1.148337165598522
5.8088701711409705,-4.890502140155591,2.3908488921302307,-4.365560670468536,3.29791224432371,-2.158883054009709
-4.814466207450021,1.848518667188697,0.7743803253530184,-0.7765063982672158,-2.7236005174335447,-1.9678880812331765
0.2604770479504514,2.128792738466856,-1.4003052533516243,0.1077996058375963,-0.5501620904304987,0.5148374729971378
-6.9770109675899254,2.7488447730814025,0.1305365509059738,0.65769533651661,-4.074428160380723,-1.7296599544095925
-6.005541879083842,0.9695947028067057,1.290913185353269,0.9302793093838363,-4.720076715774033,-3.1731702365662247
12.729331647862377,-2.081421508733143,-0.5656366730418901,-1.3941174580600948,10.179590981418714,3.7960180393681746
-1.298091721702492,0.9504031913515639,0.3906253125894769,0.6250226363290908,0.49880677709394067,-1.0853678832116453
0.21053788503180493,1.194621203577512,0.5651746739794713,-0.07749911033041668,1.7134174588733009,-0.8376428893207463
-1.4014948477580207,3.165347018281658,1.40896576381707,3.272052842511974,0.2574575864660661,-0.39033769216426506
1.547582964326659,0.9184044995589542,2.201004059563583,3.172424583514977,2.677223007797786,3.6633572051425545
2.6704142091712155,0.643703582704938,-3.5932651144406584,-2.796369373364361,0.5001796914470972,-4.8608187786064425
-0.6816576985217879,0.12505502273453417,1.0347928448351276,-0.3071991865611329,-0.5359962582337556,1.6530847814220377
0.7796889999862175,0.7620738485413266,-1.0468946299992514,0.1828134117963906,0.23137630733407571,-1.4249777894681193
0.3664530202167846,0.45324860669321576,0.2800693107743557,-0.1825427530424602,-1.8552275320683522,3.4087943149206117
-1.5619989838715245,-0.7556804505385203,0.20694538528241,-1.4761166699447767,-4.157062320817703,5.726016928470267
0.18644935193614742,1.0281968199134253,-2.578958633137853,1.7371195715897345,4.122094976861141,-5.958563468044114
-0.8581122489915369,0.08975528003560929,-0.527957054142874,0.2987265794335191,0.05910869045654382,-0.9682821419028625
-3.7418451682554226,0.5445024396102058,-1.760574286087423,0.679279315246985,0.4402467919338609,-2.1472259209056097
-0.0024750475817505446,1.4369309503842085,0.7800373100978545,-0.2462372750725068,-0.8251570628210296,-0.6330577449326945
5.056327279637635,0.8221835231048111,3.8185701837278367,0.14322829216514166,-0.5951510308130677,-0.4728253859711802
-5.112052391058351,1.2608541581880175,-1.614705155434401,0.9266187143574922,0.4831852076731352,-3.178971138830076
0.8838043292305253,2.2152906411549926,0.2248096547941432,0.23688194952168393,-0.48757979018423536,0.013016082582263055
-4.567161701867706,2.2694575316466867,-0.1993291304801244,0.5185253620033651,0.09359963627471866,-1.8336524930383307
1.8122427478416512,0.42772114589854976,1.1328101674636035,0.5750739320616689,-0.4276190545950953,-0.24470345838221919
10.822897044157587,0.08502779905473334,0.3636338418983963,-1.1422607455457308,-3.340863717982244,7.1080841635123555
-3.4188946387743377,0.8178696851819592,-0.4289539581839258,0.8945910668811907,1.1350093405202233,-3.1105784164177446
1.177100857588561,0.9480852735443601,-0.7715438126425525,0.3695119205560933,-0.9607050243622837,-1.0380016903197933
-2.5552485094492257,0.3228885589785405,0.5562682521403142,0.031101720273454335,0.09450848038677342,0.4707652903521935
-0.3792596800156244,-0.6822057081740737,0.2000960534296376,0.02500074494997326,-1.258641018266383,0.7903712210549202
4.013264122557095,0.755503849690024,-1.854611524212523,-0.09264582547821994,-1.027958335805451,-4.020867163489392
-3.2298012852661566,0.8415344337994426,0.6576596618680411,-0.3031875718671433,-0.8210862059485801,1.0640732239142556
1.7113586428588552,0.794530373822829,-1.6456731816570052,0.7407343344615047,-1.1295220249458882,-0.7454504266773444
-1.4582194432628073,0.26723523869944016,0.9562934297040514,-0.07853291432693711,-1.399891050417997,1.1006260046575664
-4.2083046369824295,1.5445942133761439,0.20000560573498125,0.6518967894781428,-0.2470781889890811,-1.7522146936126992
5.474088868493418,0.8591160187466105,-0.5879651522417236,0.05578773616978207,0.06969720183360828,-1.039133937471654
-0.5418436829985844,0.3402884524157497,0.03417731226277575,0.4936010656247343,-0.7363158946851781,-0.7824431285942154
-1.0585393554857412,1.4498117231792924,-1.2820020983344134,0.03732726817107058,0.688865150499683,-1.4163586703418942
0.519362434479649,2.3115054885360653,0.7126057674193924,0.9554221098425117,-0.5409940608934145,0.03631943809262328
0.15321572719063137,1.6440870069961833,1.4745511117528465,0.314672912593619,-1.3304432605305032,0.9671439180393444
-1.727568301211735,1.0379650666480815,-2.080486337349946,0.04478622522900991,1.3625583137967334,-2.7439187809457763
-0.015401601180479896,1.3530509019171262,0.4397044345882538,0.8096481659589266,-1.1707848612490954,0.4118157770653502
-1.0997096257315009,0.9992978149717912,-0.24842030614098393,0.15212408756073595,0.7467674184551832,-0.5810374837855907
3.336912475458292,-0.01930153039178569,0.06807394107417705,-0.388911799881713,-2.195150361297177,1.1645477544888048
1.853165963048151,1.38328882148337,-0.27058013621098165,-0.4725752472111776,-3.769952269037506,2.524391998161452
-1.5221806939578093,-0.2480506636299865,0.04795648928461686,0.2822531732645136,2.1652079053994675,-1.4032323638956326
1.2113678720770058,1.0452782601457464,-0.44428067619732,0.46346336042964636,-0.4917328112553082,-0.7909164487108323
-2.3616745878861543,0.39598243336682953,-0.15985555252521794,-0.045680375015169764,0.7223021604725419,-0.8989878809507875
