Gx,Gy,Gz,Ax,Ay,Az
-11.973449999999998,-8.550430999999998,2.405474,-13.154000000000002,-453.318,99.826
-0.33150224087107016,-5.719914667896978,1.5048591401624525,2.54352033392983,-2.8690463027100055,-6.070137938057529
-4.0532157300501375,13.19774460002916,-3.694330860306276,1.7134802791098669,-1.8351443988878007,-4.505681634842752
7.084378266124512,27.367921740959193,6.388665077028042,3.1727360701898895,-3.0979245421155834,-1.7167196762964765
3.7738502515774224,-20.62398076239044,10.593022335487076,6.353679565037612,-4.678210726055674,1.8527770407538924
2.0535738665474814,54.849846729179696,-14.406819300663168,6.950636916581958,-0.30895354890411897,3.5712514334002448
16.243457919146007,20.28813454828774,20.963097091580842,-12.592556846349506,2.766628584844361,-0.37047782608411794
4.579872982653514,2.215006935282129,-13.44590468182642,-1.1267562880074178,-3.9287323808437953,1.6634017172454953
-10.500889074853728,-11.089173663799425,-21.632147260886743,-6.1976894212496125,1.3993057345531605,-1.3743279300645037
-4.231764964542812,-24.36009746294233,11.237626880666548,-4.724482281923496,8.553859664021768,-9.275379406000441
8.234016499249925,2.0549422645459647,-2.83059203117163,1.2897869068554295,19.664093685700195,-14.197925789314827
-42.300164961952646,11.4355041945708,-27.57600641967651,2.059595001348968,11.279957459085367,-50.702793502689374
24.57601461440595,15.568409057694126,-11.381407045740445,-4.376678151044003,31.371684246888154,4.1839955065086745
5.725535983760996,28.79504252942662,-9.467542348630396,2.1149172936662217,-6.050756368756936,7.7225826363660035
7.158914276739461,-4.301510675924375,-4.26695259909325,11.316336849964479,-0.8021895057987005,-0.57786262150566
0.9070941235463161,8.64976088621334,-7.601678039956802,0.1429085373286103,-4.090323607633002,-1.5921641406883436
3.742309770748519,47.35631544752061,30.24875878938542,9.585770202563399,3.627095036790301,5.622912933880476
1.798511334264711,-106.37764317420184,-33.99045869091101,-36.0037768158349,-6.409522902973217,-6.196005316656121
-1.9863277597960889,-12.481752186566835,4.075634214564263,-10.693504499323424,-1.1548285354601044,4.759452729909096
-19.177911679010826,13.9472770539208,17.835219832753168,4.004690151606791,7.674159984993775,5.6841978753832745
-4.309843926738965,-14.156106901150844,-1.8949509239360844,-3.6249478471526064,-2.0813806144466858,-1.4570306370309
-16.24771002243989,-5.944245951136914,6.935464547397656,-2.120811471777156,0.7886592354430149,5.241778855615269
-29.307526464252778,20.871614354682755,-0.1008550840953859,-3.190874835836891,-0.8462224808581242,-26.816527705699702
13.085717111084417,-4.373013624838022,10.630334105445163,7.508216566024941,7.521358323339939,27.880687834339064
0.17185491221704186,-5.204869252722588,3.8559124647236516,-4.86545922129499,-3.846382731817191,7.29240796790104
-7.716101739501052,-15.457725693486829,-9.270695821039626,-10.83538522805647,6.34234610059986,-3.9634773438587363
5.193705715218508,1.1215476895926848,2.4445196429202127,-7.15168858981013,-0.8851889791662257,-2.3251815421471744
18.105529849690114,-17.693100763003727,-13.406970350269326,7.011176580911281,-8.529379351652901,-0.8088607924355729
12.447305728011502,18.301667087042038,5.859521210973925,18.389666641061652,8.367281948055513,3.104943446514299
20.01925920200873,-0.934178794362654,-14.433257982417402,-1.4043600700363887,-14.845304759468824,-4.607392006544092
17.40293699320104,-5.8268382451283,-1.55768280568169,-11.515832638895404,-4.173508682884388,3.593327831927464
32.52940972169387,-6.57346809805486,-1.3331203768795206,2.013136831649898,-4.63635807689743,8.9171752152615
36.854434072488665,1.2608531103516343,-5.094795247877438,-0.5018012011949704,1.8390484176353383,14.626338433484296
-37.955554434431974,9.83045411573894,1.5419612643891347,6.110364469151439,25.53100361588527,-4.666458803139748
35.0450224024637,-7.477066268218602,11.556057359962546,3.532237063143016,-46.22190487107003,4.888523199620323
-3.294554856171208,13.091911394336794,8.61505139502003,3.7610773213669564,-6.992523731964888,-7.559204537151787
-4.398242584837536,5.579930488355703,-5.972985692871749,-5.447412340894829,19.281085446772668,-2.674814306410736
-16.06855687902504,3.2480276909960537,0.8047032018112086,2.372659645739304,0.7185006360278308,-3.5520923400956455
-5.532607772171727,-12.011354721743508,-6.879456313438113,-15.941379634385846,3.1057144118805695,-2.2713721807364116
9.44411845018016,-10.182846617370835,1.2732961856732314,2.775630065683686,-7.26426882758947,-2.1771642066958234
-13.49923140227663,1.836738739492187,4.598960037782694,-2.4947559883394623,9.119677081258587,-10.120052478177744
-4.1742299639804035,6.263882315971004,1.8307269335475034,-5.18266707497667,-2.5634447085355596,-3.0282362080228116
16.196031067333067,0.3610815091573303,-0.536957290344898,-4.06299714354232,-16.03986000219895,5.689721785218975
27.113997506610104,1.1889561620677136,6.271945848493894,0.3394834041098571,-21.88154107746001,1.7505031040408774
-15.484154452696712,-3.338600564005885,-5.099701975707773,0.21507384129495666,21.37430078938602,-3.95410507355529
-6.430609792187436,-4.047773742867806,3.720457791323415,0.8231604761480006,-0.6152357858404969,-7.112553968046413
-23.828161968461018,-0.05410745174163445,0.4600928204971071,6.908167925115962,15.29545302459863,-4.12193358644545
1.4579422126924921,-0.5862908897145174,-2.219872293978831,4.7272444543765655,3.827631704222066,1.3457252613625408
-12.556174602441224,3.1365546654127368,-6.22720453595529,2.5633256639972695,4.242656129241661,0.37267328411221023
3.7919452189095297,2.6650973184714566,-20.02045748587573,5.689661275052991,6.270824675791798,-0.8853638527190366
-5.498345164577014,-3.10357623755348,3.5046411451022994,-0.11907382316905912,8.493284874810655,-1.1123378188961524
-24.658134175461758,-0.8731050362717818,-7.330656011895498,6.315253599390578,22.99565105348725,-10.774504954714853
2.532922524799197,-2.2792430542548603,3.816305560100969,2.1754118481355915,2.2015151082448403,-3.8923862458110454
-5.765032493219298,0.7416570676199776,-1.5729901448370855,0.937377086457785,2.559056096867226,2.0363732161527124
6.4095096733823,1.1374692298812272,-0.11881847378893007,1.2586764910386492,11.298145713729786,-7.607379674094293
3.6334359087854313,-9.21272154392895,0.127362238346044,-4.176229760393964,-17.588706299295456,7.9871946636977835
-9.127515023393029,-1.2066762501602621,-7.331233982694533,0.6073662898143635,15.259580993815021,-7.175790207827222
2.1387560395114793,-3.548106562011963,8.42781375292697,-1.5798492292863608,-9.444043678734442,5.237274564835103
16.947421472572316,-1.9865509061388293,7.159402605388861,-1.6379700020024326,-27.381152959271304,9.992305163861698
9.196454014152128,-1.5391993290652533,3.165065336945971,0.5432440136834904,-3.0651880036706025,0.36072273596089577
-4.686560712813062,-4.008160844381919,-1.6060837085620305,5.49137941216714,-3.4259462237135487,0.6145120702979989
2.7943567230015542,0.8632518962697606,-1.031666603171697,-4.917855743807824,-8.383577212549834,4.639057192088739
-1.85616593029596,-5.8353972154558775,7.558104956474496,3.2961026541150855,-12.634374768542074,3.9302763883459413
1.1844288130144784,-1.430385627266039,6.412746422967798,-1.4944861609837672,-0.1416273690297954,-1.6564769363784122
-8.253845720020701,-1.1361535077210743,-5.858614082631981,-0.5095919463467116,8.654161065691945,-1.1459762096357682
-1.9518093768816644,1.1098224712387834,2.670111430855231,1.8073019395773542,0.061943203879903486,-2.9465989084920867
3.172645088876793,-0.06545329468944416,-2.8137130108683674,0.010590062665777111,-15.252020104985892,12.37568732309166
-4.333286425101572,-2.711159017951232,-3.020769094361059,1.6400779694809131,3.912432028497042,-2.913849511020309
6.593482924640151,3.1580736251992896,1.3070206271243006,-4.012055681472267,1.1409245871103504,-0.5729007054333413
5.517339363228025,4.724096663558361,-3.903137921843814,-1.053394842009865,7.246345195081427,-0.6264047797213443
6.728130161354629,1.8262432251902831,4.755731158621577,0.5962714173302537,-0.5796895268350428,-3.6567385141148114
-1.0110487626581492,0.7275359913023909,7.870551263015885,0.981463619960041,4.634642645239756,-2.94011327160489
3.088886500266245,-0.28638621413201815,-8.68726088232149,-5.563493406208852,-1.9738063569514672,2.221025847202386
8.668631483754972,3.7670933977509256,0.20271519715990216,-0.2873114578058079,-7.343414308180729,5.272466190965481
-3.327359217451715,-0.8984389892455292,0.22038488209537888,-0.8553484532971727,3.1288956339811804,-1.5695412333829744
-3.1332387822146996,-3.437222877060396,-5.130340075552925,0.6768425842255446,-0.14195407737760313,-1.430769104205095
-2.296642422591371,-0.362930891296501,4.747058262248155,-1.0298551884402354,-0.7638373165294077,1.9607681997365636
11.395633,3.9574605000000034,-0.11719200000000196,1.901999999999999,1.5900000000000005,1.5009999999999992
-7.453938957368867,-3.559515535468469,2.363214451941781,1.1784779107442507,1.1913340501448304,-1.1030920575136456
-4.427088494296728,-0.8927094212224347,-0.7123169703899626,-0.5180289325226206,1.7880443521240648,-0.2557955650175716
-6.677079605765084,-0.5437893049173628,-2.4231271494556603,1.337369871432343,5.446800472040999,-0.7279292484739432
-2.24666929084213,-4.988515708098701,2.4884765710820256,0.6093728921978245,-4.132109906247341,3.0422816367411016
2.2752126059066016,-0.3898159352096622,1.3642413133710758,-1.674466767416482,-0.6983584241255941,-1.2301836535094326
-0.9049887111972494,-4.330494509476269,-4.071783393023446,3.6867736140097396,4.408913964133655,-0.44437174460046025
5.056857626690426,0.5432531115629333,-0.2757963110311426,-1.2974560225395135,-1.8635788565498572,0.2184205804886723
-4.220080868141967,-1.0464855868922935,-0.34280602347489775,-0.9321706908081535,0.5697080984837852,0.0878463655788036
5.743230416388137,-4.15870411565533,3.000751089461662,0.9330124101147996,-4.319118359401388,-2.072123358425329
0.2363982323081577,0.4002870041544142,1.415225796093972,-1.9732163939596654,1.4205253165918073,0.16590847829633248
7.102664137936827,1.0292570049245682,0.06027971496098483,-0.26852057366704474,4.059661133576775,-3.4397508652428694
-4.8064986476322185,-2.613071198669659,1.017405336801417,-0.6453614081002931,-6.716854173369234,1.1490417713110812
1.2508566748346395,-2.496729880960373,-2.4758861126799885,0.2128529432175732,-2.2641362048994584,1.89411371744406
-0.7229900926984696,-2.3472474856233063,1.0502996369071633,0.4652595198819034,0.18025687441327332,-1.3132353605756426
-1.85921294731341,-0.3667647751457805,-1.71727516399269,-1.4496986370047205,-1.3366197024173139,2.265903970649103
-0.8177749025386745,-0.945176760011919,-1.6566987052575937,-0.15355535899430628,0.3665401057926992,-0.21666525324772723
-1.8331946776980024,-2.5601703011928945,2.7702458839072035,2.8176848685589744,2.196117371935266,-1.133365707657477
0.8995760445964334,0.06320162022081477,0.34918299484084486,-0.45487932705178535,1.1978920010578964,-0.4377379392542786
-2.772333908762985,-0.7299568261112085,-1.0877122079903594,-0.3542977167530923,-1.7680209093076757,1.114480383750197
1.0787561233050567,-0.5392092092444475,0.657554830457491,-0.1161414417440908,1.0599154841691247,-0.26641952770114585
1.8782939648908576,0.19785549770315602,-1.4926755514492234,1.7427812015036546,0.9728382969748045,-0.8744754971173365
-1.5903930692930808,-2.1518559581131513,-0.4978223535333921,-1.1162035939992747,1.6493449935446325,-1.331598706912532
2.0963657611785553,0.9839271367682327,0.6273224311511468,-0.058194513437424655,-4.475234143131158,3.194995389018853
2.6408381405099726,-1.2617012294305445,0.7142404823983077,0.32388972745779143,0.5931196000487102,-0.15159711866393888
1.5656410725738998,0.2075817568540737,0.09708429002268115,0.7403797898306934,0.16960844714681667,-1.8982797099800717
1.0275205992645626,-0.2294423704637263,0.20483337654026057,-0.4170107387690162,1.4801790818931169,0.09902017201228364
1.1878642433164694,-0.4036949118137201,-1.438227875155206,0.8775451961443104,-1.9513262513517464,0.3752037321737206
-1.4142573802228398,-1.7468083215534875,1.883024237224956,-0.5106614011712325,-1.0717231001949303,-1.2495716605925853
1.176452875969253,-1.4882639750480187,-1.2532649085533705,-0.2196228415946493,2.0269901506107413,-0.5102473773536205
0.7651188133143143,-1.383919260970708,-1.6170585432604763,0.4019191523791892,-1.4079645771683635,-0.14629089649788884
-3.2197673478187587,-0.8141985169061119,-0.5484481832029879,0.0543760515276821,1.0775548262285404,0.594567776061635
-0.23278367977516368,-1.042697001672824,0.31585399192167674,0.23331863750409831,0.25843250225617065,-1.4037998603326411
-3.0419697173117815,-1.662741886356077,-0.4028262147046462,0.337285204116871,-0.5007733773413037,1.2543878361855132
5.809950135947778,0.47469703116933015,-0.848063401917984,0.3900701494459501,1.8987156088929038,0.7693789778119591
-1.5135695557646915,-1.1660788040479322,0.8281526461814801,-0.05457416956954325,2.5669870162004385,-1.5179012387549324
-2.744541206610092,-2.064829170191893,-0.4054327568610356,-0.3617032091453365,-1.1305971648114088,0.3051504032055865
3.180615140511687,-1.6293901568513265,-0.002924932636621913,0.5020577128521821,0.3185594288274016,-0.720618233698783
0.2637540367317843,-1.153713075942358,-0.10948245701525228,-0.1783527301237916,-0.47973790385558357,0.12307194197474458
