Gx,Gy,Gz,Ax,Ay,Az
9.984373000000001,10.195440000000001,3.5575710000000007,3.5340000000000003,384.95399999999995,40.94199999999999
2.005471400992693,5.796079318560143,7.976058597747864,1.498622739034482,0.1117821861835777,2.6766273034382038
5.495909617214345,2.8866669737386794,14.35621834321295,1.9802864278526837,0.6384879465268656,0.9557839648759547
7.0537457936578205,30.733837406693752,34.425865188107885,3.848527430842018,0.6315901678744862,1.8575284838892183
12.081944340306144,36.10438047296663,45.988299848909044,5.116338992999081,0.767844708526341,1.3560553108901436
4.852001238018525,17.368965703483223,13.839858165392828,3.0519312963522696,0.4243818738514916,1.2029974194370543
10.313662720537064,9.519505208469173,9.187336095337473,2.4425606784931184,6.353210802534697,7.726425705006508
53.337685896275964,24.811698043039705,8.89220168932361,1.3098256286266603,52.55391198011772,37.26210087550863
11.712906829669707,19.03082537838438,13.352288292412,6.46607145608863,13.386277617005087,9.318921477329443
6.066442876188724,10.635678805931544,23.616011101532145,10.027297487522452,3.2430693400258392,2.921687160878014
11.383177576766935,35.09323347114663,31.4079232434902,18.2133399757019,4.2862737128037365,3.054685109979806
11.164647246838241,77.60145326116196,75.5266788703533,43.276571439004215,6.572835978564968,5.309476369569334
9.204870676874613,7.630558836606208,9.618151928436255,6.244480953912284,2.7293299820252876,2.4486958782090884
10.817713339791808,12.83273262318441,8.633641899709913,6.203468931187825,4.552046487482614,10.85661207509006
34.288627707415735,21.787415950386436,7.270761740322822,6.487981357772414,15.761240063913075,21.717566202193222
16.413808192909986,3.4613626850770403,6.596019439266438,6.624233541450774,4.928281404013933,12.305891993285236
7.141535710233887,7.56330102428219,3.22848653284219,10.238380387342582,0.7656854960049044,1.2926416759960526
13.990479894741544,16.929003317988514,1.0553164800594879,9.010873577363421,2.253328200565379,1.1147003185557993
47.01069789804708,30.945278150686935,7.544660919764278,35.41749333824801,9.60066271709529,4.859753679841139
12.820549635080027,15.364754071589394,5.789839894378551,4.7601624697461435,4.169839327221807,3.32198377847765
15.724084161685276,9.080989879514117,4.098535823025965,4.897889622989121,8.396115036026572,7.6439052699290135
22.206743499281554,11.330142664309985,5.603849761506943,6.262739123055913,15.682446037393337,12.895099237261864
27.477021195374803,15.133822457962307,12.263268885293785,5.397148577205693,14.258616265864573,8.928492286030622
12.855203584236484,3.451419572277197,5.309521767076938,4.060613941316915,1.731695336783408,0.864230960777841
5.668808992767976,7.799943674760765,2.7037952805526477,0.861406723069902,1.913794375063587,2.0321995554382766
8.550350884195177,41.13724641403512,10.698525617378591,1.2241701125035473,3.9947803322911963,2.7110735487565076
9.21296411140199,16.313937955897714,1.2790471849499119,6.465199993255135,5.911623816522607,2.406345703421969
23.407157363513083,2.6480614170550445,2.1560313811625607,3.0638097775081543,8.482994406995735,3.727691518102951
15.646844460112467,7.04682367250445,4.266321864454169,3.3215657889667836,9.732265527414299,4.726731641711627
24.645733969557426,3.3768700107364933,4.182070728137143,4.182180298066938,9.972240617816823,2.6820905699535214
7.468795189413925,9.751576077074235,1.4230589014125286,3.449853196105999,1.8776848619238091,3.243852525753323
7.014099535519667,6.807364912714977,0.3463707658102683,3.0237879399459677,3.2848282592940627,0.7274645544292055
8.637733757152711,22.832250725118538,7.763317253885774,4.567807160861056,5.8680877032855925,4.022075816474588
3.744755211600329,14.719910143492777,0.9906660284333956,1.5865697165348522,1.4079372777434975,1.051354109428663
5.976026307996049,11.407736677885238,2.5332604645482815,2.2956245994302895,0.12325975028662085,2.335060016536909
4.812202191186209,5.03390613156354,1.641063761116614,1.499822666927293,1.2565887312794075,0.7486239269666582
2.255702402878232,10.162634466232012,1.8876571443531032,4.436090161875846,6.7683816641161485,1.8325794644030742
3.629839536396876,6.572844456165366,3.870165749534003,1.1760755950836719,2.2999550016789008,3.8030130894276866
7.3386947759977055,6.01359552379519,0.8329543522062532,3.0766138711582336,4.405768072073247,1.352064009998149
4.870561676096832,9.614416741162557,4.342532425176665,6.319748224342661,2.3811626508701846,3.266894527500588
6.248316076875509,4.588700749203618,1.8680727112608568,4.407026587116812,0.6611935501447695,2.774126950180682
6.620437724075804,5.480845724430737,2.429745709845795,1.438597105902608,1.7184016808678928,1.8417951814835702
3.7354973467134402,2.928730327839354,0.4907962413935545,1.484422112479562,1.1333487989697637,1.062250293973288
7.390871724757224,7.042376039855753,4.212142882665089,2.1783430768700636,3.7936194715316156,0.9367069972772756
1.829497422398532,9.606661016135137,1.9630148997836563,2.179606001427796,4.70669438911682,1.0399336147283489
6.875265761691977,7.307538051727659,1.7676442418843559,1.9814343806751207,2.571216624761787,0.8531227791344294
4.9203777584374855,7.74122237549828,1.839839457657802,1.9753266382756585,1.784844029874019,2.60009515484713
2.9103216645148975,8.725590596497304,0.7973281416707702,2.740832219718405,1.7556934789942291,2.188235854740925
2.2025745683559212,3.0775738804942163,1.3702099552744575,0.46671464180064004,1.469313967362219,1.1596605622112937
5.350393401296293,4.055527514605298,1.9958494220691556,1.8694174975100082,1.2461155503008765,2.744381148187866
8.460050708351902,2.665647201036014,0.9236324530490151,0.6991831244234638,3.0994178801869188,0.8215698092733427
1.59052985543596,4.877880766170055,1.3676268028753409,1.610106671957761,3.451462954423322,0.7997584248842791
5.11305674407591,5.690327118076002,2.2363396716673862,0.5410551310582903,2.4197321277984676,2.337298493243763
3.185764664000082,2.716012751170334,1.4352013316844243,0.8312701098195652,1.952480582932132,2.2343746169112624
2.3663528400151836,8.632996777744955,1.9762992395953707,1.2573464876229716,0.2924673082844894,1.6654251120962786
4.587347428703312,5.411856530817458,1.7179139317272418,0.5343959291366625,1.87056540751177,1.5531306945600607
0.5274836608817574,4.030489979024601,0.7251699765944903,1.2749019958483936,1.0521371860278765,1.740062823550625
4.5978598158656245,3.6762542416959323,0.45367131827127427,0.716585068970237,1.8328926367010243,0.9710039981250831
5.621613260988951,3.8859711975968763,0.41213852438033716,0.5146149136911842,2.814966138838803,1.4595928003890137
4.288972141671979,2.9046592161200273,1.9945067440166486,0.8369322651795775,1.2901875408803685,2.361546821675867
3.2286764658310942,1.6615372055776227,1.0158795914861374,0.5671073577793713,0.8167324175861685,1.164035471719093
5.195531192094817,5.197919641076665,1.3246370856108438,0.6323030474434627,1.6858839094219038,0.982503278467303
3.6456851459872213,3.1868440628192864,1.6343126391903162,0.5391066256268059,0.4744281054701815,1.4354267108701573
1.617965631648173,1.4382987233343068,1.183043297339596,1.1296798768454681,2.1798569952614577,1.773561584570449
2.941304755839816,0.7644711483540038,1.0133243066151043,1.0230144402328094,2.034396991964643,1.2869894918755633
1.3212826417109849,1.9872872629651237,0.30952777947298526,0.3960603278102966,1.6796206046048288,0.9287833824479728
2.756962837037435,2.124539977071478,0.8745121550954582,0.8792134892299228,1.0531058699664657,1.3458957675620262
2.038348729528344,0.8256365125590217,0.9270015357003734,0.4562344701689279,0.5202732499780853,0.8426350977257256
3.5323790926346956,0.5787364302711479,1.155187327096786,0.578369340188306,1.7986017526550684,0.2434956694398646
2.83077155315469,2.4522718180338905,1.6182594179853236,0.2484096030680595,1.3620215528427797,1.3573492314104003
1.0167646405903827,0.39093290256574725,0.22146518775501997,0.44612228683137256,0.7707052431621682,1.238902845104518
2.8488806734621575,0.6787277698602893,0.7014543868089756,1.1492873611363033,1.2837592233145174,0.3553097373133649
1.7831122955681182,0.6511532132989918,1.4404259368485248,0.15525569071522222,0.6171647073353239,0.9046352530440019
0.7179751622616017,1.0262777416020579,0.5639197365770725,0.4893096930963064,0.46474219259914334,0.8539797369456816
2.007565993809984,2.3983818941590704,1.0198018572285825,0.21015030049157563,1.0531043259433726,0.7918950400831591
4.157919522898145,0.8716780367116569,0.7342870656976935,0.5124699936968873,1.9587601851304608,0.8448448259254455
2.1589909805106626,1.4100563317335366,0.46615571743101475,0.2918459953329946,0.6267996456846928,1.0974093441461534
2.126931244302831,1.556533169307093,0.18027284341397962,0.2021317037771148,0.5779070126319652,0.7437940570241022
2.108477688121696,0.9625130612637792,0.5515451547812035,0.6404305563538725,1.7239646074178787,0.8030972992183231
1.6334470474837925,2.079707457316625,0.6436156914208732,0.44187633285378036,0.8507974225887245,0.3454740890533483
1.746218634996471,2.42203504915485,0.43073640890696746,0.6764622099100663,0.39601221110787327,0.7354552837970698
3.0966126137142203,0.9584222318640986,0.7726271454249034,0.3054941331427245,0.6553823942594387,0.868269859008911
3.7338363514806714,0.9157555119652795,0.1315170193615255,0.11663715183519555,1.4715210237053908,0.36826547521348596
1.7192927047226862,1.7996187724692596,0.9953974743621012,0.27141625880707204,0.605911011572217,0.7349691807600239
1.7397400348800287,1.105285666790772,0.1639757528245883,0.24013990237711194,0.13640417782263511,0.3284393988928375
1.5393976728779801,0.2817351010469424,0.49764684064223585,0.3245921749379398,1.0449499297357339,0.14344965258383657
1.3168277802780246,0.35638252346357235,0.6620928827018874,0.19174172274028115,0.13319026588343033,0.17334969986160453
0.5469084826178118,0.45746443557240485,0.33894658183938486,0.07245655769404914,0.6744776188046119,0.7550342383577435
1.5739310367716992,1.9927054944949287,0.41058531377526597,0.5445357370658914,0.658493507205297,0.598583319384925
3.4227848164661756,1.3624283179730856,0.28313090824669357,0.33637662997170625,1.4807683020676523,0.7362667358694661
1.5797318944200225,1.5117154586472599,0.19406035781548808,0.33483887084728753,0.6584619542798881,0.853546148949777
2.361742392454924,0.9426989743041175,0.615107369115562,0.17584772346054203,0.4823595556344971,0.20291502889510687
1.7364609376161797,1.0765517843134442,0.30742519619288194,0.08530761303292836,1.2598999270507005,0.3378076543033917
0.48378578717611775,0.6304230450010105,0.8005928802998015,0.09604967549129727,0.30822522387783785,0.139496586721871
0.7262966835657616,0.4550630081646913,0.10265996243047262,0.1561678005214278,0.5336227854197763,0.5505265089507919
0.41875934542421844,0.2844088575512128,0.14272148679276944,0.29216159630462646,0.3809120970010195,0.6673783953927594
0.0,0.0,0.0,0.0,0.0,0.0
0.0,0.0,0.0,0.0,0.0,0.0
0.0,0.0,0.0,0.0,0.0,0.0
0.0,0.0,0.0,0.0,0.0,0.0
0.0,0.0,0.0,0.0,0.0,0.0
0.0,0.0,0.0,0.0,0.0,0.0
0.0,0.0,0.0,0.0,0.0,0.0
0.0,0.0,0.0,0.0,0.0,0.0
0.0,0.0,0.0,0.0,0.0,0.0
0.0,0.0,0.0,0.0,0.0,0.0
0.0,0.0,0.0,0.0,0.0,0.0
0.0,0.0,0.0,0.0,0.0,0.0
0.0,0.0,0.0,0.0,0.0,0.0
0.0,0.0,0.0,0.0,0.0,0.0
0.0,0.0,0.0,0.0,0.0,0.0
0.0,0.0,0.0,0.0,0.0,0.0
0.0,0.0,0.0,0.0,0.0,0.0
0.0,0.0,0.0,0.0,0.0,0.0
0.0,0.0,0.0,0.0,0.0,0.0
0.0,0.0,0.0,0.0,0.0,0.0
0.0,0.0,0.0,0.0,0.0,0.0
0.0,0.0,0.0,0.0,0.0,0.0
0.0,0.0,0.0,0.0,0.0,0.0
0.0,0.0,0.0,0.0,0.0,0.0
