Gx,Gy,Gz,Ax,Ay,Az
-6.0951049999999976,-0.7429819999999958,-3.2131329999999982,0.46799999999999875,-394.836,10.626
-3.890298134002571,-6.6650183284634155,-2.849476380207812,2.384422120006619,0.9399767660092746,1.5176924148778692
-2.434190329090737,-7.832231538929952,-3.6486780149025932,-0.36271723170589915,-0.848530076581734,1.3410968772022123
0.6454868889851672,-18.310216337247702,-7.387607780616292,1.6297654212762034,0.38479972406328267,3.387525427059335
-7.743484140183794,97.2063454141387,-30.031682716089826,-3.529516939710436,-0.24900447878627424,-1.1249418427277487
-1.616201275794147,12.000199514592028,-12.46235223970689,3.090778977938082,-0.2320264750753478,3.1055203173892796
13.092431135323125,-24.014946816910225,-8.221553347802514,0.9663312986041745,-5.84168511395904,5.64986982074431
-0.5093996522219266,6.900103107553797,-7.748792378155381,-0.42051032732876725,-2.1940263785995313,15.104156546382866
-13.517466522008451,-11.019831948621853,-1.4947935760794735,1.64476336956118,16.265902558900738,-48.48034458002809
-19.956972236797135,10.387618276370034,-12.996300935472933,3.7004383409718673,5.041199328880236,-10.2321842160785
0.7710038800517047,-9.722149500339647,-21.796853886080882,3.2315534278142533,-3.8215374462287635,-3.156677904150838
-5.635515803768086,-3.8642683794470027,-32.75549580557933,9.32614819759498,2.6893236008409245,-4.245694293546795
-6.065009556431234,17.66490378624823,73.83332174025674,-15.068159231282827,-0.4001187530150543,-3.5448518389271966
-14.8356244264183,13.847987039522422,15.976851985953724,6.2317920896346655,0.9615377139045802,-4.393839557437928
-9.17241892237972,-5.298348686072077,0.5255464215874169,-2.588936291883862,-0.28147032147614803,-6.5660466805298565
-16.208626693412846,-2.813616161959903,1.045700083637299,-1.1625101274428233,14.454231525691961,-3.283498957072466
29.420314818693665,11.800570512110992,4.787568720145387,2.5753251134077777,-17.55334878818533,0.958603296239211
2.2892211815948142,0.8491854501261322,4.347933575122388,2.1828855674826393,0.9382684596949176,3.5785649469967287
8.431330482960684,-17.2401859640347,-4.902575556441956,-3.922909872370878,-1.0763987420445402,0.8959134230565513
-9.226113703812295,-12.821690316132878,10.801252057280097,-4.866098391023954,1.970680499058894,-3.4683441960246313
5.939501500833809,2.042086464625612,-14.271563337058094,3.8863915815053147,0.47347443108205123,-5.042951357118652
2.684163773018085,-0.29839894014623536,-4.996569144649566,-8.236596884090142,-0.7389207453017903,-6.078462669185879
0.21422400770847871,-1.5631335609254404,5.573217261825543,-1.975324655597098,3.5754045052042414,5.154576165187519
-21.860948588729123,11.003027174422432,9.30119679112764,0.2755697863200557,8.036958319407802,-12.938268480767022
23.386042324729736,-5.472750012459351,-3.866322041385266,-0.3328324645067818,-0.47122110571092807,12.100001700944922
-2.118385349587724,2.8032478785233215,-6.403062319477447,-2.990116204945744,6.019888639631264,4.475424333287462
8.058804427842773,-3.1089832897625396,0.4680293014710149,-2.675133748770171,-3.2698681561983243,0.8097606935790123
2.734577642550676,22.750800995120557,-16.381709535897095,-2.1291487352404332,4.516190286298795,0.7506412581056081
-2.5968901742730393,-12.72964306474466,4.589887785448287,0.2859217630808071,-4.490014800037336,-1.8039807525159934
-1.175808261010105,-8.62483881294666,9.950633579784963,2.4039181338986255,1.6118003933110217,5.5839831467566405
-0.5993496149659339,10.762647967810123,-2.3835355384879495,-3.0121460615301454,1.027937198265144,3.0894930753317134
-13.893926091332753,2.845572511790536,16.04981429680928,-2.9552090222517493,20.792090132705447,11.735901891462703
8.821215654640099,1.7754633379781846,3.944049401351345,2.062057804722039,-5.931051813461432,-1.1420455755693708
-2.648767590634817,-0.9162670807824806,3.175530969173405,4.287149485218157,-4.6027375723191595,-2.5194779873939526
7.801593465306468,13.610741738762338,-14.46333126741071,2.675279227733978,-7.329343904699375,-2.533424756816736
-8.473137059436487,-35.313784686783954,-0.84981754101962,-13.971459533354366,5.462307536492198,-3.0973004762972782
5.390776201288215,12.989905512830921,-8.548890525689055,3.62473947016327,0.10146638447178358,0.3034805312412261
2.457702397072711,4.339272440296249,-2.2741053437961387,3.29533484848673,4.037243831621376,4.144432821160157
7.2762152833577805,2.5906807889613317,-3.957446040238586,1.1404856746655778,1.3854351001898966,-0.5632373122544331
-4.801479173897229,4.466652936071536,5.906460573334567,-0.3085938056903377,-20.259611876448012,-0.25901057570610364
2.4785718340154435,-5.344571841525244,4.563151169444852,2.1211818533465183,5.191606884681885,2.4820235416106775
7.885693621060941,-3.511108434414468,-1.1286095449949727,-1.2814156171216395,6.902082395078263,1.5909946763869158
12.270896937883174,-5.158907689416397,13.481157293426321,-0.49565341413244834,-0.46804326614562397,2.3534560022770536
7.279313144507501,19.694993530147293,-18.391796354100556,3.2304268075877527,-5.750982399179416,-0.3975008835328836
6.923490957488732,-3.0684396982000157,3.2754207063316043,-1.757598930053816,1.7538375868500358,2.180969210451777
4.284642756171999,-6.50824933839464,-0.8392867059368543,-1.4320656048243512,-0.68919207568744,0.13634362872753236
-4.605836104698705,4.498142527757232,-1.015706980770852,-0.9312357128426713,8.760728855543531,0.5219975247068991
18.419268917949765,-2.5876453018272807,2.7116238842521234,-0.19185785075457004,-7.815372473265811,-0.36273202391494674
4.295445366003776,-4.924455428670797,2.218386093911712,-1.4530896900836892,1.8852089707756334,-3.1498622944311343
-1.2255717775479127,-0.2669548500747714,3.8489484961497973,-1.0207519211683673,-3.302369952087873,-0.11423099042064008
-7.738554457715249,-2.474679225500327,-1.748522232334167,-0.8314707902209831,-0.5312962651679703,-3.772146309141079
5.751877156001096,4.804459562958161,6.468277376442442,1.4274620874727353,-5.9684637918989765,-1.3282926605761949
6.376576496268419,-0.20488476818732446,0.6709386122711973,0.5078229382352313,-3.8653140084868625,-0.9583814507762594
-0.727588377665394,4.522829920729839,-2.8920908897575415,-0.39210797282781285,0.8848764210299747,0.008338449971928563
6.953469951789254,1.0717260522061498,-4.218108118051626,0.06244187736032869,-4.680455345361405,2.630472835051896
-11.020165255005363,3.011347122114336,-3.9971844339450744,1.8513899019605895,11.090565089348326,-6.121594481003063
-6.490793854122043,-0.3195570438030739,-0.7751870252890823,0.753131986857176,0.5568414697072708,-1.8555964320646554
6.007935724672126,6.564898668885169,-2.1774160545733454,-0.46025187645520604,-1.5026892436298616,1.3602700927747813
-0.09730474022866481,-0.017215946691506723,4.02428765693845,-2.1212496872627318,1.5441302274024231,2.4511792258494136
-0.5012462306853549,-3.2061675956233784,-0.7208448218072052,0.9934280669088962,0.3372451826617482,-1.9342696472906442
2.960589919207134,-3.167491328004736,-0.8732389955970528,0.21300822978220588,-0.4820218586127121,1.041437457048358
2.653348719923905,1.4420275644712826,-1.9237581256493637,-0.3386668336666012,1.0549227797603349,0.9478664514600119
2.223293772204323,0.9712219524336348,2.1299372722779584,1.2219766223301134,0.7408034961029262,2.5870351670632745
-7.02404305191836,-0.7196542903555707,1.0916548683306142,-0.857234687524807,0.39464186165970894,0.5725116863834275
-1.409652660708495,2.024588058621,1.6422709252249974,-0.5600184263360588,0.7619975402478714,3.3017824088930032
-1.8504717792248289,-4.53730099853609,1.4213313135437053,-0.3786178141224601,1.133725611442535,-0.9540860378312109
-3.7099312100584183,2.1093385585846502,0.15995713084297924,-0.34599204177141907,-0.15718185278887498,-1.9174280307385438
-3.89931347355003,0.0372541593719764,1.466333150514096,0.055065645624147286,0.8560258040317867,-1.5539722984054696
-3.9100837218812172,3.2556947080371788,-0.237419918171822,0.4631869245367699,1.186912164759344,-0.4672203567848811
0.10117059830869124,3.144595015899267,0.04892686610119615,-0.7834305690848868,0.3651817123277329,0.7261888310433229
9.56072368172348,0.9951374401524573,-2.4578861909283614,-0.06454677529885139,-0.03620562186770959,2.6940828046448977
-4.31236450797868,0.6383331204357958,-0.8051834364201607,0.7327324713379613,1.1640421306135715,-0.14437463884564822
-0.7529412655088946,0.15796898574518986,-1.9596149032369101,0.8264666805343678,0.4499434372051402,-2.046147321020652
0.4623147114748621,0.318099287034327,-3.1274623259903604,0.6779440802752494,-2.4166915647676737,-0.3894271755294542
-1.069383286811991,-5.750992173290928,2.582893557262051,-1.4403453107924733,-0.3943658736260339,-0.04190157941887773
-4.537471999538109,1.4222206723978013,-0.7618186969423919,0.15469974905616954,1.4813967553342298,-0.7984539973172128
0.10060875154668858,1.4993371115090341,-1.5062382711793962,-0.6423299654566832,0.33059343060190316,0.757715372714466
-3.453871828249969,1.6043993931732128,-1.2065632346308057,0.3871300811188647,1.1684407646023025,-2.3538127328534952
2.7010871549177415,-2.040903071650942,-0.7982908109228743,0.23227538469773668,-2.0275996686441706,-0.17159469752758483
-0.1589121041816841,0.24401194900091644,0.38882293152185887,-0.607162152498031,0.5540705643286912,-0.525532149931973
6.1190645547005165,-2.563573103603516,-0.6390744838091702,-0.41908713399116443,-1.9317611807447825,1.361293645344393
2.491684022743836,3.3984291443677503,-0.7287512707664313,0.4374941328619849,-0.952615369136653,-0.0399862895664546
1.5597370488818316,-1.2436298762221132,-0.48022886718925856,0.20893363102732307,-1.105763822914797,-1.219707489988384
1.1548931095746282,1.2903536627433616,-0.8986063020209845,-0.135710318906511,0.20035287951986425,-0.6688832321317788
1.0690279150826105,0.18867335462412121,0.333440797583888,-0.20303460928489675,-0.2924818997733709,-0.8643698649623845
2.1795985135348044,1.083322762014616,1.1928163804571787,0.43038416287151304,0.42904937111217456,0.2575557890523045
-2.069171997573683,-0.19474492077647332,0.4367929869136771,-0.3662540774838035,-1.1066069079966647,-1.330596551278882
0.6826737013150852,0.1765457408619845,-0.6162255750295392,0.3136626491881023,-0.2901878820463774,-0.6417288361331532
3.1053278000800217,-0.18195589749751395,-0.32047902717492643,0.3082211034682444,-0.5753633566818488,0.7387944066472845
-0.5458879915160123,-0.1505488436680109,0.09172794569301529,0.30118388306295985,0.2406253110965185,-0.20662992263081764
0.9593029947852217,1.92602649911564,-1.0699934912392413,-0.0676758511540877,0.5163815081088032,-0.23455361718115614
0.659742524297818,0.5671646455699242,-0.38606150706935805,0.13838622181276491,-1.0349695615334045,-0.35720380511681626
0.5814642258665472,-2.793662998343186,-0.16747942588073353,-0.2557755158048194,-1.6355187428923124,0.7864461012543076
2.286883422966122,0.8289338096969191,-1.5681552635585836,0.2972892571510523,-0.37332260745602025,0.3192494822089566
2.499180940634207,1.4525581648319699,-0.5245853170131406,0.3805486721338965,-0.5936867192880544,1.605642514293535
