Gx,Gy,Gz,Ax,Ay,Az
-6.103418,3.292741000000003,-0.9251360000000015,4.752,-528.028,39.702000000000005
-2.651962910460593,-0.9606483352883011,2.969307962611844,-0.09985536081714164,-1.0384415502091993,-3.215326694073016
-2.830853767915186,18.403642479155874,-0.4556688580550112,-0.07672303681363868,-0.7049653523180686,3.8644982903183163
-7.911653758637337,8.672526377805003,2.502220322030583,-1.4883222201833297,-0.5252129013331296,4.696188595720804
-11.070745957978708,14.288930796033176,-2.995178247552817,-1.1119468430994024,-2.05607179034116,1.3857604356272306
-3.913964293460064,8.41420406369296,4.150528867868369,-0.3081584602846632,-2.716124795736989,5.151158455736406
-11.157776499464184,43.8613636162557,14.972081977996416,10.63014485896891,0.057187494085379376,5.059424539127372
17.157674606973785,17.129448110741723,-8.127584572397998,-5.0364699960773756,-2.0754377868392737,4.127983830178193
2.1530187228568254,19.299872593656726,-10.72350380291058,-2.2665868507481015,1.4721603209035061,5.75729929650308
4.134637485630611,-7.091827106063369,-4.527436745499472,-5.016060064173603,-1.9794110179333015,7.476971843154372
-11.669116677630681,-20.954133468822715,3.6437913364419066,-1.3960755452869777,2.088966211883629,7.02880996891905
16.115413205979593,1.8829854244422997,-0.9147404234112717,-8.603527694473343,-5.533128030430771,14.142389866580602
4.5319503346760435,32.63053560513701,1.9890006679933632,-14.13764757425443,-43.54192590472421,32.182400072077996
5.017921190650759,-28.539511531452334,5.700965925901165,18.27389758671421,58.88484976709468,-41.96735062539942
-10.60213123217608,-20.75815196676001,-1.6888851309957271,4.639415534092482,4.927505537551041,-8.315194718409881
-6.025867291775539,4.002554488789852,-6.576674865556063,0.5945095464283803,3.828033139513921,-2.791829123302424
0.04898249455952142,-19.280238443375087,1.2787276795465599,5.117159471874468,3.4040580154271365,-2.630695777953594
-0.18487993904950484,4.283282530301997,5.7610327761771725,-6.268113106602792,-5.284519858481968,-0.9235761485194087
-7.247299439498275,11.771631032010378,15.631181084968294,1.0021928091083203,7.971533643416652,0.7624916194380653
-16.70199488016896,41.96624126803196,-17.768966216222108,16.84921724717865,30.040710711856025,-2.414332189778018
-10.250522470304537,0.13120411738703108,16.962695699461158,-1.8823693764600486,2.192027697964555,-1.9784961201913909
-5.716729702463744,-2.0043519790703166,12.01863701221547,-0.7864442111865162,11.332564014950407,2.2478701851502993
-2.0696199626641314,13.609949922402052,2.4503305560394617,-0.7252307474971855,1.1200983863717306,1.1819226777999972
-2.1366542008825755,17.99101979297452,2.114692430424717,-2.264848210115498,0.7705364445198981,5.819277348306697
-10.577431257958033,22.890838560582328,2.6790708687542026,4.882591560367926,-0.8769783619391422,2.401588266854235
4.611524957917312,25.884248848012447,-0.4635377433114103,10.846181421757844,30.63191330481476,1.5493559175596152
2.7321069420233863,-7.673933254916712,2.5122370706787605,-12.824222908626908,-13.109987856907036,9.190586200865669
2.441011378205376,-4.594639749105763,-2.2703786411873788,0.4016124153145366,0.602493590763924,-0.23857457738341759
-1.4412572296985853,14.774967085624313,7.946545820946426,7.966981801518589,-0.14553683682727847,-0.8065680768816128
2.701619668836926,8.28905886189608,1.5464998418750313,5.9070623238663105,-1.061851914835401,0.5545753612489976
1.6538102534788166,10.246680977534965,1.646482390976436,0.43503636332910256,-2.398676233073515,0.10936346338470271
-10.355418975532064,31.018982584368437,1.1214657341580807,22.160258244673635,0.7815290621189719,-1.7355999858548767
1.9883158646474666,-30.614544720375942,10.752311241239587,-16.071818941517662,-0.47112288845408745,-2.3503633847084924
-3.9845385855635644,-9.875888975320231,8.114752087303843,-5.195665069570492,-4.932773664561648,-5.487037298862941
-2.1254879314220942,-6.1509034996004655,-1.1208747319486914,-1.7241813539300797,1.7321992406604672,-0.9034879827546298
-2.562925628620337,-8.481679906548369,-1.8420563076937038,-0.8927587175687437,-5.56729654659526,-3.734100525709354
-1.4198794694688015,6.058666546544813,6.86782249510671,2.272652305647833,-3.964729727552732,-0.45945025643778914
2.932458157923201,-11.345672341725363,2.46211320483065,-5.575740682776862,-13.62567152476915,-0.46025316334019406
11.667726342674204,-10.121103426912574,-11.580669828189718,-3.312387631764712,-7.086450847701811,-12.79287613998791
2.7643113232969068,19.844360335602723,6.492404102527324,4.5011851721267275,-15.790683402407062,-5.206658518767055
0.010891591566739578,13.68054737649723,3.727521812125606,1.518635093952657,-7.581677256017791,-1.70523737220197
3.9521351205783835,1.2091078217182543,-1.4093208714709844,-1.8692922197934392,-6.923293798740343,-0.05892738829234245
3.5955223068494804,1.3882223496673722,3.1293344401051417,2.2617509259602135,-8.438989017626044,-4.352586631493184
4.946995454249283,8.587033049011954,6.181450039447206,12.390576601799713,-8.453994714566463,-2.4761232324742304
-17.244020994531454,-37.50791092529471,5.003334143177883,-26.778146051028195,8.757863661465986,-16.57259585348879
1.2822263422494724,8.900474264394377,-6.353252367032761,9.027050744760386,-0.6447624325556177,2.0911502763004073
-2.629303707564572,4.280681654600626,-2.363837562245199,4.182599015762007,-2.0687705060946726,-1.0929473321520886
3.6242453418639764,-5.1813025815691525,0.008206863839889333,-0.7226538665422622,-1.7926620418078698,1.9715895043803642
-0.48736331589465287,-2.540424346523629,-4.6031890334923204,-6.4664378361179065,-2.0269540784629427,-0.10731457187484672
-2.521914654512056,-8.017356904583025,-0.006938912426536881,-9.587981486333994,-4.429240341204976,0.03802158810827594
24.794061014486545,5.387780349140486,6.324395945999661,-2.1275462886594285,-13.120193987063484,1.5181324983374966
-16.866150339729124,6.932222445169263,-8.885430776124533,-1.1582330136192072,12.793542459621019,1.1546770046821997
-5.960023304180657,0.7541129982447039,-2.6884300234500067,2.949956649497154,5.754399681032625,-1.265236382706554
6.786427390961605,-1.1569059711228427,4.487597990211351,1.8628408028783612,-1.96149149706046,-1.7892885023392469
7.636340672739674,1.5010018098038644,1.0131898117049447,4.9171705462465125,-1.8564784752892147,-1.0379795219198718
3.0313785374606472,-1.7012718977558805,3.007781070964157,4.215653214092164,-2.7186712756377043,-0.07813511375172699
-13.947466497147404,-14.25190732538384,0.24253026179702264,-7.139302877139169,12.441464999373618,-9.984998143746912
4.607668449876005,5.309740982251256,-5.616640033975921,3.842988143261672,0.6289328471002973,4.110635660264561
-4.803631140005902,-5.449432248801757,6.418195021238648,-2.9626805374504803,2.2856030425681437,-1.8340138069672034
-3.8317722693028404,-6.6884579348198505,7.7150084403655255,-4.77137546308698,-1.172464780199036,0.1747913376214587
-2.4864275951010018,-3.45845256505007,2.8899275526191675,-4.327558821511339,4.9317336589194145,-3.4923524004281274
5.45537861123857,-2.3281856932082867,5.469464838708524,-3.8369633063327875,-2.7886416548546,1.4571544405728858
14.109847541504486,0.2830650822500713,4.119084717632893,-2.734718057889782,-3.2993547770297194,7.133592535600257
-3.4546796032408142,-3.2510753458696966,-6.267796637585079,7.396147091825039,14.423796139463963,-11.106526298480043
9.22199625231242,-2.6854794210565087,6.398448108696698,0.4345728506332249,-3.8861614825533906,4.47255588209795
4.271543610784406,0.07359249880890317,4.077966884290677,0.660771019013616,-4.6942457917994895,5.427914217618302
-3.5528696845662617,-1.6666868132059265,2.871255706806323,-2.974425309812892,1.1958371707833448,0.6088467985652484
-5.713414361730392,-3.2090018272152303,5.400764009171128,0.5405858329668565,5.603917236247961,-4.5319652787431695
-3.9561193374725634,-5.959568960825495,4.035118749594551,-3.179683422619365,8.044766358589172,-6.381853989825153
-13.387357089886102,2.592919964309255,-3.975167366065549,-0.9799760714050274,0.049782184618401004,-0.8089608694265971
2.335435565860635,-4.905430429476995,11.762422878229094,-0.9226509151789952,-3.195828611598219,-3.03636260421014
1.9506725664794102,-2.0095890660136364,4.761367561980614,-0.5729357811166591,-2.206568095907607,-0.04127582195260082
5.9837262936169315,2.451433462309881,-2.625860706949104,-0.0698986809904436,-3.290803289830744,1.252707666119972
1.3334544410123468,0.2697639809337006,-0.6491606249381794,-3.498738245857351,-5.128467844840885,3.6328294523717615
2.2199319720766537,-0.12675249768213526,-3.850578960235218,-1.0045822344613045,-1.754363715279339,3.2214385933350576
12.577271854708517,-2.9456630828058974,-6.94488054965043,6.930332331652621,5.25976312852656,-3.927187412331799
-13.976126539246268,3.657050523925377,4.239729591880373,1.1382223678578027,-6.182989218378651,-1.418957752228521
-3.605751788586103,0.4421838342221267,-3.6479111804980175,2.402683567163014,2.4476270339933683,-2.7153519259832786
3.9174606175068813,-1.851771305670085,-3.5276747557362094,1.1145647556457186,5.0138337377178726,-2.444548030423287
4.697941301490452,-1.8762015383072925,-2.83350096250166,3.5860838115354117,2.668117401129628,-0.9875270289675585
-3.1092206920659833,0.3097063308542105,-3.6352914595114063,-0.33161510806755534,4.120429043881954,-2.2546516751663352
-16.369526986106283,1.873186800313018,-8.816462050569704,-2.146535497679746,5.179422135060075,-5.4159684471562
11.020386162050901,-1.23466660147968,-3.413609976868986,4.227418392592132,-6.093994315778469,3.464318278274486
-2.911304734792054,3.4714062398597725,-7.190454947863569,-0.8722871214095036,2.3726215393428953,-2.2239202510430496
-6.842538489237609,3.9981348587809826,0.23004113447050467,-3.0335617283858967,3.945926804626374,-0.6029607432831882
-2.3928730886262084,-1.250443540649158,-0.08503846421538963,-2.629470771292558,2.4939567800043756,-3.038301076118095
5.272494894543495,-1.0444605572729087,-0.5679311777703591,0.8287771500526044,-0.4619198720000486,2.7400298247095076
15.12590680268611,-2.3833525793560373,-5.054917264526557,3.8892790916687527,-2.0818647744623,2.6445800043613135
-9.809516171677059,-1.0345807051110945,-1.148701036192496,3.1240503746946318,2.1978109514001805,-6.74666035152763
6.918943459146332,0.9634979524332472,0.184762100510768,-0.804935755391627,-0.31577208534094847,6.929792223546655
2.743539544217175,2.894991971409585,1.7327778437736685,-1.8811164682908177,-2.795383369479154,2.304130787709613
-6.7448246139222965,-0.026488474266592288,-1.4808230091204662,0.5264060849142467,0.0703619339313798,-0.9514276109900203
-6.000064369362276,0.9095502198829128,-0.8834716153159484,-1.2012778663053125,3.6859346873483787,-6.072103878633641
-6.151356236380893,-1.094788552137456,-1.3838456175168286,0.6793848585412687,4.914341441972386,-6.203976268594517
-0.9427539417946698,0.47464002686630935,-0.2807391737611611,2.534928682742383,-6.828632361192295,3.5429877309257707
-0.28905004020142844,1.556978798264796,2.1841137482862125,-0.5754742657987518,0.335917808823036,-0.6492987405848019
1.6756436622526687,-1.9372060815346024,1.3317613329328002,1.46023401115692,-2.1329681791768995,2.1331031724067486
4.313852153651381,-2.0332503714786294,-3.9609533542183155,1.4491602763485691,-0.766445390021921,-0.004750443725035192
0.6794352893375812,-0.38992433332528176,-1.7849519305967818,0.7009712943671323,-3.2797549831496466,1.8080047709671798
-0.696862497218877,-1.0328212414844171,-3.0962598349169244,2.2239080692502706,0.2187146863410645,-1.480304407804278
2.043867130874667,-4.181540294393804,-1.2845521775133435,5.362976463231702,3.494389282380654,-7.414471383827505
-6.938409682992116,4.48775512042602,1.3493826040353087,-2.0100242824454053,-2.068291943057053,4.838944231849503
-1.024918163702563,-2.6469513184388624,-2.9139941869519927,3.0331657927069484,1.3012137785149243,-4.834017838065465
3.8767420802711205,-4.3946477680999845,-3.613568007198775,1.1074616661378807,3.3017224596881816,-3.951724388206136
2.852417912283957,-1.7849296739064875,0.12963454316134282,0.5132508912787089,1.0899128478141769,-1.5201093618881607
-1.203628756343155,-0.5997737846852471,-2.967869897381183,0.11990070812757447,1.0391711062253786,-0.6341536388429481
-9.557559061458914,0.8791098507068014,-0.5377532233821734,-0.5463756816801508,-1.327766112380621,-1.1118317637365105
6.804230537905602,-1.458368701837032,0.27709413719889175,0.1604127110171949,-1.7784489067801308,2.392639181240238
-3.5119500333987848,0.23741764074195637,-1.0196436073353554,-0.49422416898682564,1.8893413791554972,-3.0748909179010475
-0.8443940006891264,2.066209146895993,0.09052908743037591,-1.4975760124513875,0.9946992723902404,-0.9504571990410213
0.16924252351315205,-0.977080962758232,0.024197884239047784,0.016674546418810998,-0.6139718372630768,-0.43756594494895507
4.91740900574901,-1.7401394854530323,-0.9347450528969443,1.4984350553919223,-2.4011357958609425,1.7709867937987105
6.889506044086202,-3.7525482767056233,-1.7979599979229728,2.790392664721168,-2.295498979969346,1.061780751003869
-9.772789927169363,3.0775392429466537,1.6884649218004397,-1.4673847386186707,0.6304426080875709,1.6459659674887597
4.105224571263304,-0.7594641357089595,-0.6694058403902483,-0.03029013704805794,-0.17542894128406616,-0.8709638634270676
-1.3620256824599952,0.6498229678707446,0.3127096197225159,-1.2933265741674638,-0.6572671952173792,1.6202072762761688
-5.744428206072549,0.11238071140470812,-0.7863258456923853,0.9262796240003183,-0.42410940799889474,0.23550554321110417
-3.5435557516576695,-0.8844945507230291,-0.7632272605593822,0.7305172843743435,3.0320360067408485,-3.242226252579124
-1.8558315187374808,-1.2610331474362124,-0.3250424636158923,1.0383838940558197,-1.384534954987471,-2.4385130797816363
2.101283307933947,0.935066428516607,0.4389711347115418,0.9818369828190225,-4.113438424937542,3.8688865385259694
-1.4923184065723052,0.5487109879436185,-0.28265450677823656,-0.5031870908696019,1.6864678037737475,-2.217210758165337
1.7239978857782865,-0.8683035392628957,-0.6780841537137694,0.898509901425696,-2.356836651110542,1.8926986083428585
1.8513357705367033,-2.6968909005564803,-3.4407192579073183,2.1584735221628257,-1.149783029266208,-0.3773853296255305
-2.052121070876115,0.6661598013987178,-0.9501885187702982,0.7660869716201623,-1.0458862423492588,-0.464467338628749
-0.17741465358053876,-0.4193071542214847,-1.340670619804261,0.8978254016187627,1.4553418943969254,-2.7942008450232025
-1.9503605023252513,-1.9407433931711064,0.34514086348207407,-0.1128778186473473,2.2477763945459985,-1.7164718090509932
-0.834597613602581,2.2486005034102003,-0.20416461720810092,-0.93681451647395,-1.7020443807130747,0.5686491574771906
0.01818323955355039,-1.435631123628195,-1.8550702516170219,0.713264463397802,0.09423051592716791,-1.274456426096569
3.496882786766903,-2.4511501350428784,-1.22518938193625,1.0951040611364395,0.20425735222950858,-0.22215745932778974
1.0251433243769608,-1.1370369946309489,-0.006348472110717984,0.14596847980731953,-0.212815882459092,-0.4179409851595768
-2.4914185031901566,0.0012214595133763773,-0.18316609544469253,0.2948806450044912,-1.9095198973604477,-0.3770367584423848
-4.544798188886002,2.4736652292574015,-0.5461609772773022,0.32415531888724725,-1.6068989231283184,0.03087494616655151
