Gx,Gy,Gz,Ax,Ay,Az
-1.6012049999999989,-3.338422999999998,4.2478950000000015,-7.488000000000003,-479.4920000000001,15.000000000000002
-0.5212146906258939,4.6831446580242835,1.0858151114132724,-4.530306741564762,4.7079085951524515,3.395441973350454
1.655371160451306,-5.736277842586542,-2.718180320372809,-1.4925443208711997,4.665528115002148,0.6779221729547393
0.6099855812095418,-25.456310793135277,4.105750397066679,-6.1644192489771905,5.399032371057779,2.0064424977489628
-2.1879814186804474,-77.07742698884279,25.233436341406293,-11.333526130990418,7.751988916532987,4.958998287883258
-0.9000450451050919,2.396433044198791,1.8209986519472179,3.8326253465032067,6.174163822660272,1.1867275569923863
4.582917276974193,12.85733960276741,1.9116068909314952,-0.08225648412677189,8.553718261753058,1.2378256471430702
5.93189305989714,21.80340441175547,0.7032066082867732,-1.8850224506870756,15.387556312847254,-0.010196748705978198
16.59911161925317,21.821451126253876,1.4075578981302743,-0.41928296844427926,43.08139192866564,2.9558116678461523
-11.758482266194399,16.94522076109666,12.75961042758993,0.8104557945080311,-35.264818909455926,-9.523857571419006
-6.628187400629479,15.714963557327327,11.243888957219951,-3.3025394787199405,-3.3800368179356064,-1.6257987572183197
-4.430840088234163,3.7627616842154827,12.608683338352655,-0.7080589510687679,-4.083647934016879,-2.351110601587636
1.7458839985563714,2.3092045971574846,18.927729904922742,-6.06068937444822,0.01763289357690856,-1.1333366778936078
6.186605392855613,-40.874364594642614,-52.933324959930005,15.582025550969204,-6.715127132688307,-1.302508249345872
0.22153577094966148,1.3235087604207374,-4.744024973432238,2.4749190733448527,-6.428065096256982,-0.21531794939653515
1.8196872992741047,-4.922186646014415,-3.3367146454064875,1.7487056364798217,-7.261105044970055,0.8095042882622269
2.7731525607587413,-5.931960786401216,2.672026165646451,5.822363401401482,-8.7046245923424,1.159908021119627
5.3308433868877065,-6.159641322881539,-1.8569440179440495,2.843526105422086,4.81138647763437,18.285266661168556
2.7219486284831342,5.4085342542726105,0.2574157720935968,3.774999183892427,-2.381099955023477,-3.7489248168877305
-1.1005471093301118,3.4359621500619424,-0.7798294446194249,-1.9835078338189014,-0.7673345893545815,-1.4253971860204069
-1.9526398136280478,-1.6316325633099094,-6.134404150479894,-0.43288187564691866,0.7230876463134106,-2.3953349950659724
-12.958525359261628,8.497356509204447,-3.1054000903961256,-2.441005134505775,2.9175164158613986,0.853807837043162
6.861171575800157,-11.578616936862067,2.3071733375907013,-1.0271989005479902,-4.771842490528938,-4.6065549413110265
1.6809208413449674,0.11456881777698591,0.029220330519484444,-3.236595401851134,-2.2483803600631544,-1.4246489481658835
3.2362584027876573,-4.713689735742718,-1.2008157198644756,-5.879713642392453,-6.466960696655652,-2.743551585363708
6.921551086512858,-3.93851257224061,-2.5022715449256516,-10.26716960625712,-9.28229516302482,-2.904141287374623
-4.393102079332852,-12.830640900096494,-0.016072266240024558,-1.3584018674145844,12.091936760532349,5.439988542866738
3.0490825539913957,-2.088762128512612,-2.5960810629692386,-2.48819585744134,-0.8240539097826451,3.55098767126417
3.6421498667470713,3.7936478763011605,1.992775551249555,4.624189240960942,2.191548189817804,1.8615085370802804
1.121535521707024,-9.874924860016751,2.383505623510519,0.040955484698178335,-1.4973051026244226,0.11004627646923204
-3.7688646448886534,14.956727179383774,0.7367815887539529,2.81183971560178,-3.314310388592625,-1.2595425957727016
-2.2605257032831636,-3.5719411357833883,0.6007858787179002,0.6025912031230898,0.9330298507904359,-0.7660749429881789
-1.2512108447678263,10.72569901402788,0.19523225585759052,6.091101687354936,-1.791064351532078,0.9525939887803367
-0.36582445302985994,-4.1095784962884885,4.600019523222449,2.5280123702517896,-2.2651396108445603,0.10115988058167646
5.114762244412641,-1.1654449407118765,-1.2709137861518478,-3.4520034066468153,2.3571700509049025,-8.082808958982543
-2.06738497100289,-5.372036285771303,2.2625902278696666,-0.787066378801206,-0.9284587787711615,1.1288693932423013
1.4446222074887822,1.5903882611843123,-3.9436681025965523,-5.117043504811466,-2.996963000539427,0.6517632864776866
1.7900564734927658,1.037539138256438,-2.7410725831903733,1.8403640557150382,-0.11736308377647336,1.47648132872895
3.4449229682640476,-3.1886527361702792,-4.015147741431618,-1.5251287287083088,1.4552750497330447,1.36759189813405
-2.4576761548825394,4.7251755571645315,0.6672413761910017,4.207686246179767,-1.2463264681529755,-0.9914633729312747
0.759680478760111,2.868594622645264,-1.622599154965976,-4.379166362031497,0.2520939767785856,0.05181879753915102
-4.947509625673287,3.301758642041302,-0.6829724496184919,-0.21633663653899676,-5.368020726230803,2.501755651422295
-2.749676237194997,-2.7618440768740284,-0.3986743738676651,-0.36719481039304136,-6.077329728361665,3.491162579498711
-0.5044470103447629,-1.637323930648694,-2.397580672423367,0.5394732554192052,11.66710289201111,-4.589545226152044
1.6348781783224513,-0.8140216461867448,0.9266698991635713,-1.5346899013373405,2.9772774408580114,-2.9580753465452
2.6332459606304397,1.8359231988273832,2.1366043691988708,-0.978435181196412,1.6396223323161716,-1.8527233069869542
1.084997583071453,0.05929101863489561,1.2140042112923317,1.7184713495045723,-2.9951211216948987,-1.09033733906302
1.4714639049134557,-1.6032073995363747,-0.7942978376287402,4.622258231321373,-0.17435835246137205,1.31281499920531
0.2476684635953298,0.2023725497136869,-0.2452254797529121,0.9033760934281276,0.6275069156277349,-0.9583750007570806
2.3809294887020473,2.183486106054093,-0.041136788725647994,-0.22924266306163335,3.046328721490723,-1.5912404361496681
1.6217286094206846,2.857912428188663,-0.23682214153809755,-2.2682433013892167,-2.8642140595831265,-0.627265914325636
-1.6235514850364148,-2.4088295834070625,0.16893000264717753,-2.721565926354023,-15.2246456957669,2.97604250984394
-2.1781568997608294,-0.0012694782421645012,-0.9247233909816244,0.15017943370345632,3.424398499758919,0.34896158858377174
-0.9955453593357098,-0.32446647109999444,-0.2563141500497442,-1.5724458131351022,-2.9807436108740277,-1.2822705131033265
-0.595705115631735,0.009382541125485658,-1.1740950018311156,-1.4099309681550052,4.181537469260061,0.8658635804371919
-0.45772491191487474,-0.31437685238193724,-0.4469027782255258,-2.8393642525729406,-0.6670649554390793,1.8191915624822708
2.9012169072690663,0.7905249009084752,-0.41135002054202263,2.6783921145989225,0.866415283255435,-0.6428098408125266
1.3041377108159211,-0.11955382973356188,-0.9957224767077684,-0.9925426905653131,1.5602014394520798,-0.35613837763022843
3.484969387596598,-1.803935945327414,1.4056984925430958,2.294292862285127,4.6259648739982415,-2.0311509107381274
2.4121790012675066,0.8870516611404441,1.671416884105942,0.5072487079717269,4.644737178966402,-1.0664157478587475
0.32697265764728806,1.5801835948459284,-1.0102334313995294,0.5765830215185036,-4.571631442356482,0.32421718750203987
0.07116507800134009,3.976359682951671,-0.3917519060343524,1.7100558192951834,2.6067536641092,-0.3291686367249048
0.5810527425076812,1.3939083944364214,-0.06971267113834817,0.9110153311187745,-4.512962285064755,-0.2955240628846566
-0.14303953188505958,0.9696592478930367,-0.8984964592259206,-1.0120266160757279,-1.8294084072198324,-0.9172173685685105
-0.6890519663194246,-3.5680597977964186,0.6200930273738184,-3.8516108422892588,-3.2383418326951907,1.7143636559670963
-1.6237081167233736,-2.487991512429841,-0.20065799536773465,-0.37352901841124053,-0.3638879887350268,-0.5572595038738923
0.5144517399813949,-0.18913653749216927,-0.4568339191352456,-0.9287557265982215,-2.120673522538899,0.6711653039115734
1.0785749212057358,0.07398483164997177,0.07856001608018282,0.4390557757462072,-0.13213753018618069,-0.6217418297061688
-0.23741854873552573,1.4538418757060032,1.425133743797484,0.49414402328933726,1.3866259117162927,-2.2079228633520716
-0.4154132074601165,-0.4093611094508285,-1.4417559338781822,-0.7354667661178578,-0.3870161954261605,0.5212848524590944
-2.788486793043192,1.1235926371594727,-0.6813383649554735,0.03714231301610307,5.054147220234608,-1.0821122681714028
2.3081668962716897,-0.4023817357859729,1.141415619187472,0.6773521978607739,0.8576389797006785,0.2887777376339865
3.372589930716428,0.9089958232936635,0.9038668008560542,1.4516021407929738,-1.3753431515359658,-1.0695992242104584
0.8419604942268801,0.5440993899469008,-0.7700139040821944,-1.5417033657209802,-0.9836263037570403,1.1120634070066049
-0.8638509980410123,2.6266411251870263,-0.8969666705343209,0.9667912173728941,0.9998026086717968,0.06563828539017189
0.8768638073747346,2.19136828129604,0.10924436160003786,-0.908093130349629,-0.776210518008801,1.115620265385386
1.2051036960734909,1.128367239806642,-0.16929188286123067,-1.2449536783012471,-0.5273534478403027,0.509512534252472
1.7790850799003768,-1.082077986519365,0.610393969185707,-0.8479992908811456,-0.1637069839937535,-0.7660633113559391
0.8094994601311425,-1.6662188427903202,-0.4654000316942205,-0.5190038342108001,-2.139112461763994,-0.4343519523991617
-3.1848402835997325,0.31645872394060215,-0.018804514282647455,-0.9181876782346886,1.1854861845264524,-0.3969921043191461
-1.5101051352486572,-0.1310072987853742,-0.271782625286673,0.29927606475472424,0.4779116545884317,-0.7151072644969453
1.6175560311909145,-0.8017585520301986,1.047100078631396,2.391296207339824,-0.8001564915335154,-1.2412313245198916
1.0890806642890358,0.6646188885956277,0.3177064552658568,-0.3326426914635202,-0.3641501511054579,0.631359051225286
-0.33767479226070374,1.1008167836982186,-0.5291090550308954,0.2855445023379827,0.4506060452992367,-0.6959643362459579
0.29534598240319865,0.17245888284567074,-0.052166275353151395,-0.3697274401297293,0.6071223486958022,0.5689062023946421
-0.45530359531886233,0.586012473073473,-0.02836764951124998,-0.5451000655188811,0.3113674027617682,-0.5756225250167822
2.8148441840487317,0.24964598051081377,-0.4119556993650186,-0.4238732595688761,0.09245157226249279,-0.004651857635195378
2.252438273190739,1.1477696620364939,-0.7027902420106751,0.8086452053558699,-0.22803852603363423,-0.8018710668605481
0.06892190219841235,2.1753878578148234,0.6264376772211003,-0.12828001239448575,-0.6378584316884878,0.874368880437587
-1.073022423777002,2.043650018986997,-0.13494404856724693,-0.4685632036982944,0.123868428778112,-0.862646843023184
0.07350782498053221,0.17944850434437998,-0.5315143362963167,-0.010242632063894141,-0.34541111219682513,-0.39792543339435743
0.5752512099513941,-0.6495941725226173,-0.17780158021567904,-0.26376472678356244,-0.5432434429763185,0.11712905686375312
1.2266630101403009,-0.3600589978363375,-0.039275758880708084,-0.8824191783463256,0.8634182140860976,-1.339843528427831
1.4950365395885954,0.4855809915314303,0.03511719816018899,-0.5164155339716258,0.24882755714232346,0.3268724552213857
-1.9176110360552123,1.1128201196916203,0.3499935033078197,0.3320696615019816,0.36192815587928345,1.3632482678930151
0.9340906425813713,0.201061419248851,0.09224594108280185,0.21467205191108343,-0.09268530267399959,0.10178324517100429
-0.2957696866992215,1.0123004627943597,-0.11951483235225314,0.9325325993245395,1.213769578702004,0.5162672249461089
0.79601173506627,0.26034645007087176,0.4983408716085783,-0.5648242579004437,-0.40130754478648467,-0.1789745933988672
0.04905435040919015,-0.9730907658466241,0.3358161216376143,-0.36315032963465144,-0.20659124579605892,-0.6208524484978836
0.9476729503812532,1.1335595726785248,0.34606358818143973,-0.3144341369763312,-1.0874466078490088,-0.22864398675213307
-0.3453225071830959,-0.08571905586318476,-0.36664494340833653,-0.27281067947272747,-0.9459986053600011,-0.10550183400051363
-0.34722185562773344,0.8475590727134422,0.2852560217634875,-0.36824470029735423,0.730376647846338,-0.8646022691372613
-0.6334034209588906,0.6830870656756574,-0.21572274753925746,0.45800180047316574,0.9913579846747957,-0.8815074711207955
0.022620481147308635,0.9966754839522467,0.37960320706712924,-0.10385783458931869,-0.09303184947269438,0.26601835525619005
0.5106583208472749,-0.09167462339038734,-0.37633846290881035,-0.5959439245308997,-0.3200288370291149,0.05547462916781429
0.614496200232969,1.1525851734017096,-0.14965556668980468,0.2873685284635839,0.08240653891937069,-0.21912702521097227
2.0791034117433767,0.45407189284891625,-0.9009963814670158,0.5296770508933297,-0.1849435705033963,-0.825051494419111
-1.2768541461910319,-1.1549821720811155,-0.3067508369332448,-0.5112211736431022,0.8032802967765676,-0.12135250441489262
1.3903311544534893,1.1385403981492408,0.6786061603464084,0.14097698631428404,-1.008538823048182,0.08425102140055457
-0.23642460033131907,1.0561406021292998,0.09627208883945552,-0.15625716959053,-0.5723330815737006,0.6814918823662266
0.32576673989082056,0.745875396001787,-0.22541608759388693,0.25143902926470185,-0.6086842577114266,-0.0019071256610852516
-0.0767762826008659,0.3048522900023124,0.11156612491560794,-0.11195700112371954,0.27198377163203613,-0.27555177974717054
-1.5669836508972559,1.1232708158315436,0.6225276787881184,-0.5451882655839531,0.7947887915924146,-0.2912919875843927
-0.33672414062696676,-0.8731812541426703,0.5536677237588706,-1.3316482658371889,0.6663825293402168,-0.21485319143131432
-0.07558961161344908,-0.6951226441096798,0.6958948165214126,-0.0701947953999822,0.377398478497014,-0.29782194780228516
1.8773020195130412,0.6828986396076319,-0.18459747128803786,0.7017037903474794,-0.13122281594929344,-0.5143365178965899
-0.8454734620801047,0.34927087286078823,0.4560885329383977,0.11753486013070984,0.5800918190558934,0.028532998292182823
0.5304489065292253,0.995487055665194,-0.10340915368773694,0.4444628590978778,0.43462020170188204,-0.4645870226283451
0.9151572572403668,0.8645149455357559,0.41271685307821004,-0.20110248506002754,-0.46386693098773074,1.0814175366896857
1.5717428282848898,0.55598158173161,0.702762081480379,-0.5942386848632812,-0.8366958037544748,-0.2897201137176976
1.7430802234336717,0.3322921190395149,-0.3200863228558661,-0.17577311383019426,-0.3028747137152745,-0.8103256653487001
