Gx,Gy,Gz,Ax,Ay,Az
-3.820923,26.040090000000006,9.101487,2.6819999999999995,-466.10800000000006,-116.12600000000002
2.7363283628351196,23.654003965938287,8.927525062711933,1.629004163940904,0.6818500607993898,0.7821086021696042
-5.656604153579256,14.455909840669113,7.0763760743865864,1.8504221199503883,1.7890257373044434,1.1751781714965694
-8.735023658018955,-3.46710564450767,7.303733416863696,1.6922310650516181,0.03525735832492094,-0.6772334193490246
-6.200819845002539,-14.800084960200131,0.17396618753109205,4.674383578682733,1.688395494083009,-1.382524925058809
11.684801009286435,36.815410547009535,2.256856452758523,-4.659652469947632,-4.174296085958854,-1.3063936954862942
14.072082119623072,11.847837463758001,1.7504949675877985,-0.47191705266274964,0.4411461719301195,0.22738148430252514
5.581035133334494,10.548299762100347,2.6230419756609606,-0.6228413739467646,0.7434093036285043,-1.342090649188761
7.123420131115198,10.915752944637466,-0.4187046179190679,1.7554447657475034,9.379746678292916,-2.1650262375032403
15.065603909958995,5.645168351590616,5.467190665509074,2.9414252189909846,60.616349725754134,-4.380259941980992
-9.152144736643928,6.070987536458585,-6.679472148743514,-1.1064192682367708,-21.555331683978434,4.409869395197175
-1.514183940384381,2.8928135960147126,-7.9114706199759475,0.8610493444211049,-3.578836672312356,0.4453256149555336
0.48944475576958846,0.015099341373618458,-11.817168234425253,0.6124125755241048,-1.0604850039786324,3.349012780638736
3.2954856991027244,6.688147281059663,-8.273590704569617,2.2353592015345494,-0.060472856065431735,1.6344092780099195
-5.052033896888647,-12.98546943622537,46.21049387318954,0.6434833964513887,-2.5148261254798383,1.1351935498848138
-1.3118595903368708,-1.4490908529065853,-0.4970671440264368,-1.8944047991161155,-4.450909897801086,2.0990837446991266
-2.3662548830959773,-0.5194288003709593,7.614055860715013,0.5354473399140535,-3.5320864255822997,3.7123012418668733
3.0350588170695363,-3.8288341767951524,5.452468043711345,-0.8842611254958289,-8.70598662937772,5.909634126968052
8.938791100519616,-2.8164749832729132,9.587846822027863,1.477257929388783,-24.04006552107073,7.950737742876967
-6.531444510282206,-11.02964171210093,1.323338584887627,1.3137991402721063,22.089318189699675,-8.679845503113157
-0.692085303415897,-11.22663455257534,0.14890481798321042,-2.441371986351591,-1.8314846002158802,-0.891303372653824
0.15917404490877063,-6.237650894880822,-2.4298370156516214,0.35619337887227764,0.025624332243543435,-2.38121636413122
0.23981421404965797,2.500353461319628,0.21183628139547128,-6.984603695614597,1.611496309704421,-1.150649444666839
9.776511714606961,54.49474248528898,-11.419500839860774,-14.267285961150787,5.009270515066702,-2.0537214272608963
-7.696635563862349,-13.253532792049803,5.808277684362714,4.705855336853098,2.8283218633912774,-2.5200481082490493
-2.5585075101655486,13.072463408874489,-4.892067089174374,-0.8825620759662296,3.0670647975923977,-2.215358112650428
-6.950879949349555,4.540543764116932,-0.5223059682971214,1.1047130717622098,8.878286825434753,-3.9407285082529113
-6.642344817717795,7.528361507167972,-1.8132477334593595,-2.308805304888404,7.4966941088196455,-3.762937004639752
22.107295211612993,-7.204978544792542,0.9196007878301514,-3.447279518757187,-23.170274028874644,11.260249082843181
-6.925496096314408,-2.731657059841651,1.264483073557158,1.2959426208019575,5.35847557148109,0.5537908904433325
1.0486452421802037,-9.567424337975288,3.3955579543284493,1.4579959575788424,-5.04092738398559,3.318193033896172
3.014444317504599,-8.919104118832491,-1.814842509922964,-1.6695513872742604,-1.2090222082031512,1.7677052308358723
5.743796338198443,-9.596318158437182,-11.947677424490713,-6.923244021481549,-5.330519469297615,1.1372677840104988
4.557114189667796,-4.128948877049894,6.168464660224683,2.0328004457528275,-5.038143882161635,3.4876391783653284
5.892169915773522,-6.997459319490804,-0.7472938835680614,-1.1604926578089685,-3.495907928401028,3.9787115478383512
9.494718514690588,-0.21994138121790208,0.538889141090427,-0.04696909458972254,-11.909331235769184,2.5717440397624545
1.8471349086454185,-3.8343247344022187,2.5530451036573245,0.9627994068179432,-2.3162478511649245,-0.08920110382854651
-19.43350335875573,0.9313777267815313,-0.9828455945101218,3.204691478224646,25.921402981726274,-6.257592928571225
7.782390416007958,-2.9955278293097933,0.49443382854550766,-3.945018846955588,-11.722970131170182,1.319618764654627
-6.681558893183155,1.7678314179209105,-0.6212374864336719,-1.3045418942145148,8.37182244043661,-1.1700456059737099
-3.459194642034612,8.122694987909234,-0.8376253901251165,0.4042932150505288,2.358939705608723,1.2849711194835773
-5.941444579400809,5.495118875917834,-1.1335994484559444,1.7748333504016829,6.4048524094785915,-0.28328667319668055
-2.6085133117225325,-11.506348079755217,2.7724716255169355,-3.5993672526828875,0.8650240526575113,-2.821808682237333
-5.360361712950161,2.3971631793498474,-1.4672945322736386,-0.29630973232906244,4.614843386753849,-1.5030006399949754
-4.191546641394497,-4.599695739019833,-0.5058030668889837,0.9292907632029901,8.30777642041684,-2.4129055645475446
1.9056339177863428,-0.6459862848554998,0.43712388769720056,-0.8642461838669581,-7.856261506204788,0.9364899613032245
12.921771259504851,2.9003522502187877,3.11236929191773,-2.955589977461311,-23.42736715449754,7.597544941670581
-3.660621277779537,-1.963700426255707,-0.5095335980132711,2.8441994927221614,12.281648562871675,-2.71283206049203
9.401524072604882,-2.079382223623922,-0.781320234818165,1.9704904717115665,-11.646242838371965,3.4161274697396236
0.8212995211155292,-3.7259999184750496,1.6300353081763594,2.440420361910764,0.1597717245964816,1.3032750645042734
4.6883993900678345,-4.048071328117894,1.615993293198794,-0.18639815128113935,-5.71593169167247,2.355946371371523
0.36915532968201326,4.314680026238856,-3.4974071567542024,-1.9521731372087954,1.2514123969485325,1.099190025416166
5.257656652360771,-3.196357829917055,1.266106722530294,0.4543828423848044,-3.4866673584083454,2.6886353256772195
2.091246307111917,-1.7945228764325605,-0.012649357751226387,-1.986684046688103,-1.7212020563350343,0.6869348253765843
-5.529557022190444,-4.144204810592877,-0.7272570586957481,0.3234276876733233,11.18089041614789,-2.2634576248527356
-11.14800009375211,-3.468652116064632,-0.2990746432771294,-2.6535599146533846,13.290712157598765,-4.952509392390299
4.889314519699889,1.5359391091250676,1.6139479406534716,-2.2714430314426655,-12.680162292864711,3.5935578027373993
-8.330183737624901,0.7576359105952968,2.382345149435106,-2.6637471780631974,8.59250709265474,-2.3268418211707966
-0.44912076038128834,-0.6611928952430928,-0.8123354884382982,-0.7483358817241257,-3.182912593748473,0.7144164921217809
-0.43823365411722515,-1.5967680951567047,-1.8690933012088062,0.9809223718030831,2.409045843888306,-0.12407510089869778
5.950353146339266,-4.701505685327554,0.2242759728385914,0.9906621938781653,-3.130203608376055,0.7022507899977541
-6.108226484224127,0.6192645498528317,-1.3978741987461982,0.3657139379474862,1.7213116580221215,-0.3001277943393009
1.9342922243557843,0.8185055106055438,0.2106448629643628,2.270487287608806,-1.5998255923214946,1.0647049092225833
3.9400311359420415,-0.03387330463500754,-1.1053190033633606,0.8855943715033037,-7.555587064991167,1.946115694373764
5.329134616294581,-2.56390771876487,-1.974775790473361,2.990747566601248,-4.389487720220366,2.523758943865616
-0.5143395512244354,-4.336461825674855,-3.2845213776009725,1.695758976006836,7.934262962953758,-1.7356455629215464
5.816473549917122,-2.6581895366322517,-1.0522361113790641,1.6893132540475122,-7.206824142403489,2.7481865318254908
2.0378015234426403,0.2960487097616933,0.2519564667776292,0.12478043030229102,1.8546551666035214,0.9246678972004483
-3.2919412593711597,0.4577116400835666,1.4297911032712334,-0.5142424315256653,-1.116347208388106,-0.09963386134631247
-8.520614753208442,-0.9618514555620881,0.38284264994514805,-1.2690113644350491,4.180177083414696,-0.7300492902283282
8.276079593434684,-1.6152400653710266,-0.8242248895780515,0.2790213092128424,-3.024799435336268,2.531640027529489
-7.168573407630101,-2.41380023871168,-0.3334434041817126,-2.072602740274545,2.7398765244254903,-1.0858145149994558
-2.7100635831530795,-1.8142837742817695,0.17315061619536043,-0.448110046340741,3.23113734588942,-0.2737705430559543
-2.2193404528698357,0.7516731171409171,1.972890321057995,-2.302689149127418,-0.39038622886131424,-0.42438635326817997
-0.07018481049432479,1.316410048624879,2.236044163703926,-1.0273499338192247,-4.792773001201566,1.0467347150224762
-1.2883116415788376,-1.4890969006319748,-1.3454316405586837,-0.37338359710150143,4.182373103138712,-0.8422515901919196
0.9751082098924297,-2.0050586374326738,-0.6130157366124811,0.9495238228010557,-3.5145834420148088,0.4244248841566226
3.5005868226803942,-2.348174763040946,-0.2959255394528406,0.10281303246346063,-0.6203478026955169,2.164988485595037
3.33921115054454,-2.461924757569914,-0.1094856219395422,0.7690506322355357,-3.7838826270064834,1.263669089041851
-5.846590573644544,1.3306455737845715,1.4153380314144777,0.6014787243425856,1.5978287638679625,-0.9638089558171623
4.786236120386411,-1.2277514302506836,-0.9602534007044807,0.9565558258567624,-3.6806791519654354,2.613034868160403
-1.7028276274412688,-0.4151097882518625,0.4429836665810893,0.21528876066843233,-1.5138767473889965,0.6875204381914769
-0.4092168903353919,-3.1001880598279836,-1.0393390711692436,1.1121379242188656,1.5687058264655078,0.9360009244446379
-0.29823793788167885,-2.5888920980391408,-1.0226889783579296,0.8447481624779976,2.22118654517647,-0.0285127284101645
1.1593212603548602,1.2263878684813179,1.1669106875437456,-0.23869747327085433,-4.002588014291376,1.8516514635298325
-0.07005269779502893,-0.5897644556723518,-0.17066411798940712,-0.38813579906069606,2.611275145077734,0.18895160186890947
-0.9223771334362905,-0.239387458038952,0.4728244155259009,-0.42377917473822596,-0.6941449793338736,-0.6170976163806002
1.1970877808145757,-1.314259642319933,-0.8520277921362436,-0.3336394823568816,1.545071717549876,-0.06471860297576364
3.3170774740076094,-3.9252881594182916,-1.4270950057771594,0.405957330352978,-1.6466866779343254,1.1574530854960279
-2.8405984475726553,-0.400224539290629,1.2063037865307074,-0.29131040693115373,2.4425217524691805,-1.7179939309804553
1.1190973593158546,-1.6510854842742442,-0.28996095282357026,0.6476119576840107,-0.8060685990162826,0.7536194577777737
0.6430421355185936,-0.2676007557111215,0.41545251819690837,-0.6037220876014213,-2.7023535097134577,0.6958097106745756
0.20550177103297518,-0.8903975038250664,-0.5873553241098413,0.11804605739987378,-1.65132913390246,1.5112631841049555
-1.0788892174646192,-1.8243445347560554,-1.3737743511880656,0.3763734296040473,2.667293579023096,-1.0203899048084326
-0.640919628471186,-1.5901772655847295,-0.39604801160276837,0.8647727139234391,-2.6861508183473948,1.2155257134273252
-1.2414706314734496,-1.6591612127513709,-1.3305767690066312,0.4804601430357706,0.7027290038396572,0.7925639754702101
-1.060919696999292,-1.013497714711142,0.3062539845951165,0.009464526295218267,-1.4644437219821915,0.764428351637306
-1.5059546479341857,1.0353740711523742,0.17668098533356758,0.2920475974712457,0.6282824792074546,-0.18603636123247375
2.0264161382906445,-2.6493336150430533,-1.7690815654600511,0.7396859396333512,-1.8347786865028377,2.1443432042414066
-0.8513292902158084,-0.00038511473608188185,0.5402713983584987,-0.5796264459231046,0.5493771388827942,-0.18752336081696175
0.17892985911961762,-1.2761615058463245,-0.9167576553487882,0.7360793849328375,1.2746921745970088,0.1891536864976482
0.12350129281640848,-0.3304412967556929,0.40297457662634695,-0.2403992924214433,-0.8624561758492231,-0.15752349512491695
2.5217192844581096,-0.6646583926098533,1.0389821757506608,-0.35176234574213694,-2.576269705069549,2.353089648326507
0.9558771873844165,-0.6883574740194145,-0.23835543121502198,-0.1969935460486311,1.3037403517512653,-0.3808359871896027
1.6438769313790838,-1.2803551848007804,0.3108099662908098,0.2700101640027859,-1.8748188421396539,0.8798600578578851
-0.098159483406977,-1.7629501478808143,-0.6323547354613408,0.1510666163734533,0.7405028238674687,0.4990322464409538
-0.3468472117646866,-1.4455720026238528,-0.21223671096273083,0.04012680910545374,-1.2229741312422737,0.7092307864181637
-0.7265363265855338,-0.24310719429247618,1.5626828596574363,-0.46839547971672796,0.5220048329364364,-0.8508368566655546
-0.24871006134792784,-1.816541959835792,-0.8660323248435553,0.680150303971513,-1.1541845130523376,1.31027759416606
0.14616728596186235,-1.043643780566012,0.0846504722324764,-0.10640941790372958,-0.9672203982252907,0.01151084129203421
-0.9949924092445668,-1.1756688792868313,-0.8108171760862439,0.6903212170988193,1.1702465584684436,0.6317233480714681
-1.2755070110438573,-1.6845613380729483,-0.8967314411908563,0.7188252144535131,0.9685368258775444,-0.7449741281940407
-0.2786652404441673,-1.4256055194640118,-0.2971736779874434,0.41377626179302335,-1.5599882677488672,1.3047288543052855
-0.5465443167164264,-1.1696181673164363,-0.2708617419018988,-0.26253957882211565,0.566260710432822,0.15225689269312065
0.2509354851918139,-0.6695483851074273,0.13683906991401568,0.31120403925671963,-1.3132271209656359,0.522607111957256
0.011847070747496968,-0.7647668842414103,-0.6947740256866146,0.2616764281351516,-0.030751731012644612,0.5583982847183895
0.5413488783244658,-1.3948427378357198,-1.0509372124983511,0.4490326007821312,-1.3184307334755272,1.639473054659405
-0.17850535414295943,-0.6532466404655137,0.9328217858462604,-0.14476864147268284,0.10916464003478624,-0.2684044296316508
0.3390524475958767,-0.9524986729501722,-0.41441840661842705,0.19016967523914124,-0.6729011014595552,0.9132182457865397
0.4707682699317344,-1.1032013739192181,0.5569751825356348,-0.2249853161594514,-1.7846621546863128,0.521150584142313
0.5150958277873181,-0.3622134089140859,0.03179981222690324,0.06544104639831688,-0.6241565566205214,1.2922001120753206
