Gx,Gy,Gz,Ax,Ay,Az
5.666284000000001,8.874545000000001,-3.520340000000002,-12.641999999999996,-558.7299999999999,120.63199999999998
3.371094158203464,10.487439211277788,-1.846040920467717,-3.4997271202545184,1.217644528347773,5.224889727508824
4.507080388295072,0.9851182304899555,0.10395008994811156,-0.11968230639357366,-0.3655006593757329,-1.0640911632389045
-0.7380179977970012,-11.422387985587914,1.4517440209259886,-2.878043761744146,-0.10692819546462416,-3.957174460612407
-7.757781790613362,-21.154923342977508,7.148126213370493,-3.0082860700878173,-1.2063153443678463,-1.3746794835484284
-4.911263630031414,-12.900986434478437,14.606654899457132,0.36034655187309916,2.0007619803394094,0.0973261595365792
2.953044415738395,-121.56761359957343,76.71667353093798,-7.634824664678981,-2.3703491810388964,-6.607941028159285
-6.091744146046494,48.90120001831884,0.8427174296109872,2.658791844468749,1.0186488167738783,-2.5278694672442894
-7.531262147791084,0.6446731706888399,5.791209218413035,1.4674473969828572,0.3429240203240159,-1.3567650569592864
-9.142350939200748,11.462147493337206,2.97791387640061,1.479756488849304,1.4856870832650542,-4.34184236293272
7.672527724539261,7.9010128908209705,8.130862862500695,0.5228415738847184,5.445526676862597,-11.57836804309169
12.326126707641572,-10.666342828770256,3.960378869295763,0.5845062132157712,11.564050704004915,-22.0261036867204
68.06128670785726,-41.066217418372766,19.653177363870697,-0.028640759835437457,68.63078796075169,-29.52758905041334
-42.63502454259276,29.265836260936794,-16.50419481322451,2.6726419689298395,-30.078135060469553,2.4944051653795167
-0.5470178799631729,-2.1347410744583524,-6.755719429298455,0.06946253866416724,-7.927395832174315,2.1767873464134984
1.1201538925503605,1.768086910297737,-2.6340560156495227,4.715434666416305,-0.22413596371767264,3.991312569764939
4.961113649921789,-2.039500726030968,-24.385682448686246,1.4719062754801402,-2.7890257022391642,-0.47875095668917994
-1.617813510158462,-5.34575097298743,-45.42270573665616,2.3725182881214564,-0.8413017293267085,1.213293297218276
1.2682456517439071,9.208864082476786,24.852435498184988,9.99380506456741,-16.826539309192814,-2.1434733313268284
8.470050070430514,5.136845299851183,-88.25482739950958,0.4535892238273529,6.356660995428554,4.920608467762316
4.447675887106483,0.9493254767387378,21.77234699511764,-1.027727400627501,0.9565401220583849,6.137133853924206
-2.108906513922675,0.8490016374142477,14.024152968436713,0.10182641409970672,-0.3795467930056633,7.659614494614223
-12.44968006028262,-8.532179336645108,17.041368183028943,-2.215389958027986,1.1400365956333172,13.119717324201336
8.374332828717275,-12.072579923835884,9.937620522485123,-6.0239864956975255,-17.91002905197784,15.24622335136469
7.6186454097631495,7.210245004140659,-9.294242658703265,-2.1570834921332303,-20.914527288655417,1.8822873226412928
23.016320741220863,1.0554647038553542,2.0223406783830775,1.039316510596028,4.2846080082818485,8.137441508826221
17.102689782043974,26.467088896318838,1.6095743433141203,10.398822343492462,-2.5571383289283913,-4.507901687392229
-6.836267852633641,1.9541432570773167,-6.921464245329241,4.027744355502382,-3.9570756601847967,-2.735041280974183
6.79307997715221,20.29540941441619,17.694261603992597,11.109022184743399,-2.5775132804919165,6.110174443885326
-3.1999493911363746,20.164849763768547,2.5921159228006223,17.565964496498836,4.086200703508217,1.4323100490507095
4.9066004984093645,-16.73388471106328,-5.954832597786091,-8.546711679267016,6.1897617488921775,2.107469081856873
2.4699283572890387,42.22684931192444,50.54964665679086,12.355988271760934,-7.76721418329506,-4.953990044236197
19.9909559485614,-26.3067426121709,-8.631899000257597,-14.153053440949861,-6.824295452642865,-7.275349493595618
13.057004422097927,4.651600164873569,-12.981018228359874,-6.598905463306849,-16.33456459912577,-13.453422800906486
10.682311289367224,-7.336559776836492,-7.596734251174977,-5.370661510578666,-2.2179389377973338,-12.46306926438926
-2.2113920049500635,8.773400629199823,9.487727812965964,-4.2660066344373515,-7.003557461261422,-8.131332133895322
-9.75155968298693,-18.253930419262506,6.4881844125885335,-5.236849376774091,7.024590758354571,7.834262945053339
34.014859362293194,-30.88495830403789,16.991455191650783,-19.41604675469292,-27.93473197284353,-7.873068230886195
-21.38971991993751,5.163407866278302,-16.658661042398773,-4.274365357301592,28.055077446972682,16.333324948013633
-3.5427712375493807,11.645831184517677,-0.3729228387048771,4.451779759621014,6.116437618229898,1.289054531343615
-14.873460222901505,2.4732233003410204,-5.550547838357667,-11.439735914985015,4.891374535430005,-4.122671590621373
10.658465386927777,3.5300549900775358,3.9061505961922816,0.7369393961567194,-7.196925469754122,2.1002563877127103
-31.046562616782087,-4.2948677787533125,-7.471319099644706,5.465435463641093,11.84361376183986,-2.5855911823611217
-4.368149902982816,4.163646447671449,-12.142334903576234,-15.872473948368903,-0.418985405761501,0.804756761873076
-6.961780061540588,-2.1471370511360703,-1.317385954017869,18.42562074533013,4.063151922732111,10.378146996639387
4.270491363497811,-6.518955097813175,17.97862226343578,3.731930446726396,-7.682035756118356,11.993393873657979
-1.9877251476378985,4.285073287241545,1.8930386760014266,10.646300778966037,-0.5960094439822038,4.910938162927994
-1.0481381941208587,-1.3976365510785318,-10.481563204496213,-2.828899521881772,2.9889022495744215,-1.7988348462822252
-5.964670456059417,20.598751833665904,-1.8727318378707758,18.819616555223796,19.418055414951052,-14.444214750885303
-22.284410329614147,12.477237075822408,7.345241015981435,19.038265935206116,16.781179275683563,1.8380592609715611
30.71064368575236,5.095563911690821,25.448088451780592,-2.611265439835018,-23.79615084841801,-8.266411646933907
9.716203613340692,-8.728789778175397,10.299505091719777,-13.118651974484173,-18.89002606023353,9.063253779936082
-0.9458932867363414,-3.7390716371281925,7.137376961753815,2.4831158750182243,-1.2130796117465472,2.577035626149338
-3.9926043248127936,-2.7366523881809606,-12.151133703376084,-3.1938588273903914,5.554553631427568,-2.1327528566994705
8.929629585669204,-3.780579009654982,5.43069179048653,10.798948218828974,-2.312989023986227,6.4517826465728625
3.9495499536674292,3.230515275703194,7.34082639616325,2.192530706708378,9.448315281877777,-0.26203947462277366
-11.01244812658759,-15.122238724800049,-31.034575688262958,-18.037989554876916,29.65393206955901,-9.92344604971546
-3.264795840590585,-10.093254315492505,-9.215867460393444,-24.16305070964534,6.0573469149109105,-8.21353728199796
1.0642244801306429,3.411819890372259,9.299526993419512,3.587659939557492,-5.315154338197805,3.590551646080722
-0.7858155088436929,4.2637401599201,8.517945721822013,0.8703835200944529,-14.674460815999986,2.819490279493047
-1.6435722024142514,-10.258629085005786,-10.167282413591678,-10.350957915635087,-7.229661677190129,11.341151676919305
-1.925630492466976,-11.903332827003165,-13.184067597074488,-6.877690310749173,18.712504128059084,-11.494612005537904
-37.94470457665911,-7.372074052351723,-5.550343524751944,7.5735461795558665,-4.070993064025213,-2.050270844544446
-0.21880212552517753,3.1643456848415603,-1.5617420183521529,2.044831733278896,7.717694865295974,-13.97281775350303
8.779321779083276,6.762131805999331,0.1210736668284732,-4.074543122766709,-0.9035909740855721,5.764413002462289
4.483754842188658,7.712944008507929,13.751307575658831,-0.5950702470640348,-2.2385509554656977,2.841578251146358
-7.222824261423472,6.799225971485336,-4.03119173028751,-1.5438375964255673,-3.8923741058312626,-1.3007733486098707
-18.169645370110103,-4.832733471535296,10.644407315472742,18.46267428891253,-3.9413492880355587,1.6216899015435051
14.479503016200026,15.471821879947548,18.044665510750733,3.453045567413552,-10.477514108314475,3.4567206200299534
-8.284686158102256,-6.1768806537027166,-4.887697994413874,14.301491620239913,4.807209555081631,2.2450591198314225
5.94752071252125,-3.0479504138637465,-6.922353439986415,-9.7529258500531,2.603520272536751,0.3712093283168889
10.460421142247812,2.2487809811306243,-1.9124108695631807,-0.4096466797232967,5.583026524150844,1.1845357121126163
3.312103187854655,11.261887738341525,5.691311725712989,5.750359048967485,-2.8427133276003804,-2.392290374626022
-1.3469782817651126,5.974844666010927,4.298813296288629,-1.5896819093913663,-6.1809230851405905,13.993698004919645
22.933573258896107,-1.9570146964629354,-5.671120857516603,-6.23296586683025,3.129618277759577,-0.8914158465611988
-20.39622249955916,-1.7691500618938591,-0.8352880727167635,0.6508712522398794,-0.43366384610049846,6.372531652375171
-3.5142618071059113,-2.598341684995928,-2.3041285307247854,-1.8639605940394965,1.726526350721314,-9.020158447670594
6.970987541052359,-3.047599616137764,-0.8145742170720847,-6.237964193228448,-0.3394107111134055,1.1956451870746658
10.953260874568187,1.5619725206690696,0.40717687801732705,-5.932554165373392,2.887084902892389,1.367952886366119
3.036584507144121,9.808327082947898,-7.953522106324842,-12.430516434844789,3.060724350492886,0.9944618447515414
-18.013504419365255,-5.448223521384586,-5.20190290363843,3.535531592183066,4.55132886221361,-2.0967809446852357
1.9720651882097708,10.587773508110253,3.4526574002903057,-3.6374346249981664,-3.977960906918114,-2.62208448567485
-6.62107345873129,-7.24294540486714,6.939390635182605,6.391101922997542,-0.8160862524627577,-5.637236171513437
-5.149324893724383,-3.0722100004420687,-3.462293755150257,-3.5585504944397037,1.4431403779014431,-0.9124371174373795
5.716372897809567,-1.670366217805015,-9.765078135060719,-3.094745688284211,0.21196306909233797,-0.35407464458275484
3.835280318828265,2.6615980948992046,0.24686729816354136,1.737026723841991,1.0329564610416504,-8.534617573124017
-7.36752689223148,2.8584794859387634,2.3865680429448104,0.9222967320495412,-2.316012376146545,2.4605546785523553
11.068371542408663,-0.9559658421955475,4.6945331903493415,1.3153619313185891,0.9465436080246579,-3.344665017045352
-3.7215586427975906,-1.9162720696697388,-1.5620664480071698,5.01911670822937,-0.6403215078187503,4.224253480659127
-10.784665050388666,1.1912205218041374,-4.628280577285083,5.333155445294306,-0.08133776253334757,-4.695028718543265
-7.07284393354996,-2.157952235691006,0.9211116812373628,1.0752310527910458,-3.298787310060198,0.724406997042701
5.543348899336173,-5.138636268230436,3.1561145443488026,3.115868640232739,-1.8676141470409409,0.7491718994916099
9.441809501401993,5.1286977677881405,0.34940517597767684,-3.6332598968174508,0.22399619315407654,3.655619730805415
-1.907322170759112,-5.481538792128296,-5.804886281171654,0.7412193286369274,0.9309984204770069,2.8525196105411212
0.133368446973269,6.184048648563609,-2.4343643038037714,-0.31739067787943176,-2.2282164396058004,5.915138320762248
-2.065750421195091,0.11841593666366856,5.880631101166341,2.5887311126921264,1.3501251092182271,-3.4427739740444947
-3.020206917244509,4.59877739461622,5.792897900582276,0.43434407933776836,-0.8896729523027416,2.6468773408319586
1.0364368199274872,-0.8641674789932665,-6.428795339634295,-2.4344492483080598,1.0097671030092317,2.0796536465906605
0.5206270312786137,4.446967925191435,-4.9852201266952445,0.1713243435201749,3.344108658064989,-2.9717776056667673
-5.453043239005664,1.0082051026068435,-2.5478743881768207,-1.02375920104773,-3.0717068536852454,3.9398366605308905
6.387280880204078,5.031224591826809,-0.7618753465653854,-5.68381963305113,0.521847551687058,-0.32473789741879544
6.944579021881337,-0.9215549433681987,3.4040205437361655,-1.9579486796160508,1.8873805900071203,1.3632354175096455
0.4763715685907941,3.9226137434960853,-1.4952450658843428,-0.26696586173881076,2.055789244947564,-4.331557455009833
-6.680277531060167,0.37452143974081903,-0.4357695502647547,0.16909429965919012,0.6560237625603995,-1.0596647653244524
-2.1810674574303928,-5.109211885205035,1.063351431032947,3.4885936201917063,-1.6478256449694921,-2.1717279531394746
5.200526103876707,4.407497532484117,-0.43875703480676,-2.6025413836834974,-0.6322085290525179,-1.3604505604938208
3.9434722004144183,-6.031428402850441,-1.912949140128625,0.8949929769395584,3.0032610904227233,-4.45342152525829
-0.16906095978684182,-2.631983747160141,-3.825865125617248,-0.318161492085859,-0.06064394744450902,3.0396497144437666
-0.6785237941375983,-5.82869865771524,-0.33471760257302874,2.0525803355731753,-1.276582033398129,-4.78734342019142
-3.3613282768250006,4.260360011924705,4.565335837398608,0.20345243618684128,-2.520742054628829,3.877245026069927
-1.0288602510703226,-3.536420450715403,2.3533867605523886,-0.02694383093438618,-1.7184232627563898,2.641702042607254
2.978034409009139,-3.5383832712277856,-0.885783296088958,3.587360111528173,0.3740835195790818,-4.126482144899139
-7.791757774956828,-5.2683581336018115,-0.6121518562729773,3.467610162829593,-2.4252730101938105,2.771087251103873
-5.417355071464002,1.7292608907308606,-1.1181665251141055,0.3682429274861873,-0.8042633217118176,1.973884968586587
2.4557889001489954,-3.1774220920614673,2.2174755449146293,0.5044265636641958,-1.3687349399937998,1.8803465025667387
4.039275596421708,8.820866490518355,0.4956482160881712,-1.9090552032173442,0.4108568682056053,-1.1309400215098255
-5.21567051043173,2.334050318334218,0.2201306936844492,-1.4444636225579683,-0.010102469685606685,1.6099201466022346
-8.990719740429208,-3.3085904255525262,1.399664617923775,3.274848015280482,-0.2678611677456354,4.581217541694287
-4.058578975049946,5.832773544665967,3.2532912587301857,-3.337325304822596,-1.7383339205667545,4.353473768486043
2.1291698065676377,2.952238167039739,0.08950456820645608,-1.0889800915626608,0.9216901288552386,-1.4467849733461327
1.1843535126286693,1.35831605196387,0.04585249021355978,-1.1130943179119073,1.1185486248763876,1.7581565959824212
4.8986599215421185,-4.041706253605988,0.045192717661950405,-1.183532069174655,0.9795877382065192,-4.630323413226938
-1.572913052392706,4.572206677111343,0.5342360372945218,-1.8174064841574462,-0.04277457906406773,1.4229898157999286
1.0813752353500405,8.307608667309026,0.36740299813301885,-4.492822240584815,-1.3406611499528505,4.614520525745678
7.390090520142436,1.6636244862879217,-0.3084538630316789,-1.568113092083018,0.3761828236652095,-1.734135815422266
1.13251100474002,-2.6326304725660115,0.7298278082572303,0.9538524689138141,0.9472789955277288,-1.8017504367408206
-2.980759004964308,-0.15646525854924542,-2.3183055731909015,1.3557439575730856,1.5823831074566184,0.23859196364526936
-1.4245615212334943,-7.01360928735763,-0.017138368187012032,1.2950026271139319,-0.3482856252124301,-0.5142840064180831
8.968774136857547,3.6831976675285802,-0.23708835039936,-1.9300582031535005,-1.3523922773939767,-2.3243632813100596
5.409058182168114,2.0422698978289286,1.0464672102232901,-2.505159925007477,-1.1447569767002215,-3.6773951326818417
-2.1476134280036665,-0.043216289539458205,-2.643827484667576,2.143754810920626,0.8880368231706788,-0.10878716294598079
-3.3488245026848005,0.5540315027661928,0.8635852308649379,1.4437042891917329,-2.593169347972172,2.9117702129053025
-2.546344654083363,-0.05756633520335275,-0.2534728640444904,0.3655936445133565,-0.6318195291344006,0.3703718207698847
-3.042366693279727,-0.40926417247716496,-0.3897344199079267,1.7955145217944974,1.0595064909298948,0.9954617900516558
0.7737473171573672,-6.865654601626461,0.14429078000954068,1.633413693309923,0.6195353364466387,-4.5934695490825135
-3.606126263018804,-2.254751199476776,0.03940703147410824,1.6527568187240953,1.7578451078918278,-2.1489729028512476
-2.6573872177195494,3.874856407588225,1.346574897522502,-1.7165704920005667,-1.3680040516598055,2.1581492610386936
-0.877649702299993,3.2295274733297417,-0.04272084302029472,-0.7401742568848451,-0.13526422763815177,1.2989851856587404
-0.6262764804268224,-0.4669896394487893,0.4590402971474462,-0.39366949543499685,-0.7665159872540321,-0.5170744823541559
-3.162076214288064,2.2038257115756807,-0.8790439563973697,0.03338636912720849,0.39468740032430505,1.3598101687348711
-8.06927671673271,-3.369469686774848,-0.6132305368436692,2.219386885621848,2.6379178003270396,1.8834831291039624
-0.10692145880622017,-0.4426611604386981,-0.34974695164348213,-0.6528677418986049,1.5488832358925582,0.09851492988973182
6.669142210064552,0.7050573083214754,2.827227375572763,-1.3167044657786409,-1.7321573578561833,-2.3229910172115042
