Gx,Gy,Gz,Ax,Ay,Az
-4.776489,7.356567,-3.8546939999999994,28.17,-470.44000000000005,73.982
-1.8268981265619288,13.619368606281865,-3.2114674559106127,1.307092578741546,3.3212746283910044,2.074945241025781
4.804010137424154,-1.6855216971144271,-3.5059340875115774,-0.11093720262783147,2.5610054443664048,-1.0332031060923268
-1.039739564184749,13.048676739054605,-3.760111938824714,3.0817440564206127,2.6322142381441545,-0.8627914123426201
6.643500238197663,43.165827694392526,-18.700676565657258,10.214541510093504,4.302005937470884,1.1104511083209376
4.6108606675196295,-4.792311808559608,7.539638610840209,-2.953239608959713,2.38774236801641,0.45783940020472236
15.700698301398061,-6.554458941158883,4.446752899844954,-2.87340707539336,7.1739488342813935,0.3297852204870637
27.694520640775817,-15.292111574498666,0.03175535711885891,-0.26541526377074265,12.724746596993365,-3.208325891725945
60.4211505454985,7.22272956430665,2.457479497929491,-2.740402762845913,50.045070961416556,-18.377178026687986
-34.415415890081576,5.792197432584415,-6.301053399309928,-1.9634947389126394,-28.26855647576476,15.596177004260934
-3.230705934487924,7.776045363804706,-8.815372451262363,-0.7434095490143425,-5.640257266425093,3.5095915137479676
-9.59113581064308,10.708788448656463,-5.00157583816777,1.4884845626374563,-1.8210528475553316,1.5002051985691334
-9.57456202160171,1.7816205636030031,5.993760777215894,-4.08107130735659,-4.01772635077824,0.9903331590081479
-14.691664568751595,-15.084747961789045,-5.767402275429212,3.0815961569203307,-3.2859823923933673,-1.6093665497328624
-8.667579634441264,-3.0954285687258047,2.9838343249941146,-0.9429179534809178,-4.241320535828581,0.7919558977339066
-6.737392507535766,0.6828268833009952,8.835301559173839,-0.16357098310175988,-3.6047425011794045,6.867727869593619
-11.018018849208797,-10.52014918655715,6.036060619737709,-2.015611866231332,-6.226309848805186,9.932070616627222
17.699047012523987,-1.6908131663149066,11.78942829838874,-1.085057049428484,7.609754938679227,-18.76952822634976
4.711622572099338,0.11451716878684026,1.5566083008656695,-2.295157348791269,0.37165801021465106,2.2720966670297322
6.5879780291863685,-9.023653376603635,-3.71231697196093,-1.953817903321717,-1.579206631685194,2.094173460631048
-0.5371670431115579,-10.435040734838182,-3.5814355258524273,1.4247403665724319,-3.6172124247184314,-1.2852479784133868
8.85686541634371,25.085545916207845,0.28875679348688266,14.501893271264938,-8.236063701007337,-1.6475112844634154
-2.524415223980056,-10.857025927053094,-2.8802015466977235,0.7619193540486195,2.4783048520096127,-0.25117137857453087
0.30987798924461174,-0.29121126600146086,-0.883090782622979,4.439768135079721,-5.28742958677057,-2.0526749697035473
-1.8228965946548161,10.737020507343928,0.6696706889816753,1.8872786819490404,-0.2224405742648723,-1.0200553150919163
4.711060703173809,-11.714543702314593,-0.1328079901521111,-3.9403805894235564,8.705574986961253,11.363908642002436
-2.588866592505471,-5.347687670043846,3.313765170213934,-7.457216738366768,-9.458912160595343,-8.050208464364427
-5.932465736775908,-2.4120341194143755,-2.3448080943602636,1.8919198770929948,0.19773022320344769,-1.3730660326530142
-13.417342200096833,-7.698934876238695,-1.958069862186699,-6.630762444508961,3.141011614863985,-1.5255492860584094
-4.22151298549881,-3.1882976268538714,-9.166505837992544,3.1241297333773175,-6.714763705117802,-0.9334864386620878
-8.151263243160848,0.5393596342858276,-1.029225702638938,-10.731914000483055,6.4846158255239255,1.0792382456606746
-11.078813235038321,-2.2245093703905026,1.0953940459528377,-3.256186938580774,10.022529588159843,-2.690926885571262
1.3198522972078273,1.1813403061319363,5.255223963193185,6.776468390354289,2.6484576232803185,1.1714586389212176
3.9356903977841746,5.259059696222579,-5.296183290147724,1.8836636380767477,-1.102701980529793,-5.238318419694926
-3.6918750343510336,7.038599847724794,-1.696458586066719,6.335054253253834,3.6277922794103983,8.319221168215782
7.904567017533932,-6.0702433630268455,3.8518483057533754,-5.977686091532437,-1.4225859516380086,0.4401655764650858
8.319423702533742,-6.577827780932775,3.654493587420104,-3.222277522045082,-2.1965006776283102,0.4144917930848453
-8.712942364896442,-4.97118836727171,7.77019544714517,-5.838205912812463,4.143700588719447,-3.0801377054793253
9.694845236969968,7.925761416093053,-15.617651180402092,16.339809498803717,-9.270961759046813,0.919883203004276
-1.1139049841589053,-0.7058365628150556,4.589563688872891,-5.3923074191017655,-6.987038070989769,5.089933263392678
-1.142907357803205,-2.4660584174163325,6.353837387479774,-5.809208577573098,1.7560379591053987,-1.184922563193945
1.8901765372972845,-1.8129825622268356,5.59702155907471,-0.34044210384701445,-2.8552759623569552,2.2358062399926353
-4.787960169791701,-2.6004397645710853,3.2503441435567524,-0.013801454039134242,7.566626809707934,-6.780281749241536
4.384983312262589,4.651089545034829,-4.297146119063397,6.449271355903171,-0.8662401820715995,2.25005580878403
-0.4532333295209625,3.153343490810795,-3.036415568629617,-0.506468822016529,0.5333954386794781,2.9166235294168548
-1.6155080624659122,0.47593054435150073,-2.750338781665296,-1.6773489871673757,-0.04999959404883303,1.1061560935997303
-0.26220580314593334,-4.472373966107927,10.726792808171393,-8.292269883657122,1.9778586738611357,-0.6952855848274702
-4.690093076216746,2.400535535754397,-16.66611513392357,6.446683944761004,10.56750425638531,-5.5663902048788465
1.0991989828300426,1.7122506505678998,-4.372999215134404,2.682681279788033,-5.356447522039682,1.9919855662337789
-1.2922434151426554,0.6171399479145977,-2.802163220237959,-0.1673688203860213,-1.893141976385074,-0.5902470524698675
2.146253387847914,0.91758495525268,1.0794198712673124,-1.3706509769652717,-5.154881532447431,3.1025713921031235
1.5900625061997187,-1.1993060019611073,5.417633089260868,-0.43960603029304135,-3.0693028153450195,0.031074451946702553
1.154910984418395,-1.5898701442452063,2.7492155032803276,2.39610223572097,0.6702026837684554,-2.7788724310894675
-0.8101753511855012,0.11052747892993331,0.7828699594200088,1.0371321415558912,2.223735748846198,-2.061048622934926
1.3187690600205166,0.01141685099774703,-2.6159249501482438,0.25979448463358024,-6.983185416755736,3.684873768660337
-4.088267120766843,-0.09185281614516239,11.42993748925261,-0.5633737567376438,2.18718300115811,-1.8519350587893157
-0.0921158940031086,0.10668348112162818,-1.4658328404107854,-3.4008327756046604,1.265248277689956,0.07816669055829006
0.9008323710394428,-1.157028322528396,-0.669252549880695,-0.18432621596486243,-0.6901218346181683,0.7282233286345186
1.10441121430084,-0.5606792851452953,-3.1360614598856573,1.108863902166832,-0.7525470541443842,-0.7072191829331679
-6.691486936991161,-0.2889260411542409,-4.735709841516876,-1.4006805527320463,5.719155559562996,-1.9825247158318822
2.038386780124191,1.148816969328064,-2.4237492803736416,0.6481357373345307,-3.8577972021746447,3.649454998560607
2.2612466335440784,0.4279366534921704,0.04939579518434689,-0.6351535621925729,-1.988278711978914,1.8697619276154147
1.9176219354091726,-0.7282194973064353,-0.8971639302529553,0.1984282950010831,3.9448913525802847,-3.107731449715248
2.7362840383412776,-0.02666303033242612,-2.641002629749789,-1.1176658445909993,-3.497001702124302,3.800747383959978
-4.498524616610123,-0.08900588032845967,2.314905454700633,1.8479399352409882,3.474267627105748,-2.6742552212900996
0.9726688745174827,0.09681275277505337,1.5211264196746335,0.12667596191371194,1.1771405488461681,-0.860448468495766
-1.8891491037895516,0.7124793650134522,2.4552906334240276,-0.9869316439827017,-1.7789252931057837,1.655100129567381
5.525884507662212,-0.34045646913847216,0.947256446094399,1.7909857008424013,-4.396698926917515,1.7483832190797761
-3.97269532902778,-0.5338983711673133,-0.5777238344290037,-1.700114178465634,3.399116993487669,-3.137432461105763
-2.8077841831416204,-0.8506626516274084,-0.16189460120515786,0.9758776768754429,-0.23285252836205728,-1.3272516516858412
-2.257158382092261,0.12363735488823752,-0.24677588739223072,1.0191017595464436,-2.3173278905365624,2.060931365381286
2.840236339428668,-0.6163336287909635,1.0923118701656347,-0.003657835481749555,-1.2837591909090864,0.5612207806233811
-0.33684410144647003,1.4148201132526657,-1.0239915382464897,-0.6687056893545966,-1.1545622835258942,1.2483053063644456
0.3151420809829708,0.5524890390191585,-0.5254545173090932,-0.647646188942014,0.08420877519113112,0.6326229376348151
2.9019686301901837,-1.1993066995979973,-1.4467146446720394,0.8707463773637394,0.8013245777885701,-1.0890366834254368
-0.023227346718382447,-0.14911964090101343,-0.6899806064747327,-0.8806380760885173,-0.16204896644855515,-0.13810813814636547
1.0345060719035881,-0.23646150801786558,-0.5941132156096816,1.1495053758781228,-0.17461008676369863,0.40207094573384583
1.7157500493761384,0.4423610369877973,0.3359513758526762,-1.3286852656122465,-0.26932886394188654,1.2605854273116697
1.3998676818269469,-0.46200683252864994,0.29824411924701866,-0.5444505247820233,-0.13811371714662357,-1.4048136917497196
-0.916164600790951,-0.008223096697954735,-2.0512149323863444,0.4699096124558061,0.5268708857352298,-0.7400570027201482
1.4624049948261548,-0.49235988694138944,-0.03721525709451523,0.6385320345833745,-1.8618735459213482,0.7460778652942421
-3.6066277376110953,-0.26512224127470374,-0.371891124156411,0.43909103137715055,0.656011164040989,-0.5671657073266432
-2.704291113025083,0.9676883169075221,0.12250465815122116,0.113479491144162,0.48189160395197855,0.017119883388781454
-0.06582091522993216,0.6387838921836901,0.6167957140499998,0.2061537626519897,0.520530590710196,0.8622077468228273
1.5138192890737099,-0.3988060790453969,0.09199052473807723,-0.08630246788991525,-1.6749133979332225,0.27021131608355875
-0.3898455356005957,-0.2928624977769277,0.2494559738641563,0.8368193177140584,0.2856984432974909,-0.6684120241135575
-1.3625097095811598,0.3063950823733945,-0.33414126723165183,0.600124502268647,1.295932383647283,-0.2198906093872145
1.223057094136417,-0.11112985235578643,0.5264681879710694,-0.45805948599064944,-0.6935471832978248,0.5457462955009549
0.8262974944790309,-0.5619208260635923,-0.9607727237919979,-1.1485437648714671,0.5143319716888854,-0.21535568865049814
1.1929110402276673,-0.1027100736337278,0.4505771883269631,-0.5266282271952616,-0.0323610807553224,0.29028528572475076
1.1997682563448868,-0.8111150464677932,0.11188088952570772,-0.28075795770481604,-0.6548989529262828,-0.13135043333658214
-1.5878442078743853,-0.24902398381243995,-1.1099259038064344,-0.0715003412982142,0.7281162865285999,-1.1067735982577873
0.0040986624122121285,0.3619658385382681,0.09193583126703914,-0.40497058314499246,0.17433628791873024,0.21895742752749592
1.2770891379408114,0.16118588859902266,-0.7686532365489623,-0.4950193692744641,-1.6784734611790828,1.0812931445038805
0.8168138089268224,0.3373894042443193,-0.265459262155056,-0.42044469849009536,-1.4610221022777634,1.0209848659913798
-0.37466739059876475,-0.3401318391573497,-0.0754979432288444,0.7897090763831524,-0.5973839736256289,0.054529375941601566
-1.3470339715556883,0.12968805791944676,0.6844447182894491,0.4494878269313708,-0.17428110912841577,-0.5428902225288839
-0.1497956078942395,-0.29810563284781116,-0.8415325127130414,0.3811718040262227,-0.7413610980975636,0.5742752509789419
-0.675765022167792,-0.03430539970296864,-0.2261472138090515,0.26519508545656095,0.7001556721136746,0.494443762653213
0.5353788659294889,-0.5789300207219834,-0.839058670335634,-0.09223750354389215,0.28586530700444024,-0.12811358620123958
-1.2546830671307516,0.439602053268326,0.11278377963575625,-0.46371751370912095,1.5144591590407437,-1.2163759432663888
0.1876773561706803,-0.4254151621820639,0.10320123144614812,0.012303452537506795,1.4549023511496024,-0.9892753836906621
-0.7662383850471486,-0.41308947259359885,0.12734370857713806,-0.5476488649976181,0.4485045175611681,0.04272683247090192
0.33433377708251283,0.3840369931563873,0.39569620749313256,-0.3808770645886922,0.07481409908859898,0.06814075113295187
0.662868292372264,0.5520858953634238,-0.883377305814621,-0.18389038715958272,-1.1153880476575289,1.5452035419047898
1.0625524939431243,-0.40164266959808304,0.25971489097387734,-0.6794211525509006,-0.03264322732931407,-0.8204505131862265
0.5924345243448079,0.24183801099601226,-0.04318284988516827,0.09000946609486121,-0.5201100619328091,0.183658684693022
0.10950962182113877,0.28471980671974695,0.2776043841417244,0.14587872089871307,-0.9637269060025333,1.4033881684663807
0.7393695728191276,-0.7970380039582299,-0.5223230879031779,0.9617703607087034,-1.5180459686815182,0.9946665930385628
0.19471295981216785,0.6144221625940641,-0.016389937093675866,-0.5478503606818245,-0.7121248751669046,0.051903489867336505
1.0504276754144914,-0.3810791667229839,-1.432394180524586,0.49428623666152866,-0.28495741396608437,-0.6136613288955245
1.3290260079625562,-0.2784888156972499,0.08773651494706997,-0.5441560704032375,-0.3550235790252258,-0.0658517609772335
-1.438549847199106,-0.5766651893649339,0.33442137701512603,-0.31623267845058833,1.3133270678158941,-1.6316418635400955
-1.923538930546158,0.3847671105705804,-0.48476024608364454,0.23687530625953185,-0.3891880580319274,1.1522047550496781
1.266298053898737,-0.3960436533171221,-0.3166096871767064,-0.2340850641687407,-0.30938716827967405,-0.1265663791998082
