Gx,Gy,Gz,Ax,Ay,Az
-6.575777999999998,-8.964222999999999,-4.012829,32.504,-573.88,-5.59
-0.41845293099793496,-4.441110990901402,-2.0949044019671357,-1.378835775059355,-1.5854080728790363,1.0750555986191639
-0.9442401469891395,-12.31069244144286,0.33998123440903244,0.8084676103953798,0.24207018870663602,0.4429098766329854
-2.2399721087122093,-26.494767222169852,-4.773326059336759,-0.5373466006506762,0.02543157099364195,4.787389796764045
-5.5075255222655,-43.242482394798465,3.852560905074013,0.17055524842510192,-0.6655705446665067,1.190941170738166
-4.4704923710696916,-251.14379130367283,-2.3778201056263844,-10.562099969639975,-1.4913002925825856,-0.0911240352776124
2.3029346103054986,163.87543203869555,-14.317501520176677,10.468501083826718,1.3445732462167181,2.7952747745328153
0.4471342680794095,45.682193235370946,-2.5868779246467777,9.586428892768254,-0.5897196171457744,4.6734370830602465
-3.945322374681683,26.439703080888304,4.281825606060161,3.6334406833949155,-0.3037824462066385,2.397274639310188
-2.146370847858927,47.126772438158895,-0.5564797949497713,1.8418925486232316,1.7035751810806108,0.5235092954359561
3.610296549144903,8.978073797834568,0.5256058383966167,-0.3846568965482193,7.642901308133333,3.9607318568095318
-17.49232820489498,7.734592176951429,-1.1485459612793525,8.343969796618698,-30.115773099856316,-17.643848729356623
-8.222446590717677,12.874744920458383,-2.293674964271866,-1.1202358680565125,-2.7650299672960736,-3.946320922296403
-1.8066018428373534,-10.061695473044157,-5.676915729928517,-2.214482368225477,2.580249181981286,1.5147631317349606
-13.907915479573706,0.2036885785230229,-15.758435562284935,1.7069041765188366,2.9436102231833132,-3.8475848807941033
2.370173381858044,40.743235460925334,-15.153076658293745,1.39948915617806,2.4222485572072765,-3.4878028959193887
-9.758085305417067,19.49367824132395,-81.12338240639363,-1.7595332317372574,0.33254729883421374,-0.3766509434483432
11.145476054496047,5.5246822265555675,33.21023573335222,-9.959859001241528,-4.930459594551519,1.3020444555410282
5.027197334115053,7.640874181104202,15.17212395635287,-7.280568325827641,-4.973682528248312,-1.3464542004160778
-5.667151953577484,-4.906928869073345,2.666308156708302,-0.013846849715509202,-4.239822396249962,1.7464535931781882
-4.516017157129967,10.771739698548416,6.577723131467938,2.0549761490711673,-0.7062933430871619,1.2678377924488835
3.9441343495966716,6.170058163220516,4.384471164680379,2.17487733140945,-5.805769700646997,6.33266165027741
-1.4561472179586836,11.135055090584391,-1.5628430190083749,1.1126882894453383,7.19936584899977,-16.24281229331336
0.001459359749875877,0.6813998238492673,0.7952484401979452,-0.5927484553614996,-6.198805951248764,-3.7807720552270925
7.575586370600847,-14.123688670689193,1.0849950883450563,-0.04972834205396859,-3.3217733414397137,1.8175180420705235
-1.062660242629013,2.3929381836116117,6.369147754668495,-3.490068862195481,-1.2130894947632285,-3.248990679159128
-1.5802538988983394,10.863210482908464,9.248661062064858,-2.0907516470222176,0.11607523573361322,-6.536674823116213
-15.226432365603788,57.106959197650305,39.21675861529287,-21.262764322816107,3.1717620327649145,-3.4438171530030006
4.75460502956684,-12.200834561441463,-11.11971141882293,7.03901270079217,-4.20908687705665,-1.0404118954146946
-1.064462042606745,-1.2724378245325552,-11.64439025203409,-1.571367748218224,-3.5850014345459464,-2.248742823572447
-4.813997890943245,19.79465645243709,5.802911358264416,3.922407028264769,0.896464254147398,-0.6379085389355357
-11.12130205441811,15.434092856678417,1.8553524982654839,3.3618871155020944,0.265803131549314,-4.917162268424309
-3.537633102992528,11.452578284762907,-0.6397277669872081,4.420868077956223,-3.7009350962894487,-0.32902129765594257
6.495479459148193,11.882590306183722,2.980645091157758,8.585857016355652,1.3002176425993586,-1.0192611694468696
0.5853676003306019,5.149192732297872,1.878019924341567,-2.006186577930738,-2.1737029351664416,3.653160862423727
5.03955903390224,15.219844330949297,5.259522503834644,-1.1821665747751187,-0.5333038137060773,5.019686457512834
2.6950249904704444,4.885807052432085,4.823983964001384,-3.1109807663575455,3.430867798972985,2.198544664346814
-0.49186875366239613,-2.3583508688578627,-12.679617887830199,1.037884013164916,2.2288177721891533,-0.16624081304421584
-8.178418174264825,-32.93593978077595,-17.30139207274452,13.962188285995323,6.820860273703576,-3.049726126469763
6.371703242624857,10.026764604093565,-5.015796473103377,-3.9829187100218,0.10675422928854728,0.8944687513528018
3.2493777445002503,25.824048984129213,0.908762672409253,-2.1516942746312737,-0.7457794489018357,-1.6013048946000614
-1.040425905902658,6.24005220956335,2.2245712796839174,10.427114600986256,-2.2765711073454717,-4.159685475015683
-10.214653865248494,9.378536040124997,4.306285771779002,13.351805640574671,5.5263570636978,-7.106174966774132
-3.6752319984289965,18.320035552450484,-2.0127092774216644,16.435200205457065,-10.809435512480075,-13.389505786099908
-1.9129771716265984,-7.0881771654882115,-0.46520401109659437,-7.886421321921598,9.692405200202046,10.946800188598516
4.092359722435869,6.587295703106799,2.230401475647291,0.441118262387711,0.5012954091375921,-1.079958998313548
2.8618506043416407,8.924670112212032,1.464685153758504,3.3778632649517712,0.012988615837063566,-1.6924173675961935
3.0792067994554633,-0.9825498443546345,-0.7225580264805114,6.938014188197311,1.3509400309842476,-2.1739330420052223
-0.6155074725790747,9.170694308686155,6.015353772262645,-4.9188295612494635,3.339498729202222,2.373453697841038
1.313806951894179,-36.09538365829296,-18.50745250295302,-26.490066619654016,1.4625871541728448,5.516382114688968
-0.36987691194949296,-1.5401306937829102,-1.7838666521025686,-6.104894700361364,1.7704041465203881,1.4399407534747906
-1.6180565134453162,3.434303906325265,7.334486120121163,2.0549472984994814,7.533453809735214,1.0664836084970608
0.2926954760033752,-9.387372175689631,3.4833367188686557,-3.2240374469502715,5.183036470672472,-2.605426188219169
-4.236766616242367,-6.908021147536711,-0.9075480580145406,-4.871857233195457,7.4580758225979915,-3.433571808123652
-5.534957571940398,-8.530388569235786,7.208149994808798,-4.0273495806540005,16.936192883938503,-11.209016991742665
0.6472670583941258,2.758993198976309,-6.828829171221519,1.3306844033244416,-7.259725651574099,5.704029110188441
2.562675982166318,3.5973607084130563,-6.1747716355172475,5.135413410303172,3.9041688035045228,0.6044586920162418
5.122355646744381,-1.3568418345161244,-2.357814195927123,2.360268612368378,5.70657655573889,-3.625055513907136
4.513321476535623,7.484310422160787,-7.349534750939762,5.2401914763765,1.8295761646497213,-2.124974440462006
-1.0271723311509853,-1.2125954410657696,3.530338008421805,5.375585368120765,3.7995597813416193,0.245139431764045
-2.074056827905207,-10.257704634089098,13.546664591232826,-17.660097990485976,-2.5600417551186654,4.553297405108819
-1.912426870526354,-4.278095868999206,8.43165152901802,0.30132866411060855,-2.3665150679556968,1.4567846180292965
-0.510576753378626,-3.550093621639859,0.3865253331549316,3.4461265511725823,-0.08883114258551761,-0.4421269516641949
-0.0216165811848662,0.4837221580434945,-0.5703597139514089,-1.053134948845329,2.5683822965873624,-0.016027234491682973
-1.5514852823562795,5.77438368669999,-2.807968134715634,-0.0966633507212985,-0.9610916402973401,-1.7212666641392547
-2.2138927617957043,3.695434087186194,-2.543802619659531,-2.624803250264554,18.0979038850812,-7.918108709940853
-3.095895026567703,-9.477052516513709,6.8905004768894145,-1.5626244755799694,-5.546576693177064,4.098301238428362
-2.953553524872369,-3.2508714386599764,1.0206611198402822,1.0133584340163904,-0.5634851385646512,-0.14248824846071273
0.9856499465575643,5.872215148364064,1.8267390015685516,1.8225105838088564,0.3113402722806243,-6.899367412789795
1.634675566838377,-0.26521380329261285,0.3643145157729134,-1.6748408698978139,-0.35794348877192694,-2.233851499357499
-0.30631081459812454,1.919918636604732,-0.48127227697624764,3.437379252496747,0.16682231617387686,-0.9757376540456022
-0.497111208321928,-3.118075320734753,6.586783842938966,-8.227404388048773,3.2170856327776045,4.32254332799505
2.5427628821534713,0.9260504675766872,5.3776614933031475,-0.010701693770010068,-0.5416444438076693,0.7242262945215111
2.3744316869307176,-2.9359559091263505,-1.5121056974613747,1.4894055035032323,-1.127609086057525,-0.4238421788603782
2.2636371180615162,2.66262244608357,0.5773984140123487,-2.1438522861007967,-1.787520204331418,-2.7066846212882343
0.2165124556390198,-7.526320980112132,0.28684514464113975,-3.1833020264694465,2.1025390536314603,1.0167812265521687
-11.648055618425365,4.845609506081855,-1.4266779729406427,-1.0189903349244007,0.808689544095742,-5.7962934083777045
1.2732971891751665,3.563882355295558,-0.3513839594400914,0.1540209893799528,-0.18259422186271276,1.1655917799408424
-0.09326982580223109,-1.7575553902930736,-0.8193596819674024,0.9473242250509379,1.7834529328050226,-1.119247410577916
-1.3603630663998698,-1.5349570699531851,-0.6921673211574174,0.13394955828209187,1.010153455144605,-2.657876821254054
-2.0308142137943985,0.10262796048815774,-0.44579879748459617,0.4043795067790218,1.1304333428411648,0.9131240606344248
-1.5304287434883628,-0.5442936750831692,1.1958828919741782,-1.880115511830522,1.4689057112857697,-0.06183330607223114
-0.41217965709548454,4.1427703933717925,-1.3347490265648951,-0.095983844602106,-0.643909494220532,0.5449449381906674
-3.5216681985197393,3.1574543634397867,-0.7449419012911197,-0.5712071377805021,-0.9969885064553666,-0.6068569497444134
0.37257777401487646,0.32347210495393386,-0.7910637225396995,-1.2584788142231231,-3.894581383762598,0.5653482426114191
1.9060433638194758,1.3843614175432886,-2.3201765361743174,0.15055944965438,-1.956499163763588,1.2898213991151595
5.2631629421520625,4.164293621979049,-0.17533201455116343,-0.7317733620291227,-0.012161250349664199,-2.2557553716923646
-3.6500071285432485,-4.990353297432325,3.1934749766185826,-3.170738338924976,2.737671359898749,-1.9006097579868968
-0.9242113258459388,-2.844463424603325,-0.5792808034323267,-0.5403262947649798,-1.8781763340867934,0.5597847120323142
-0.23363509726260379,2.029107861425854,-0.786802984484375,-0.5771997661026914,-4.888848606545504,0.3269069052017419
-3.6422202005419786,-0.6684010662558519,1.5079034858769265,-1.2423597643588795,2.0094467994809158,-0.8674552277373401
-1.5438552351107857,-1.3204701812731974,1.7383150792607132,-0.5611113258268123,3.2553277749566085,-0.5521811896108697
-2.2310858817577857,2.180265557207728,1.2415093297481945,-0.48339657495846433,0.9832069202729938,1.0254637026205808
1.4877562471609438,-3.0251735900472907,-0.4430324466772025,-2.1907414553487854,-2.1894290497886972,-0.4472784592956661
0.23520290061950466,-0.5069147923647621,0.7225526273199396,-3.445897217514063,-1.5529202835185394,1.6728395195471903
-0.7822413791903495,0.5268084489324207,0.12221516537655652,-0.16367159417886007,-0.746404384215932,2.26054621403221
1.209040459552674,-5.2389937827267055,3.378037831510115,-1.2697148617334382,0.3832875774318235,0.8550224844301246
0.47402589219685276,1.2915094556499205,-1.812286057353101,-2.092337038325199,-0.31033062701890884,1.0139864677886459
-0.46425509818729527,2.5779365151330307,2.8509543367110486,-1.160364831997954,2.503786473395907,-4.059010939658505
-0.6382902463766933,1.5019119175231843,-0.054073061910560674,0.20588115304924418,0.4212668255159162,-1.2841195840598574
-1.299019457413805,-4.7846694885476895,-1.6623153719600143,-1.0393187173189247,0.07308260144152273,1.6127654285809612
-4.222400852548054,-4.006761264689445,-0.5762289153424783,0.5027908822176693,1.4231215565263433,-0.8745010356904064
-4.9318786686194045,-1.9554269310664991,-0.09047184574172673,-0.7013003027904272,-1.0836159409033002,-1.4016999171624382
-4.157623199396915,-4.327210127812655,0.6261700798161783,-0.6328688158095628,1.6676859545936584,1.0816535575505137
2.8700030468809543,1.453817604737214,-1.2981095432675307,-0.6215926418033463,-1.7826776078432751,-1.0844766772375767
2.485035370932049,1.3038603247495986,-0.07430962002264457,0.3665080306015533,-1.3016220246123222,0.231518660179934
0.6636076641580935,-2.445215051439477,1.654467471344995,-0.5916563874259677,-1.2694565208051758,2.0713436975146453
2.5381611690791877,0.3114443870709479,0.8844668956023718,-0.265913889548831,-1.3509664653559592,0.7843256860784413
3.175138852244687,-0.5997501105873462,0.5908855841363632,0.9435777211898809,-0.45394527187590217,1.7397198780636545
-3.696076593550929,-0.5931875258982907,1.2436470117043505,0.9602316389635143,4.151724730292718,-4.167358659577193
-0.9376083697786338,-1.454450642029707,1.107398165160705,-0.5696373056838441,-0.767980518175018,0.4927391742378815
1.6261189489175765,-2.1482604316941765,1.8261275676295927,-1.4887619179980554,-1.4988411961783286,2.0527051245835906
-5.330637585583207,-0.5039611414539121,1.8196782447321842,-0.4088789086164536,0.7128516249453223,0.4332124831306003
-4.383624098422396,-0.0241975213188258,-1.5266872698581764,0.7631312662248712,-1.9985701158158433,0.45400789958058807
-4.600304492846327,-0.5216189846247902,-0.42603192149126984,-0.19936215407336122,-0.7045348907373595,-0.4649587447841028
1.1340978578173413,0.1865130795291005,0.6243799448123557,-2.573942603137648,-0.044594357781243654,0.8735835990260752
2.89470469328319,-1.651668635827109,0.9703209601518181,-1.5034475152917777,-0.3731619975264012,0.6028831081650853
3.6462318867074854,1.6221522667850665,-0.39843083692400516,-0.36041936784677436,-0.5572589839914397,0.05393598904686353
1.691995387782109,-0.1286534930249337,-0.2796095405241241,-0.715945242335077,0.6611350692407244,-0.6284717953498216
1.7087900379509304,-0.8678146276587836,0.8518524143728672,-1.6830271656678806,-0.16989575403246332,0.40553067902106954
-6.018448671170435,0.19804941666245757,0.5668331238961897,-0.11918020487898079,2.5213477135624944,-2.2450146125659876
-2.474913977057191,1.7214853971898825,0.8755003830369328,0.7778497453876554,0.2511348509192025,-0.6426450600805254
2.3682378496089918,-1.1784028104435726,0.8383657931590335,0.7773035393186705,0.010199297551400532,-1.0331088371954833
-3.3535331211778834,-0.7128417114804346,-1.0980235697234029,-0.13654625109257504,-0.3630308124535382,-0.8021295929926961
-4.082255950427663,-2.8734951466735197,0.8170407478257629,-2.4878562936930404,0.7291019134893387,1.2242898619359854
-0.5595537811700075,-1.1288284935670583,-1.4873681943919594,-1.028853554695782,-2.5547093611795675,2.167525873004377
0.873029654194065,0.4566597675275788,0.38256596828474254,1.0205505772054457,0.5526141148482959,0.23747224251067736
-0.40129632180458125,-1.235011476624452,-0.008778621203555992,0.2602483866654384,1.3991270938343487,-0.9227235813956779
3.277940797680347,0.48139568456225734,-1.2174699747465485,-0.8539507162185243,-0.8370813990631535,-0.09590995274713893
0.5337194067008691,0.19871174991107687,0.13278893867985764,-1.3143810460914134,1.1989700193399504,-0.18862868553078058
0.042231260603747045,0.4262630989745817,1.2532808890686606,0.25649845378508473,0.7607062152639692,-0.7037514415866961
-5.158524689858449,-1.6364398669881952,-0.4369040827337554,0.4535622607306065,-0.13556970061024542,0.03599878915251098
-2.9613550341331023,-1.2171672775558953,-0.5378165876386741,-0.3044996968523517,0.19514597571916087,-0.6346179616495586
-1.4552651359107875,0.4106684774080709,-0.21240831491400672,-0.5768879815840429,0.4849109455112126,-0.8448170103217933
0.7072431925616925,-0.6561383546873241,-0.20464074806861515,-0.772340084143888,-1.47874065790255,0.6149467921783895
0.1637415267668174,-0.5808732755403133,0.14570905295311543,0.20947500649699768,-0.16342144664788377,1.0097425450265214
2.7042007692868966,0.5655135582893718,-0.3368305226818686,0.09611560485334292,-0.31198270168181375,0.4227997387627326
1.5926043678139052,0.008315973237546292,-0.06955778996758424,-0.7335356786698991,0.14684682849260763,0.45490188947202476
-2.053537137196105,-0.4734532567845232,-0.5688343889062575,-1.070245394909293,-0.7536364302378995,0.12781896532030473
