Gx,Gy,Gz,Ax,Ay,Az
-7.6368230000000015,35.729172,-7.604528,14.662,-509.71199999999993,-7.292000000000002
-5.568170927857196,27.060082484812227,-6.161173493086853,1.4506303433934624,0.257740356393254,-1.0252381128306738
-6.758770089632603,3.1005302398946117,-0.5274359879430037,-2.7143333104773104,0.24202156105173908,1.274230278985717
-8.02460636745209,22.7356721836091,5.0673934118274655,2.7524996694492607,-0.38741835325389395,0.50216514159957
-8.690814441451728,-6.124983076597811,2.3670650658362886,-0.7580967414046356,0.7080839576265165,2.6474475244922018
-8.375817587336552,103.60172635261978,-25.8759462144864,8.174445363772524,0.57318875323642,1.2919693322148353
-3.9660842484086176,18.889722242293654,8.189343502248553,-2.5195971121741456,-2.7815516195298096,-0.6743354420981434
-24.542091036092458,4.141342421716185,1.492364986827091,1.7347034771918057,0.2392585969815278,-0.8272924673154117
10.056951542433453,41.1744309753869,7.154657922604727,2.458187536058089,-1.576379929898956,-0.08190423242922518
10.315357815431982,-6.04493134414635,1.050691739405298,0.6632411019365718,5.138969143644656,-0.0737859621662511
28.49180179571306,47.46821038939218,-17.33767920888319,-2.244085970192527,75.85546586687543,-45.68278384968673
-0.09880435840544433,9.121418289582186,-12.972722863991391,-3.460500936259593,-7.327907692173855,3.8373081241747204
-4.041837449362005,0.1690425610704711,-4.132682533625383,2.946190424232551,1.2768585962638725,-2.435905509886715
-2.8553400043900905,9.01364014888733,-7.577627305658953,3.471819779060521,-3.5960712723494823,-0.7362960834902694
5.764964276849856,-14.42322211833196,-1.933998649152601,4.899786398965508,-5.026178525183554,-0.9406585110525386
8.55790642246861,34.8500327983125,86.68874021857023,8.467235859413611,8.523947290892629,8.115207173960442
4.734443971349155,-16.39239090850355,-24.677539865957506,-8.534090579494018,-1.9705651662516939,3.0563340772967633
3.930305540378088,3.2092675791722325,2.8877401695911322,0.6732259363778246,2.014983777430858,3.2677220123297106
0.87556678015504,3.39339532365947,4.670492901006243,-0.1341316405505894,0.13486643621143923,-2.5542404057716706
12.92326118191495,-2.4632765555725116,-5.599678516026218,0.8681539495349455,-4.148541656519041,3.353982916952834
32.83648249049211,-12.890706773552129,5.0075809264701086,-2.763566409852144,-19.153667025301562,29.56262722542374
-4.225558195308299,-5.568766070978432,-0.11017944253595946,-6.09348904206561,2.185768995296521,-5.26127701998577
-5.1156835542197,8.225155268172937,-2.914409081987894,-1.0394177021560504,-1.1301958483548944,1.3201125054112408
5.8087717876506835,-16.67601882549865,-10.335456606931464,0.8565148131620652,-2.3006927060810396,-2.343498112188314
6.206374539666898,-8.195783158609673,-4.359986863629507,-5.574386829402515,-2.3914795439775824,-2.0609263635157467
11.637110822354273,-39.05110495808632,-11.903199920678901,-23.227157141279786,-1.3525103747257932,1.4698930435559507
6.513405232014723,18.640181742272887,2.9507492310903727,7.6777445963109185,1.2065983276901586,-1.0158379877386707
-0.8310856335138943,-0.8358967704207836,-1.4681008626898686,1.8266494733538976,2.36888968651771,1.159164823050499
-5.9560487938730855,-2.0062555462361704,-0.4007275274863277,-0.5305823872672332,-0.08452912805810064,-1.7284563544351226
5.699048058079286,1.068443766403985,3.44162460238265,2.1739590393699277,-7.817769084044845,-8.188321161934816
1.741083324581134,17.34069395602427,-3.429471130576804,7.765542925368077,-18.660769919399367,-19.02854346031095
12.807082475166554,-2.09312485199246,5.649466697002847,4.053968182690852,0.6298976430558278,3.0849409061695328
0.29640831555208785,-0.5231368544427999,0.48188966804054645,-0.8636395984217117,1.2370619947765151,-0.08671156796822149
-3.38128928620302,5.203408432531516,-1.42361723724179,-2.244389972999827,1.7626247545891935,1.271879327268072
-2.096965478293873,6.836758601628416,6.492869101777696,6.65776404040262,-0.6480137631807927,1.5801082726201425
-5.071276691774263,24.304207436237068,-7.5158140464048575,5.390987680980657,-1.1097766180835151,-1.549707911355398
-4.275051569661484,-7.313400833837271,3.576133449957105,1.4637583479467502,3.3543790593870604,0.10028567476341582
1.3296324991562003,-0.172644486868335,-9.084633517972208,-5.115096690190732,-4.600581512764582,-1.3195639310584186
3.1234891387926136,-5.975385988632924,0.3302408824096891,2.8028208594764195,-1.7927765389647932,0.014665887700121172
-12.942241559069299,-9.964141095372952,1.1912507689368095,-4.616155269211549,13.008106877963078,3.067811373685544
-17.14121579952597,-3.6891040302824365,-3.7488781874481436,-3.777131990887497,11.094795515017108,-2.693830124077617
-0.53216762085995,4.753246703993445,0.16893252208025844,-2.142559092070961,-3.193355526143821,2.9952991041606536
5.6496059060170385,-1.0265107618367404,4.4377171281345955,-3.2607939850662726,-4.58988587506705,-0.5700098997561323
-0.23081669063781884,-3.4762489393833076,-2.252603416265644,2.050112636823893,-0.12097499300981235,-2.3938037355334223
1.9812445273070929,-8.10889285339082,-5.231402925597188,-10.200398484909465,-0.4652866869809136,-0.13064780583643182
7.751976622573851,-10.11421104330024,-0.16360182792553812,-8.837458018072622,-8.976365198671672,1.0689320590968123
0.9218739206499099,6.20344395080576,-4.3348498155171225,-1.8153897584522136,1.232299663382105,-0.36039306626290735
-3.1423283971083267,0.9974317342839221,4.284264723276169,2.7408023875684147,1.1199521953514258,0.6639514253838751
-3.8535543252804283,-0.4767028961078799,-3.5441364865528713,-2.499749678670423,-0.3539859007677335,-1.7203471087351807
14.248240751681696,0.28853601748759905,0.18672401317206133,7.08171717233289,-16.127622211849356,3.271166034364357
4.175643327876441,0.5657092271905468,1.7358663729392778,5.884091801103178,-11.597436108552143,5.324267962069046
6.130867590548307,-1.8326886313795816,-0.6992539670860037,1.6852853728290995,1.8887091973039354,-3.7816398002865927
-9.01262113860254,-0.22674805056014113,0.28709182074347794,-2.1862934786324075,4.860649741514997,1.6655547620607165
-5.384392691278879,-1.670583721940834,1.4379179320628586,1.2894806507317709,2.399336754307752,1.1473505554907981
-8.390263217317262,4.888832278111726,-0.755789793651221,11.922643808258073,3.556382997185652,-2.995965504293942
-8.218884767145477,2.595788627491853,-3.042422072681058,8.185478885565296,9.674218923833296,-2.616650008837079
-0.8463683815506488,-9.973772199635482,9.466115215176705,0.2314998596260085,-1.1958825364955765,-0.7984442107363005
9.1633643712286,3.1355226532696925,-4.6276302431615255,-1.772193050794583,-4.781818094140511,0.42463735573064404
-3.8114161615573012,0.06460694248627236,1.747725608939477,0.9596547861853604,4.4202346086011275,0.5054373364852298
-2.5505801886999047,-2.2064178442194327,1.4242155498539408,-5.362277660430907,14.394349748745345,-4.561086498562721
8.746081584359517,-0.3215541040255552,1.766407309020272,-5.817536525795939,4.563803644791344,-2.2704051948658996
-14.980815992405915,3.123510289743294,-4.853758529919238,2.289066608946571,2.5366349734108193,-0.09862330262987928
7.982897252880328,-1.1171071320119603,0.2747312746796826,1.8085844490827172,-3.834717021443462,0.22364644456439864
4.7844619970937625,0.12074367172604361,2.326647452325548,-4.7310774009414605,-2.5297359134309367,0.9076516447508811
-1.7597458766319547,-1.8941106366628038,0.42834664383108656,-8.98500068708034,-0.7142101928715078,1.7997081292454533
-2.6799249258831495,1.7551294675462188,-3.264947954677914,0.013215592568025514,-3.602295732401365,2.206432519944475
2.75549620732841,3.4745183292279194,-1.8074474917942456,-1.1512344330691793,0.4976374840434653,1.356706866294382
-4.642801075490974,-4.814013967538038,2.646297885487952,2.2697991303743947,4.880663666588276,-1.7240485536148327
-2.7319350477357514,2.4792518405936503,-2.297473826846503,-0.14122019860081592,-4.324300715592699,0.9404435656312907
-10.045834617766563,-0.30528957352041,-0.4940582693304471,2.3119958727523553,-6.2799441673616165,2.4178520826702035
-10.425896065914527,-2.5152866732987187,-1.1044630011540155,2.454245942644063,3.6380819003945373,-2.84065552030928
10.313348169780777,-2.5947094574134777,1.468496275404604,-0.826542048031587,-6.384552325586727,2.365712398032768
-1.8828533017017737,1.0662559603008548,-0.4583966551242171,-0.35129577782950516,3.331149471811438,-0.9614179534687892
0.12302270171322105,-3.2070045014360646,-0.43377337565647167,1.994730649514217,-0.35053235343165356,-0.22555737191457714
3.1960412550598756,-1.2098263155602194,1.1856608650047065,2.7018714478503263,-1.6900745006674585,-0.14265120302310685
6.715846084789291,0.14889035664442218,0.9068446415736275,-2.256632101697599,-1.5230028102836695,-0.036733672343258306
-2.800750486179538,-3.0743157132778816,0.395864159774168,2.357549870713778,0.828717304674345,-2.272901925723629
1.5977782406036969,1.4590570222965558,0.2444431925477435,-1.5592545984008535,-2.6394242437922646,1.6269136536048396
7.841917627662598,-1.7980318958612183,0.3197625329696119,0.5718711213305905,-0.12840179410697694,-0.23253652916320444
13.569496843709116,-2.1483328602555343,1.3365175997230097,-0.11444541171356026,-4.341191948600306,0.7916348525768457
-1.2448235393376539,0.8242871401066125,0.8957888754147696,0.09895756947151368,-2.561979293921013,2.512572121123359
2.6667291264014126,-0.008726827283348282,0.6429956545998099,-0.8404042518678412,2.921919967050097,-1.1518773820259085
-6.150545559739989,-0.719860099091175,-1.7757357853847742,1.1276344824429563,-1.1477256075325213,0.25982698896184103
-0.3730142451674787,0.8750094233242558,-0.2895753738351754,1.0926597286376798,1.0918237987828086,0.6630733499332415
-2.8605458981148573,-1.5797794469415045,-2.5341648442984757,2.247617225461537,0.7235351083830586,-0.008590712857017846
-2.7900247403901655,-0.007548781605912325,0.8184402864974363,-0.22341265634768614,2.2166666120029848,0.02062814711274119
0.12650712693151078,-0.1573275836545056,-1.6717364991787278,0.5863068706228873,-2.2105084327665376,0.681746097162106
1.4738464394464215,-0.16544892746732742,-0.13374378599766867,0.4209671409280067,1.5198375519091514,-0.5860881456137892
-6.751463389365364,-0.7284119147481287,0.4454352022862187,-0.21552110521020107,4.123530180630704,-1.4329530117528335
0.2691922927706023,0.09075884507053011,-2.0953201311746357,-0.8169196952592237,5.523838356616263,-1.4781388181457493
2.6888428304963155,-2.3443656713703502,1.093061143485405,-1.1372710908645596,-0.3315147495892461,-0.40394613825199954
-4.990209752837481,-0.6167192584492411,-0.653188783455374,0.01368261236524948,1.7302482291914658,-0.5361706860699466
5.555824670332681,-1.719167623656523,1.2779102730255765,-0.21839630077415179,-2.918379915982827,0.823083916822262
0.8081597644239567,0.6053947798479756,1.5030244284758991,-1.7768931457025232,-0.2579616954170938,-0.5220005610124884
1.458357514673991,-0.1539782810420822,1.6704191973584954,-2.197120924984147,-0.4748825876161229,0.7487651804578193
0.6056661883207073,-2.5490033006774984,-1.316171628859629,-0.09234887218659382,-1.862558564912733,0.2303386204820257
1.088626642891827,1.4183851434049226,1.5416298984923011,-0.8041513856940288,0.31800416661525094,-0.1096762930781015
-2.571502103823163,-2.2521662218503775,-1.2909403185787127,1.225102242705936,0.3122129823962818,-0.16382665344999814
-1.0895255866470248,-0.45242485378546526,0.455621160526559,-0.4127998910072421,-4.301068083435462,0.840722261983375
-6.488426630800024,-2.504529058198493,1.1017692178258063,-0.011867257583745294,-1.8789782606598902,0.47481034325245586
0.5370143339136879,-0.3509712452230165,-1.394287590458179,1.5678522927452698,1.0780433027459058,0.21110280349233346
1.1537084987488209,-1.5417913191809003,0.9428289745964975,-0.5296673945790906,-2.402326526221369,0.3375969422118058
1.9260594169899914,0.9687970981328218,-0.1328960442077443,-0.22760026964016022,2.958614723913902,-0.9892587951281536
-1.8290818041671546,-1.334802860402069,-0.23227993205115577,2.1363494515017933,-0.15787852677601433,0.15217865703413325
1.1537359375913239,-0.28331999647232475,0.550735705773991,1.14185999915638,0.4992586065575095,-0.549377797065072
1.7170811612270258,0.48565255918932804,0.8745527185543199,-0.551118255897217,0.5113128411409797,-0.17132895734096754
-1.5193870163568999,-3.606655495082319,-1.396800754200512,0.42117161691553684,0.12488971399995741,-0.07625574697920362
1.4314301214003953,0.33517665383329165,0.8694828887078159,-0.8379987945513262,-0.6173883133459811,0.6493266943385381
5.328907603980568,0.4057299390456489,0.45842920023567635,0.3089751783894167,1.287614345367696,-0.1312500289348365
2.5519043359859723,-0.17101858908377254,0.941365009427805,-1.262972058257168,-1.1534865241490788,0.24426667589404572
-1.6201790217264724,-2.1841969442819096,-0.01171292804812829,-0.5679041354879764,-0.6716444156423256,-0.27477554773792834
2.4288874307083868,0.6618288104953582,-0.0957019503795942,0.9683005115806824,1.0350638492878153,0.20065669089340887
-3.8508990025349763,-1.475585932886538,-0.1972008056213026,-0.8074274533116901,-0.30047344890947025,-0.22381222729690492
1.3596091308375127,-0.49725513551266864,-0.5490947340192505,-0.9440251563857894,-0.6103796851081533,0.819902962376149
-1.835061331523368,-2.6919541876019677,-0.6710604872976051,0.4292248673960061,0.14637336614313656,-0.23174370011097967
-0.6224766835126216,-0.6151136105498134,0.003733896989338348,0.12036501437567493,0.7919351314765073,-0.11397665832732717
1.146540698961517,0.16268428503583765,0.3888720496870903,-0.4137690716737694,-0.814114997380187,0.24321045332964863
-0.39302538116440733,-0.28056448738956663,-0.37227440686256075,0.3818949373680729,1.1090934886089658,-0.2862510579855291
-3.8577307000263725,-2.0366546711332836,-0.4829451242817313,0.16931030475408826,1.9133277603916177,-1.0656357219733548
1.2710946175925386,0.6203952034528353,1.0160167436986316,1.0490585315709045,1.0143918855260003,0.1164222393348619
0.20562570781179978,-0.8345825966782829,0.32097715240199776,-0.21503890881929522,-0.45841449722644567,0.18563082204911918
-3.1055289896030938,-1.2897671397567227,0.05327674575814212,0.027323191250014922,0.3412116291511831,-0.8109465692893927
3.821672757232435,-0.2856509469979488,0.2725491002356374,0.17587216799422478,-1.6003567522117277,0.5365591158833711
0.9574443268956081,1.1585778347831417,1.3954476578545614,-0.18740813345753726,0.6267671932793211,0.1535200711248098
