Gx,Gy,Gz,Ax,Ay,Az
-11.604232,-19.940472999999997,-8.936261000000004,-29.324000000000005,-489.72800000000007,19.008000000000003
8.559674345952098,-2.471133021178028,-6.199769625412128,-0.9379107388396101,1.3954161192989063,-0.9393112090643059
1.050735785097854,13.934058752963328,-8.106151766173957,-0.9149002855510804,1.981569631059493,3.2668613038439247
5.384238059164726,35.02292300262226,-3.974949277731264,-2.818599076489006,1.3699521161146238,0.253049786635882
-6.544872849692503,43.237624766513534,-17.326289534901775,-2.637733114011935,3.2087375888339746,4.341026970317117
-5.107921000814472,-43.44456875383739,48.37616029310847,-3.9407344770335935,2.0324413788211433,2.7468816217888374
13.285157260335552,25.019563965025686,10.650273819464159,-0.9835118907421609,1.0231413101900997,3.7446720206174486
10.948271257470248,29.39817662339556,4.374132456774676,-0.06067293424269171,4.095344796630039,4.048995293022732
-0.02416506873467128,-6.966254650443507,5.865071506470757,2.3806781757610667,7.569705584304942,7.119987254222483
-5.53578450920251,-4.156132746416706,8.987342528879534,0.471076707973991,15.767962972049435,13.402038074776849
-1.0866664986656627,-10.281009165627701,10.81832660466489,-2.371483466470788,-11.496415627163465,-31.334295833340683
0.3089606978470143,-21.78595933992273,8.660357348612157,-0.24254371890011317,-6.366227507958789,-7.0394515327583
-5.018256259370815,-5.999169286085812,7.428153749360519,-0.6636591504135116,-1.3435419494286047,-3.4115195906488225
-0.4266188780315503,-15.614759718849593,26.44328425335358,-7.376491846945115,0.06875887852963869,0.6422503166085172
-9.58691543288222,-77.6801161906193,40.70363529482218,-30.898934878287434,0.2740538113526524,-3.381319580046532
1.6157903105319933,-1.1479499730936364,-45.778275346877294,25.15962070116675,-3.073634453801221,4.112809568214003
4.929492419055619,1.9170476734688895,2.1817845229879542,1.72005671117332,5.724128851742595,6.154258736949472
10.302517390651062,-12.771249523027434,-2.2287578193135724,-2.3826562157831344,-2.9077059548288107,1.180798771462323
6.261393052492551,0.12242496565713734,1.987427550085433,-1.5845575772057134,3.1560208541394332,6.278811479583703
9.570836705733111,-5.31783128367389,-5.923733179623663,4.592263434545178,7.863773663922621,27.506820175812983
-4.0222544655479,16.630869142605484,-2.1996840545998655,0.5030351892174392,-11.425434309015625,-12.725609512245637
0.4973730112679605,-6.279008639276549,-8.595624310513996,-4.950991609657472,-3.765412704294293,-3.3395428149855513
-4.386146832392782,10.797524699156133,-8.2105213334585,-1.02062705806585,-5.519748801529525,-4.669968988705616
3.7884104206360267,5.1396849738053945,4.532248851011497,-0.2610513567699764,-4.489145452145595,-1.0961970166653487
4.760862408525403,4.518378584041741,11.708634254994491,16.293945571342103,-7.133157691290032,1.5965763438307594
-1.6251325743727405,2.692117192482627,-7.557191747700603,-9.363566303775762,-0.8792833681674002,-2.2754283985334784
4.135578993313734,4.019511687962373,7.084443531202326,1.9605696725718866,1.9451642028232001,-0.24363750859082084
-1.5659795713085147,6.3282758712281,-3.1113519285204565,3.2912522953249796,-0.3290838195489695,0.013300701095106102
-2.7969296317539207,4.916835834395343,-10.908981958930372,-2.113749260565252,-2.6072994763540347,-2.773320114934404
-3.269993713931359,-0.10958173065223731,-7.2271458467926175,-2.415822783024431,-11.479675424632186,-3.7126743128447863
0.6913552741561261,3.3664127840854383,0.8780268505832054,5.255466095580882,9.119080692604275,-0.05085485794982678
-8.622400299409401,3.466210260965131,-6.349317168426039,1.2817868536602206,7.624838607623642,0.33455261922572416
-5.291069798106907,0.1336023719756274,-2.2995072834585746,3.5192559300784154,0.9440475847004876,-2.0680834727479027
-5.169906170998616,4.453498315016863,-1.753458628985085,6.798191692953175,4.767674705938986,-0.9640268661616073
1.4190153844354836,4.188389107739048,-5.228661620140237,7.88888820202334,-1.6463009721673636,3.9821866228146234
1.9900929867564459,-0.5403776528487418,-5.095540307793501,-0.5846939363384106,1.9012941213005012,1.0236648818193483
-0.6954867829756817,-2.0247666715868298,4.509588291953844,-2.2981528412246264,-0.5211493710524402,0.8026048654381503
-0.7968909401152011,-3.399016378560685,-0.07731994650071261,-2.1013880327182517,0.39794046585225545,3.57240674017022
1.7932258197021351,3.2008715856378043,2.875046702711238,3.854804636301158,-1.8831420172026647,4.157325948442796
9.486704539829603,2.8946688220824868,-2.353736386798225,-0.680244531629703,-7.390565310297851,-5.294266020962567
-0.23286086119219773,3.1120929054539763,-2.112573993674069,2.7401426439868155,2.8232493284473357,-1.2630295292600604
-1.2995234630962416,2.6250188837006965,0.42283048238366283,-0.9238038491228686,1.7223602554048096,-2.264867272597443
-1.638875695553884,-1.343545547408914,7.408614792805325,-1.515679234414789,2.259736955616158,-1.0099914786073463
-3.326020018402552,2.34408448748187,13.833119542904019,-2.2553761207747174,0.8652805847113949,-0.59655567087147
-3.7232531184090405,3.4081109910121903,-20.915159584529086,4.582431025132559,2.089710721000159,-0.2543762454780474
2.247193265340171,0.8703755562225446,3.4804438763457877,0.340157092158052,-2.1474724092203594,0.49658897414195646
0.33117500409021383,1.520613339214525,-4.942902839504024,-0.2254830865186801,0.8410946607459489,-0.6756086747258274
-6.04447156641628,0.9099656006789727,-5.794465615800514,-0.20795376917411418,-0.6313250413778336,1.6695692518473022
-6.596458492107672,0.2103359443175955,0.9141855354092612,-0.4298842954476339,-2.148421825180181,2.757266314445107
7.59579213150973,2.9444733723953975,0.31830497441222616,-0.10625184912520051,1.6885686393343817,-2.234471483503064
-2.310949646702795,1.0971560961637619,0.5226142123875747,-0.39926859321342734,1.4907586542020486,-0.17689827897071103
3.126500829560438,3.056629780978089,3.6346699431843765,-0.3152521846809106,-0.4167329862254311,-1.096949900309109
2.4261642751715957,2.6372133459487093,-4.615021434857973,1.966990639745009,-0.16198308471974832,0.2923011332703044
-6.312776546517474,-3.217307421485949,-16.343444073422543,-0.2081851099184222,6.107601432337734,1.6576808123826356
1.635825393528739,0.9978086022834218,8.043563335232554,-1.7595669649755952,0.20029794768602951,0.5115301296613316
0.3801090571412812,-1.2482389655705284,-5.560172231231239,1.845857100736002,0.9179227051920644,0.8559097771934676
4.040716447650452,4.280355020123544,4.927609297173343,-1.170375176464275,0.93714970821096,1.38636156587692
-1.2929721079489296,1.7970481109130374,-2.15298903442108,0.11462064862903151,-0.9579459927898826,2.035747230587335
-1.7115659272432824,-1.7624418037966811,-1.130956735345565,-1.4036991198831374,-2.009880897140448,-2.1398565712142683
1.7437731057226737,0.2884330867765751,2.1448490073427697,-0.6528203664928492,1.6806113279863024,-1.040170185299958
-3.3160560441308435,-1.9058977181374122,-0.5343509035320836,-1.6015443847670365,-1.7974057839672264,-1.5328848092041092
-0.7627526329434307,-0.6412990096613909,3.2159611989274306,-1.971551177677666,-0.6388177203355963,-0.8650169808145337
0.020499311240399165,3.4359813658951976,2.394534657853355,0.27190405042824817,-0.9309905378331631,-0.9559100730152783
-2.41240507014419,1.3505639994596612,-0.30265329594662305,2.314329903901678,0.8644255375914138,-0.0248939338367411
-0.03218338031859784,1.0494738470362306,2.555312167056451,-1.803915326041157,-1.1687104132947268,-0.7145126841046812
-1.8233457112713731,0.5845894496756767,0.6904765672173003,0.929305978483316,1.0011427503749457,0.9858863024653329
5.628653418143446,1.5298131178294465,1.7959921132621843,0.0022165013095973157,0.7595234970371754,-0.2156147700493899
2.4126266078157457,1.6361700935269683,1.8608521710442898,-0.8909247798796207,1.5496733208546052,1.4586493793288275
-2.8453417776399763,0.07330628433088422,-1.2671373369808423,-0.6535023000393788,0.6714247349451988,1.244882095849385
2.2202332224592434,1.440083506319342,2.60654009474479,0.835337281130648,1.5629448455625965,0.6212220538933558
-3.0005385095639694,1.8533059868141097,0.16656851690755675,-0.3194553062863206,-0.4229501465939698,-0.6712581720546914
-1.3498689201688052,-1.7860289236936309,0.14271141094504658,-2.1355165125075413,0.025647976444259202,-0.24293874278025293
-1.007588575442963,-2.621860183225917,-4.470984599235193,-0.8100066026091023,1.6709539573445633,1.706293152799284
-1.8525328280605642,1.7312700420866816,0.32562704778146023,1.513745201410695,0.1861708567093893,-0.05990120551062763
-0.8959267397681043,-0.7494625705598282,-0.9653669249473975,-1.8823356145948709,-0.036534360848800795,-0.08641066502204592
0.9172070347490382,2.407862087751829,0.49779543866587994,-0.07378326772078589,-0.6503201438562748,1.2418916790720644
0.9362682434670404,0.5824921486152832,0.9034995072056298,0.05665174152743703,-0.20276188673255613,-2.226931116922064
0.49357506806174367,-1.3068550419110094,-1.7286017047287954,0.16803155625577382,1.0429453785979113,-3.1213084495318726
0.5886967244692283,0.977191427435831,0.06805948969188588,-0.16182137846232483,-0.47478391346557947,2.016032465444864
2.357111784611271,2.378677164545369,0.32937336488389723,0.10199487233721903,-1.1839706888692099,-1.8939049022791679
-2.419350407214243,2.901845157868724,-0.23227385839902204,0.12406809259488163,2.126041542976803,0.706486580692989
-0.33479434101809685,1.8791643345805786,3.027329824770545,-0.7760724934809577,0.43840123618453597,0.16804024518355726
-0.9269165308784453,-0.26016440297178534,-1.3781343260411407,0.3994403621606292,0.7015180168708147,0.45277710256111947
-0.19184785379575842,0.6604494276359463,0.6648999307715469,-0.1365165051423634,-1.1969471123302793,0.5147749540521259
-0.5024059364448309,-0.7354556601235771,1.0049259090823772,-0.48442428133130366,-0.6525261948497728,1.6614656368483416
2.840881440222204,0.7908398402501445,-0.6449998746976862,-0.35307298170864687,-0.7849406918337756,0.9570247120485771
-0.5743626760976313,1.6070438513121807,0.73218963658664,-0.27896552666875424,0.4001108794454391,-0.20374768665371165
-1.3228026439983147,-1.8949889917519234,0.023426335610656573,0.04503065146752863,0.7852841999374404,-2.6938737561588915
2.3992748018182546,1.2151616596315655,0.8531982402153917,-0.7598734452239148,-0.9360923222365585,1.4041966596096398
-1.0717860047560606,1.7599979217219226,-0.10121668368031717,0.493362842496321,0.1719855412787508,-2.276064043858961
-0.14743971093199493,1.0536133374867773,0.3008542352010741,-0.2456866457743782,0.2762643223540351,-0.062998619849161
-0.14843413187257187,0.6739709896750908,-1.2875278117292912,0.27717911174962256,0.13703175908718837,0.8956193750561479
-2.650900701276674,-0.47867662596278815,-0.9957958183266957,0.3745696310424,0.8925731553075661,-1.3446348278249258
0.05982482520323176,0.8271111001048487,0.716406589293675,-0.6775571498256368,-0.44468977261008563,-0.6020425314929322
1.7885629864817167,1.1728120731504674,1.1640331660779786,0.3117998349725418,-0.39432810071041596,0.7529659545310794
2.3044559141892913,0.9795194174530042,0.22718513030725038,0.16654915114395602,-0.08696439996737369,0.9364451709889239
1.4292071475802512,0.5843253252229574,-1.0845543021707655,0.5061195945259594,-0.22693734446450645,0.053383999192619436
-2.0287305579117874,-0.6338718963437315,0.9836102113359926,-1.006332896334623,0.39227790538912816,-0.3478165216946106
3.837431732750141,1.0646422356143281,0.3587546772666702,-0.06872099456886549,-0.20141168494991937,0.5329706110460537
-4.057619191816995,1.0780574353535235,-0.1323966740918834,0.11279857493737244,0.16286390060880052,0.2925033904029194
0.5539130334156563,-0.03316911249726148,0.07787232880456742,-0.8964005263876876,0.49028904720814875,-0.2647386278168244
1.6225159689136925,0.17350408851742732,-0.575618190328352,-0.11464092107507509,0.5130658285606239,-0.015489081213180315
-3.7911196604963275,0.42457136368411774,1.063614172863088,-0.1739428754270277,0.7622358419696923,-0.6688344462024136
-1.4183283403519646,-0.901762041746216,-0.31331175060836847,-0.35255397891916984,0.20350997502720108,0.37555699749350124
1.9004154993160356,0.587776023261695,0.12505338115614284,0.20762765500981942,-0.3359283031442577,-0.2771814818623983
2.5557088640446013,1.5201198691987208,-0.07739455079988465,0.21161852476401496,-0.2656879703254326,0.3109375221937336
-0.109328425561807,0.18829351945657205,-0.21079332813065224,-0.034816310577794704,-0.14425015858725376,-0.4242643371344905
0.7189809359042063,1.224185716634625,-0.6029188526836285,-0.12514025921070268,-0.30598669240287585,0.8943471749592068
3.0978244331069282,0.2657855576694841,0.3538275447992464,0.47419144428177284,-0.6490451618954396,-1.9676368339225727
-2.085816599008089,-0.5292554294879231,0.3113286976350842,0.11530424460109732,-0.01594332596148057,1.5340830801616525
-0.014394532427668083,-0.2542966905176478,-0.48197737759049064,-0.5300080981999153,0.3993135691918507,1.056266179531706
0.12496120687321555,0.15896603930734504,0.10507425247413121,-0.4195444248567838,0.4602971017907392,-0.2880253183614852
-1.8254832111321775,0.8005340714379517,0.6257653676175474,0.20634649179931908,-0.20628030557033367,0.755137214538395
-2.1690524501402098,0.8911486752997718,-0.21925617193014527,-0.7575227026325284,-0.3514329934353164,0.824731950486489
-0.027894103788917435,-0.8504240593496665,-0.28157940730996606,-0.31287202655806745,0.30725585555070434,-0.3019931620778192
1.9384466317626863,-0.36884193668397847,0.03283993508330173,-0.15485845968419668,0.6768055841094472,-1.2567114336167053
0.6005798288746846,0.5478635042805711,-0.06512413733144241,0.021792706216425074,-0.3540426580747934,0.027742554092627464
0.21143246497351575,0.9689536027252905,0.3017180075360545,0.14444488609040915,-0.4830122771742051,0.6229262473190742
2.2051507210977412,0.4908141051486704,0.24741547647772155,0.021120889668704564,0.764807081054119,-2.2382984141592766
0.684711443443826,0.5809915036316049,0.48824239620444104,-0.10126731398581296,-0.5125520139560773,0.08335772929385507
1.3339337549357735,-0.3777508584143593,0.2611699905940166,-0.19317315722366457,0.12879494214717505,-1.3504731695656749
