Gx,Gy,Gz,Ax,Ay,Az
-10.596823,0.9331239999999967,-1.3732380000000002,8.036,-516.07,-61.172000000000004
-10.562871801267946,6.788896523808104,-0.9535689655208373,0.18500000647262949,-1.1629495159578362,1.4449048954482864
-7.052640657926538,5.555106771442292,5.966769552984096,2.732213947906471,-1.0327629532038292,1.337982385637384
-10.34751944015175,6.096060070947396,2.204755387106123,1.1418511408882561,-0.8287924879865998,-0.25103698853454337
-1.5039293021184155,23.25863265993772,7.623577251337686,0.4242051329611498,-1.1303223108746758,0.7894742247501746
-10.871780062803111,50.72472392817843,16.121598231675552,15.534454798118855,-2.1498790005220894,1.062121962801736
5.982515566317533,32.406542867057695,2.266001661577123,-0.8096856696803476,-2.6199069139008135,2.301582823863487
-11.859791746660182,6.322661427964706,0.11813509013921464,0.2463265427869652,-2.796392096778193,1.7739737953820052
-3.72867551720975,-2.4373622470713783,-2.562734753154774,0.7701449760003072,-4.644229729932556,1.8324841463611974
0.23342392224708258,10.181542095014493,1.5764915242431599,2.397690373301897,-9.817216077832194,2.7101630692485936
32.671012634797265,-15.38929692520451,10.82655544009738,4.291115253227072,56.36222391877087,-24.81798551245632
7.931150512916514,4.681647859979277,-0.35736540522984883,1.787743582659237,-0.39183523430005074,-4.957856029964756
1.9320127836965724,-0.6844251652383764,-1.2007567965662027,1.6116497123352271,-0.9116728581374094,-0.7634838335202996
-1.3967563874024589,-5.767219808568241,-7.072868791111915,1.8378337940822664,-1.3907663436759048,0.42683282898720165
-1.8119192450194226,-7.1287585241787825,-10.07561959877033,2.155383595505913,0.6215082305186059,-1.3258362336843215
4.247749103047642,30.526389111041674,19.58162393950584,2.373814865114002,-2.2324157301707634,-0.4193736532936121
4.693291584740196,-6.06821946882053,-3.509731771976477,-1.2055238613062573,-0.9130067164048754,-3.385948200996156
1.2044303235967673,-3.6674615984564403,0.7963960709184752,-0.7390043704621134,2.6189440721999118,-2.820550771752496
3.284508580863395,9.563684023290609,-1.534918678854599,-2.3326710900465857,2.8226476251613377,-1.6753929029619172
0.8037127635760795,-0.03824189274388856,5.9993637319987965,-1.8834570669786515,-4.579845730404143,-7.154060630259165
8.402706052784438,-19.34209901516809,-3.7266881723232714,1.0440432362138883,8.254723670276642,25.709390206237472
6.073998135872081,-19.796125164840596,3.1529509087636924,3.6728839500701405,-0.9647927049488557,4.120777455230698
-1.3945845185513965,-1.0769296616335415,2.5784623672943434,8.278408351720277,-2.827228456003383,2.8490454893251886
-2.179332574332422,4.247827059541579,-3.9404673879590675,4.895336750193392,4.886375922786952,3.8137760991953225
6.999537237970375,4.117729834660423,-7.061804448810376,5.207622994167856,-0.8777840065579405,3.9738945692121526
-0.5933030519252096,2.3722850553852477,6.194100480070759,-23.633253972508534,8.591755038035409,-1.3102862883918915
5.019983631366106,8.475347317551037,5.304945916638719,-0.8054662630624714,0.5848917284567818,5.927428374686871
4.011517947002227,-8.791128732884651,0.7821862949696043,-6.589427054121366,0.6343734069957598,1.6609880656421234
2.3348277898564,-7.617331305548317,4.782651344484475,-0.945319279001012,3.2972977655534357,6.4572080548156965
14.52702913123506,-3.310552604585624,-0.5881505283661372,-4.220266585050296,9.893299197294825,8.409507107671875
-11.090714227015786,4.3482804789741305,3.465308328363335,-1.4951687304338284,-15.827809942445018,-17.05186911940181
-1.0685886303384278,9.16085698257628,-0.9536631033946765,-2.1533881435046043,0.5451546010446646,-4.156931908229733
-4.53705186269752,3.0011678327161277,-6.494367092039745,-5.721631003584827,2.6566905916246815,-2.287257126262018
-2.3903203164556266,4.59290906592103,0.5951774537469411,-0.9395868743828725,-0.09011780970337824,-1.7244735389295296
-2.7981525864135883,-4.489019058288243,0.46306306054720325,-0.35195279114723665,1.2945675446305558,-1.573063890680527
-1.1372613752933036,-1.9031009181748075,1.9841610037797002,9.801743247845168,-5.720983273961046,-2.777155789282995
-4.719146514747491,-6.905675466597053,-3.906799458215314,-5.522975200078543,-0.07115192190667585,-4.661159843845102
1.149213514064288,-0.5316058565466072,-0.2840012526235507,-1.8026249626824402,-5.267594971689503,0.47366968857500247
-0.045416328651583404,-2.698812790192876,-3.3429182812256117,1.2631892164192866,-1.3244422246159768,-2.7139320519861063
-2.6383715884976495,3.6377678349950036,-3.0503789549730955,6.825969468435357,-6.938693567413559,-0.43024507151115576
-1.6923675693866786,-1.9655297237700347,-0.4486753264850436,1.75351032632724,10.084559732910243,0.9344222394699164
1.0727366364729445,-1.471651756281286,2.0028297908370356,4.476457936070296,-3.6553190458459115,0.60819899904898
2.0768040370658545,0.7292773120513549,5.333401825518059,7.2861634626022855,0.03940063229161073,0.12744483382771854
-2.586998594354286,1.9062172502817913,0.3325831788423225,4.123662561647048,2.653994338078133,0.6837362290788289
-0.22626928506191035,-3.7514005793759018,-1.4568802455688554,1.2825095150324122,-0.20908151077987225,0.8839958244726742
-0.7818256749247547,6.0419851390267265,-3.098052213497067,-8.089878256900938,5.388591598506079,-1.1201772418673543
-3.7395641566050304,4.323458788395608,0.09372978976766344,0.5979354487552946,2.612824336025024,-0.1795593719287054
-1.2129600571355366,-0.9297688595457608,1.0183810340254822,-2.3072953052190357,3.1448138901683635,-3.349427219912517
-0.7026766606706674,0.7089154987569231,1.053610178302586,1.3578028404296572,2.680042334365946,-0.7145589565582378
-2.9278297733699623,3.1005193460548606,-0.4183177891258012,1.173686513354485,14.282687985325355,-7.220342059188511
8.145345831924573,-4.751178205235242,-0.24546861184003266,-0.7418415671418734,-14.403327132671201,7.234120548238746
0.009032997086777517,-0.1509025775522428,0.7534490573685739,-1.1582067402620422,0.5814376457349484,-2.1058493939924205
-3.7723306199351017,-1.3600579343437271,-1.8638974769344006,-3.655518381888162,-1.221748172782827,-0.19942990148812711
-2.240048184720974,-0.6843238614087241,0.29289427808493684,-1.2281660186209935,2.480496234802854,0.7010347465300706
2.1854070113278645,-4.253664653061968,1.2536837572122508,-7.804477031928163,3.243073326404634,-2.698869858913959
-2.7826159261872285,-1.5248112641288578,2.8269101723646735,7.354283188850893,-2.7068333316922466,0.5431415147649143
3.6363230958585437,-3.802316150082802,-0.2608424460900942,0.30302169660517686,-2.966039390797045,0.28547298742211025
0.6541041457878898,-2.8381477143470546,-0.7833327961426315,1.6500253644443617,-3.5419029069710475,2.03200615014243
-1.0707712888826992,-2.5287376164446984,0.06825113116084472,0.5332130944954718,-0.509403436252386,1.7728876235810986
-1.4310924774966733,-0.2724188200670816,1.0350735640239843,-0.29312750531882725,-4.602264090198572,3.4708514509507675
0.3034563093272693,0.44114495495839945,-0.7204270257615294,-0.4689301904924492,4.553228937504024,-3.393687228304191
-0.6748881957788391,1.973508006415066,2.0163527914034964,0.007015883677369272,0.24384344392339852,-1.4165113233981002
2.3626842037217166,1.6404996424426346,0.4500376891642412,0.715009558548106,1.8816857897803803,-0.2068171649385846
2.062947195512055,-0.8489174255558534,0.6724698673250054,0.7912769789284089,-1.364723399543013,0.21304739933191835
-1.5089069199578529,4.825355771004739,0.0023462612818289097,1.4379818730911729,-0.6520600377723758,-0.04614398302486411
1.5309532648072655,-2.669533447014929,-0.03870404825934437,-2.746735566508887,0.7986242768168555,1.2445064503712768
-1.0302319135567606,0.03797746379160438,0.32408224988793366,-0.3159529156483143,-0.9125644010172014,-0.5186797484611733
-0.9510173575537422,-0.3973629948944961,0.5147934307350337,0.09950101074272144,1.4168771866718939,0.39288035814290234
1.093277304457152,-4.486443224577689,0.262593266038422,-1.4862476121371562,-0.4281789588309435,-0.8238857808116792
1.1310072007378849,-4.847366842935406,-0.16551838694246124,-0.6439328740972363,-0.025103642491465905,0.5786922711123041
-1.0940511485642634,2.5137882122546236,0.2429433038647273,0.9938395608561611,-0.23716048195173955,0.9737379060787579
0.31598498524248353,0.22368632633508106,-0.8051045561689638,0.009778371187656454,0.6242395425258858,-0.8150420795175224
-1.4076878877252983,-1.1580130165702773,0.7556551927763907,-0.3391704734417893,-0.44430093543599014,-0.39069006668191175
-2.4510529763836066,-0.816748908182505,-0.189899225084861,-1.353328373891403,1.4091724089795687,0.7593211794082362
-0.6212588422634195,1.0360558781134177,0.5507393191932015,1.4139283558098088,-1.2018162907959844,1.1063625689454972
0.37754636692359445,0.07751168321601298,0.9795109638672534,-0.06012975172965912,-0.30531424938702767,-1.4885719795178938
0.5437893289305161,-0.11270502626299583,0.46659280373696754,0.42860576084556945,0.10021097498973397,0.9390663823139997
-0.24245305772699227,0.5171056476001568,-1.2333042493038524,-0.8403127335529201,-0.50534247814397,0.0096017699861079
-0.1770769920530842,0.7903019712652679,0.04512737686766338,-0.14113240551674594,-0.09018008161042101,-0.32897814166703276
0.899895686856609,-0.3826731552859173,-0.7047488602021845,0.14565796155644484,-2.1556818396344117,-0.09217104145955624
1.2312885297478222,-0.201110196564251,-0.32593071028357373,-0.2609037441671066,1.1333011860566982,-1.2614389925890745
-2.2195803997305252,-0.2165054026223614,1.1995535259499688,-0.46042160007082134,-0.4343287503638638,0.8820486676903723
-0.6661431581176163,-0.08263580407597748,-0.31247372709707544,-0.20699074648357735,-0.28540050424366914,0.4032863147123369
0.12590108273472067,1.351178507212878,0.7404505278592814,1.1854225639378955,-1.2315066356657915,0.8383921868869888
0.022988659968979835,-0.7023957750506453,0.07955544883486854,1.0352566933434186,0.5748533412011918,0.7919274008877326
-1.3526039148251443,0.02926058545735266,0.7675031474831933,-0.23112788591852418,-0.6399328392762149,-0.863247942304106
-0.8925399833860339,0.15958547690043345,-0.31331311623047386,-0.5640607364367827,1.2748574873837497,-1.2295123739930043
-0.4181184999999994,-0.5965355000000001,-0.29029550000000026,-0.48099999999999954,0.9460000000000002,-0.934
-0.9366189702394458,-1.5088019578227692,0.23933701158843457,-0.28285562677845644,1.25244358622521,-0.8153834549767276
2.5927916674771074,-1.3433054430597524,0.37362652571577226,0.4930451370890596,-0.5979754549141854,0.5664966876598162
-0.739659387917935,0.7971163033761968,0.7030267587248821,0.8864997725969904,-0.7828962439063041,0.8958882949338993
0.8440557426305747,0.46670101295211536,-0.239553638356661,-0.024211319473603166,-0.7355352171799567,0.18200365231083937
0.13917546396698854,0.5191325038522656,0.5227705765006019,-0.24847094563606262,0.6630931250700953,0.24551434786213422
-0.40257444914531404,-0.2565987481484373,0.554449006494752,-0.4080038310733175,0.42628757578733856,-0.16528580898217782
-0.30223330567205786,2.009082130101934,0.16224908673608798,0.1162128967438113,-0.502412107116865,0.3236642776407497
0.8469242865900974,-2.568710243390465,-0.7403104921507935,0.36332268348888686,-0.44787648325020035,0.43497185082695766
0.5084512482549839,-2.625893914170616,0.822944476846872,-0.04449929778477302,-0.6227872341811576,0.17228000901422147
-1.2908488420407993,0.4512226125800918,0.4643019532136165,0.5888505877225368,0.14609253314133464,0.6172832428803944
0.8478622466062927,-0.829136305578327,0.9435315144751191,-0.22929731965033404,-1.1270191752989953,0.5256493012899639
-2.427207855357188,-0.5321892084625555,-0.7390581999169761,-0.2892056288975763,0.6389358879320435,-0.9555129043705192
2.4969543571445447,-0.3570830157948637,0.6957893741938879,0.30181267578071286,-0.1638863273993003,-0.6556045503940466
-0.755866737728353,0.05344964673076935,0.5381611092985452,0.015190821709463398,-0.45338244298228103,-0.09213061534136116
1.2541781085843182,-1.9167194170174349,-0.05980284690846982,-0.34715233349545277,-1.4832318492321215,0.5856699106260713
-0.635961400943414,-0.23339110844505562,0.04943703344943451,0.024102481786749952,-0.040908827912372936,0.48178619147380874
-0.311043873938018,-1.189254796813868,-0.12610075150103084,-0.5835884528817462,0.5920671949963704,0.2530500949542053
-0.18264378686836014,-0.7572101308347269,0.1419698678855711,-0.6213845832441853,0.4200828829660372,-0.534045745574848
-0.9224947899122082,1.0045741084835367,-0.31719887821572057,0.5544656755221353,0.745205911867157,-0.6230647248580581
-0.2036163605983594,-1.1214791041491061,0.2179946382214092,0.25864951578811646,-0.2923135067743171,-0.4541449595189636
-0.5124453396747239,1.1675654306938619,0.39235623594016733,0.6178515475860076,0.05314366700204154,-0.36600583693041444
1.8417489886337828,-1.1596669196056824,-0.08165634970540031,0.2127866972299719,-0.9278945111233154,-0.13235357818002763
-0.9500217403263878,-0.4420971603192393,0.11856016111513595,-0.19901822103987726,0.11089202007927879,0.29554286508163186
0.7264375889447524,0.21322400497300875,0.005640474382700433,0.07700098449265713,-0.6593955369860379,0.4730517358418912
-1.1069481772028378,0.40193055527771815,1.2013738393522524,0.03295472879965283,0.009260031170770677,-0.25814444417706983
-0.815372452699616,-0.058222290459616965,-0.48494581619517957,-0.28349805322854693,0.21387532660490216,0.1427216857404714
-0.14500562028685315,-0.09022543376056369,0.4012083912354474,0.4734244156095705,0.19740452241431639,-0.002048550411648198
-0.14129238954435674,0.4044722969216825,0.40672467000224255,0.4015140062319199,0.48480853151059045,-0.0013607277391045614
0.05357136488365577,-1.7784832519562874,0.1659056979285552,-0.23128448187540573,0.2587316473345733,-0.31450068549179244
-1.3620281794020777,-0.7311928909157485,-0.1258528794402598,0.022135869782375417,0.3887095092682103,0.37006849855052476
-0.14899167277361713,-0.11469323175253315,0.04779009267810791,-0.34542057383141234,-0.3445536669225951,0.5086568343309219
-1.1451345095814318,0.010058779721359018,-0.35672110289176123,-0.3278926234526902,-0.7675923719356657,-0.022319750187593523
0.4163253142997166,-1.1399960256854635,0.39164807272863555,0.31374331592139026,-0.5452214016528534,-0.042701922769395884
-0.2611764740234431,-0.9528941530307034,-0.325306780169908,-0.11395118212373562,0.4144423630460109,-0.4622748385974376
0.3732278757370302,-0.6692524048585856,-0.3198985923412783,0.10600210005740508,-0.16864434284234792,0.6015754333939621
-0.5791286594598312,-0.7968115479351858,-0.46513059025246317,0.1328561387869547,0.7575095896168627,-0.27234896097041106
0.520272055740954,0.44863686202878716,0.285606860905824,0.38258036725328637,-0.5133086642731636,0.19353814619837206
0.33492782463262905,-0.7650782721940861,0.5582891182743753,-0.07010654640449826,-0.707090892648345,-0.40474345912765963
-0.7231613131363237,-0.20202464682155474,0.4994704245230411,-0.010134479917837252,0.39944341854511833,0.41413268932964975
1.144352918205381,-0.09965652755302673,0.40389177135169035,0.12692729927373572,-0.23055971615311577,-0.21769063905609953
1.5080881884236343,-1.0624414656891745,-0.04271827622503474,-0.021626054238907788,-0.16086138155663815,-0.42390099523095226
-0.8260594251826546,-1.2113202091146245,0.33670482887434006,-0.1929642425330188,0.05321023484291332,-0.5032055108135034
