Gx,Gy,Gz,Ax,Ay,Az
-4.093685999999998,-0.4293649999999929,0.9890729999999996,17.27,-421.026,-26.810000000000002
0.4029481643515618,6.81706677551576,2.2122981656698597,0.7398232155883899,2.465674279727182,0.3363800901618947
-1.4177626937927008,6.295439036206252,10.191502702172185,1.6914249463971736,1.8258296936731964,-3.2695304547786637
17.082501091395798,-6.617648595761059,11.677317971712398,4.504724937897526,1.2762688490685292,-0.3518060890892423
7.982709759792538,49.80025408135233,30.985580424924635,8.744488185567917,0.15251226653917185,-0.7158815732248676
3.6400698310049617,31.09654804547448,-41.631242015602524,-14.15732296752487,7.862697904517871,-5.656106971559782
5.528540636459184,-13.077452992466235,-13.662068795888008,-3.310167618689046,7.742417411213307,-0.6845822489123289
-0.5472140909152543,10.674825337301238,-10.06549532328294,-1.5618884240628652,8.628943502644383,-1.1534855035138336
15.705719339394562,0.9587390009492553,-4.009234145742283,1.9267361586051988,15.37026955699605,-4.019687724598603
59.00567369277569,-16.12411087696351,-2.265179485485823,-4.456820078729399,71.60434179981678,-20.282851648735196
-24.95897495830968,-30.246359698809904,-14.1364244869578,0.6585493696815394,-20.536093778240986,7.434267541671645
0.2444549202945563,-15.632063165888717,-5.102968039985009,2.4972757708538156,-11.633444125595766,4.033009039179427
-10.27917172320931,-1.4428236330760615,-14.762599795926397,-1.1897626041088443,-1.8638912716027303,2.7094121978742343
-3.985592901187879,-22.50801617825489,-22.448270450993565,-5.568415691176705,-5.392657281607268,0.5631564938682856
-12.420904568041609,70.29092055477923,74.78526618541157,1.0192438386635345,2.2167038936827135,3.996455130947613
-0.35406362654365686,-6.237319672947828,3.9760417976214444,-2.4600014886067485,-4.73732805543869,3.596101111337006
-8.848126084362777,1.3203966764368174,2.6076612285223693,-0.7333071789679099,4.509811321667107,4.602679029649435
4.87717527207965,-12.93824221853131,4.70031102433756,-5.181803800235155,-2.8059215481385382,5.1583159767330455
12.805848524918696,-9.412914375963256,-4.348521337112616,0.6794800739439943,1.4833561536534874,22.10502047541241
-16.241068040636474,16.96326737261012,-2.2755086058721985,-0.8040040931954331,-3.577487565575212,-18.79691750114587
3.996885465028747,-6.437871331916838,-2.9324563084973416,-5.299972301404868,0.16997192666168215,-5.323408917633645
-4.7177023977436,-2.3155163126548817,7.112495451580825,3.2366324893940797,1.2169910174011842,-1.0398482070809423
-2.949145232650759,-2.716240280853353,0.12900174860344382,-2.9110982375935004,0.1063374038366619,-0.4769723859410441
-10.931001908842305,2.6394109981907476,6.413027027300391,-5.445415081063239,3.635281164110462,0.8226774512888358
-0.7065564513323767,-0.11097978451966362,1.162021795950414,5.309377543077966,-0.17931820979290458,-2.4577048958008976
-0.8406588001250017,10.109655064152815,1.2370956465004799,1.1074059270892158,-0.7354745765312678,-2.0681750134012065
5.286812276568439,3.6575031303239096,-2.327862420645592,7.841116325285334,-6.61689825373416,-4.865303749822793
0.8935683510859509,10.324876455600888,0.1603349247905128,1.476613386849549,-1.586404726744767,-5.6521018964501994
-9.650602726125003,-6.603739492132755,-3.103203636305661,-10.001225225147502,7.704536271370513,13.215631251932965
-5.661103035840311,1.4592431274930233,2.7930745791141187,0.16356544170902296,1.6059131749495883,1.245425082791354
6.467974509218402,-0.07050452460580825,-4.832834630181419,-1.4661207954520776,-3.3186145161453586,1.3469516762738551
-11.0141662856729,-1.3768959277718427,-0.3999965466572615,6.401101481188919,2.6527415002974895,-2.5014271917357727
-1.7155761321102108,-14.119215294473157,1.8337035614736181,9.62862200642511,1.6281400523748006,-1.8376291293175695
-3.022482822851472,11.391978547699853,-0.8276584824260482,-1.7474974022711784,-0.6534140453045583,3.4325852177078597
6.261890011756478,5.204925679618964,0.5776260567611826,2.630395775358006,-3.484866462211209,3.7713418783328803
-5.615964669458791,2.1984148015679663,-1.099284105817632,-1.0833412863629674,2.943951370559289,-1.9752942830861302
2.519833742763951,2.134952873694939,-2.9222592278887554,1.210429354959877,-3.1736341434157302,4.086225123216583
13.254615533345454,-0.43418963145551115,1.3624161358611897,-0.08252896818288269,3.9616679996545723,-8.05826203357514
1.4724607180290288,-0.2514433789384143,2.730739716641295,-5.732900409458354,-0.02233872194117792,1.0966005922103754
-3.4322806081551853,0.21648329859172466,1.0944788268400598,0.12974354248957143,0.08017604126115296,-0.16990515470012157
8.259900938773628,-0.9183541586934036,-0.9757626249134709,-3.2786923796005603,-5.170096282482936,2.20156951831796
5.617121059570075,-1.6516305644792701,-4.558479561199802,-2.86635137160636,-3.4925369366350405,1.8191255409616316
-0.516374657715705,0.8433361117282966,2.218944397895532,4.0571784503822155,2.692220527637398,-2.5342076160791596
-3.302962947414799,0.9680033421211698,2.2241645878181004,2.062103299534967,1.8316762727674187,-3.0282316515058656
-3.908092765329246,-1.4450620004937151,2.39670045819056,0.9452958223320239,-3.2443312767342847,4.066820334250506
-2.820155935026732,-1.7524909503251678,-0.49621097158612304,1.8740653899673365,0.9685655641277171,-1.9947790314969693
-14.783442083839967,-6.165864198321251,-3.5633165170614047,1.807587039798857,-13.746791904021407,6.324163691650554
0.453837852807148,-0.21469763343869752,0.14419159420202177,0.4836296471985661,4.485951361928502,-1.8218887048905508
2.6281957362789963,1.011136871726294,3.258615226990211,1.0578358098671616,-1.0948813231731975,-1.394412438860301
-2.030366661889847,-1.2002704453827708,-2.339252663461192,0.6585447123127524,3.833871641876404,-3.3781897228566704
-2.850150285792051,1.3391878305247331,4.268382153985074,2.2339498492421135,1.5524616599883438,-1.8275563603840441
1.512690221279338,3.3426918297572517,-5.529247121089355,-6.782253143925919,-2.602497018014702,2.334509881671865
0.9380475143352276,-1.2501770225393627,0.1990482045757373,-1.387878687343015,0.15757142588151488,1.834143370505264
0.9183243210219265,1.084369577787984,-1.346977614749047,-0.018467645815847034,6.1452053584824675,-2.981822220594911
6.739088512034158,1.8389049827227284,0.11178907231147786,3.032470096810673,0.9526029225976747,3.701570205637089
16.38808153295463,-0.39373132043490766,1.556057409099591,1.5582103942820205,6.048977660006787,0.19739989481044917
-11.236885555047067,0.30550821489534435,-1.2487219400638137,-0.18097012780375824,-4.927250047824088,1.1968306453684654
-4.172325418475652,0.4838379694524353,-2.514277389786856,-1.5423228388075612,-0.9444652627322392,-0.5773742615794949
-4.116401136773517,0.754628643345767,-0.3356652269377547,-0.0032102803165177385,-2.309119788228858,1.7944281911019568
-2.7909517816843916,-0.3491365158815729,-0.4078168552144441,0.6558437901072992,-1.5886538062556164,0.7831329710216433
2.327873841201602,-3.1306602956016576,1.9195865520295157,4.06096841540249,1.485301713581947,-2.0971455627839513
-1.3516274543297238,-1.4102890482496773,-0.8745480610654762,-0.37528869137348664,-0.6672817335392062,-0.36227834005562287
-4.915968311806994,-1.2702946947127196,-2.165338915926409,1.003360800792621,-2.884517231360819,1.3249229940270886
-3.8374247675377156,-1.7956658025565835,1.427124118011103,-1.4460829347696624,0.8258120841738846,-4.517099925693236
-4.024500818992588,0.17728398928116518,0.09758151884350141,-0.3737847427776486,-1.1989034930319977,-1.5763690894090376
8.400782747102244,0.7883464935224729,2.3177954551449043,-0.8490212287027757,1.2451669927438749,4.107292723703004
2.5167316226747225,-0.7225806738834323,1.4459483885632691,-0.5919638256960355,0.2816478215770803,2.2425676205452976
4.984838183854379,-0.9852996163446947,-0.4698082292710813,0.6453395234021684,-0.5370894025134361,-1.3314539422507787
-2.8813172495418597,1.3435899127485535,1.3885600472055943,-1.3760346240176629,1.0305199131711866,-0.37525992247680595
-3.970449729181012,0.4102243355371018,-1.4047195094446734,-0.7712744065370853,-2.117319624587387,1.9171284606678296
2.207557015120245,-0.9894308711974382,0.6075777363426109,0.1216087401156612,0.05339305768953939,0.5208703027519936
3.752510379350911,0.09388493219612533,1.3432629698647192,-1.6054806626838742,-0.09437163827695604,0.39229001863981483
-3.202897912265313,-0.6407380354443195,-1.3307125237912678,0.553190709930486,0.5176923789635722,2.3023151228627663
0.2308582988343602,-1.0952322766150961,0.4690753693734696,0.46318200475334503,0.5207607747099188,0.2156847979390853
-4.31157953706544,-2.527163390609092,-0.8687313213171187,1.5276750599405557,0.26602822891049593,-1.7764987380654047
-2.0842916270105922,-0.6468669306069924,0.7009250947736891,-0.3414316660873203,0.5543964892938995,-0.7069328209690157
-5.893121812602652,-0.7427456004614529,0.1124949593950838,0.022650701409664187,1.1277297247767482,0.897331282357991
3.4575550094080962,-1.2310729528913433,-0.10320723487451006,-0.06239367240751377,0.151801496690685,-1.0847438808542276
3.9858623376557256,0.2184509292169138,1.3744876782265065,-0.762707827182454,-0.5182780193299922,-1.0780627490798957
-3.437165961759149,-1.8196475225838307,-0.8125277024259263,0.025371541028897777,0.3964578547156873,0.7719533203210189
-1.8699926657841337,0.14035347258319975,-0.36025086927129046,0.6899023128615798,-0.5832671547663161,0.22297652409548818
3.1440638201251754,-0.20243510415254826,0.49966710584164997,-0.4536692762553395,-0.8690979638926019,-0.467120542851072
-3.2434449289898915,-0.724088217000563,-0.5564947542806586,-0.2484413386241067,0.3539892400697239,0.7158876438212776
1.6634327623437788,0.17670519390436962,-0.6233292187232298,-0.6896644685302133,-1.7645904418052545,1.300552067314913
0.28428726187799835,-0.7565440184411647,-0.36042062442389144,0.22366335836443682,0.19273235084089008,0.05872485219059703
2.411555349107601,-0.5813220427330139,0.05290861950536442,-0.4076549351812728,-0.8918746131984933,-0.36002162816232247
-5.199115946514469,0.34172511373445397,0.5210610471689193,0.48229570308146036,0.31772555473024594,0.3977077046143663
-3.3292950474018967,-1.4058372331132227,-0.24251972105852598,0.16484540577187304,0.8286521017246016,0.053434453079780474
2.3526183024139264,-0.17632020303522583,0.30331656528504236,-0.15344129257929404,-1.2145979599454098,-0.3633402916066594
2.9708816547672003,-1.3573712527853388,-0.10490340540401133,-0.07129006420029341,0.1518219562867527,0.276283993415799
-3.6618123456342797,-0.6510550705887461,-1.2257883982762037,0.8325415717396556,1.4727537958209524,-0.35645196980719496
1.8340163801919025,0.7126639882161321,0.33601434108057143,0.17212464541135478,-0.13932960734124616,-0.4039276822007827
-1.5671146934505265,-0.20907905948025474,0.718308705455233,-0.110126369887663,1.9849694692348678,-1.0263602114336448
-2.137456577447604,-1.3896908918809165,0.05556839223512314,-0.44248026656853556,-0.9286013019478567,1.0741183172500015
-1.2363881818247564,-1.4066559812027162,-0.7558391732974453,0.028978458015749234,-0.12718428052573244,0.647871162693639
3.1903141058406264,-0.4324988631091071,-0.16284948286169715,-0.4722344061831736,-1.1215245268233984,0.06763738696088431
1.3612749034267213,-0.2613042279705649,0.23018912597821434,-0.21322488880236007,-0.5640209539402381,0.20029912505092687
-3.0836834236344064,0.02444648733022009,-0.33680964617527226,-0.4866294368307564,1.0438071318229045,0.24816835042395713
-4.057982594668131,-1.2680305003395738,0.8992989042154282,-0.1283519807784141,-0.0031899892682132336,-0.1750876383018396
1.4374330629390326,-0.616233669159304,0.12127086391418815,-0.6264171773230697,-1.2601918085468418,0.5237384634173143
-2.8178538066116574,-0.5797522377525748,-1.431723699740844,-0.049268830194350854,0.10009342943411617,0.12758218849393632
-0.26629447883218405,-0.2947054503070032,-1.19248897486241,0.54274786992498,-0.8953757113725692,0.7679862523460383
2.1878945659756135,-0.17350335000825345,1.352010163846662,-0.31415197081623325,0.8108452920126563,-0.5853407502758649
0.6525117372157234,-0.5584034797423575,0.36903153102919817,-0.16884360390229003,-0.323828736096968,-0.06647688686003944
