Gx,Gy,Gz,Ax,Ay,Az
-2.5234030000000014,-4.5582860000000025,4.164754000000002,1.593999999999999,-499.37,74.962
-3.2774761693253716,7.834216237474794,1.4544067849129145,-2.5344755902272373,3.4743314255931095,3.6248582213615546
3.0304854012741522,0.7794535100848631,5.959790877559908,-2.7196074310196816,3.8060308802145935,2.0603610983734466
3.478035991502193,-12.036073945771543,6.792577640284813,-3.4947495535563466,4.181844230117685,5.353677107861251
6.566106291049268,-52.470274642725826,20.497142003177153,-8.154320303611554,3.9686001336541405,2.9368191494989198
-6.399466146184798,25.772497241463892,1.3372961437990507,4.87914326489998,5.724784179167998,6.557005813404778
-4.976927179649829,-4.2249027661348135,2.0719529249483912,1.7213309921041609,5.197875303796175,5.702126654661151
-1.0852592622310455,1.9905925864950733,-4.820881092100746,2.0500163953175345,5.890123595356046,8.310586420287532
-1.0092616272741157,-5.798042859826861,-0.22836804703437785,-1.8147980194635767,1.2232164488697777,17.44224186993756
3.6919545290408755,-2.459439276696803,5.814238881884705,-0.8387059755892127,6.77467468983156,-30.994242481991066
-2.423136541700056,-13.298308584958917,7.261295584675325,-1.1436500570568855,-3.131483456890628,-6.21881294163841
-0.8580941251032999,0.04666703607945699,14.094378136321955,1.2415144864506242,0.4961794774169497,-2.6000478920196293
4.224086289441523,-12.92112312859997,0.612703576061504,-4.65214287688236,0.09857214186438412,-0.04247431579455352
1.3130951642557818,35.78392474651476,-52.34777839738688,5.462679389679772,5.671384436797309,-0.710795187210076
-1.4820873069672214,-3.1990760149596396,-15.815562147549043,0.48410668142158103,0.45359481593805007,-2.9079331777785664
4.437236829182348,13.631970312185336,-11.981930571446737,1.7197938422875636,3.904183182265584,-2.1065594871972984
6.062017189109196,-0.2227131093034653,-7.848864069398331,-4.118962100552256,6.27286089505482,2.756205493131957
3.080554373703019,5.910560296423556,-5.121388713050397,-3.1444576202543035,-4.294897627784729,0.07225066997645113
-1.7336770308129406,-9.837636304687273,4.095389077848385,-2.204511033099008,0.32640199436081785,2.2492895936893404
-5.552370783936154,8.864584124926422,3.142432003576895,0.5439478968107843,-1.3864269926255313,0.4314055931145686
-3.006931929653458,-7.084673261409229,-0.8169497239302144,-0.29568215123294106,0.09134423613019171,0.7587279150652549
1.2309872022314008,-4.479797120774017,-8.965220441552981,3.807630236865672,2.0936775850867497,-1.366904566134234
-3.677248087397829,12.242499749533891,5.367592925797737,5.535548323369495,8.434626724631702,2.981153455478931
-6.212651791605185,-3.809741391285182,2.951103281957432,-0.15397571224826895,5.2835484510486275,3.361545321147064
-11.308263459157883,-1.232441989678356,-0.07921019440138366,-3.801774903503074,5.630789037006798,1.9930842034450955
7.028292104563398,6.295550861607136,-5.357112031355282,0.47171907173251326,3.5871570248876052,3.5892387694393726
-1.3010396632845405,5.061323754220713,8.294803786405428,2.5198914158989636,-44.66473970370134,-21.509166442999437
9.320190986965718,0.16199927061058472,-1.5827426841335583,0.9839687401457627,-9.234521895264022,-1.3405832169156422
2.2000574582498715,-6.233412933528191,-0.30738294474946115,2.685740817711111,-1.5088248756598936,1.0880370726280757
4.795862795565914,-11.626873763921344,4.602565817215554,-4.711795927169823,-1.1594683047112575,1.0630869261966054
-1.2024852962355208,3.559441809941582,-1.1827883122152922,-13.545158923864332,1.2222980594251474,-2.45293080756004
1.5668318015005107,-13.70541432146007,-1.983609048186168,-2.2620633237805614,-6.1742070669491165,-0.33961068325027277
2.9598005450126803,-2.165688908311977,-5.542007232251525,-3.4010152976458508,1.145453134840435,2.726105808518911
1.0018521059808507,-8.097036177552056,-5.7236104491105655,-3.0014133551635056,-2.058895015561253,8.012652870093076
7.220145361983835,-4.819217862361924,1.6264291495014715,2.166421471209875,-22.699802599132525,3.041425754939457
-12.354366066744205,0.7551321971417577,-2.209439696292801,-1.5890974798413418,21.937064901526856,-1.028239688389101
1.0378276583348267,-4.643014757820999,1.619000699287465,-6.185970541362531,-0.8438405307256454,-4.8279394212484625
-1.6718703150304919,-8.12193699220409,-9.033384189731285,-13.170725389114471,1.9088144792540704,-1.1065590632151054
4.395038036590544,4.219995567909223,-3.8825661444618897,4.488185354911404,-0.13039000644977694,-2.6909523099651063
-6.580789972924553,3.5396978099436467,0.938639367846386,5.091562899872645,-3.6210986826782836,-1.3609358139182857
1.4790070425775466,3.2200267048795013,-0.1268829055088931,7.321679067776153,-3.1038853272844915,-0.5495782151663852
1.213778123952281,4.307574506955087,3.0011296456615444,7.653027954532826,-5.513838144034475,0.6368226567305956
4.408404511387801,4.998586685461402,4.467859176487949,10.136999385203413,-9.35771219841762,4.257150519899314
-2.2605646238533743,-2.5772942898213875,-2.324245428563298,-1.9268060382020573,2.971734965775415,-7.899678938341772
-1.311467940151374,1.5753741102124912,-0.5336024348038493,2.6940187397719733,-8.183047816103363,7.589607466977892
-1.8787101904073251,-0.30711866749502315,-2.7050697641106987,0.08611755114109693,0.30649825477918735,2.511687826970983
-2.3267727073396722,-4.132250320695046,-1.4231427786813822,-1.4449496589378907,0.9789470192257417,0.17616389042426422
0.2255318388445376,5.142595386843865,-1.9780795622495917,7.45042510378114,1.1654911154475842,-0.8644789312800245
0.17181742497843489,-6.278437407384657,-0.12773771600364722,-6.225991980429428,1.2121566182236163,-1.4038346496557526
-0.779445842253172,4.722378735121066,0.9475026576342793,-1.003042999207731,-2.935220638578254,-0.2856253104964952
-3.962571199818452,2.0121036489219115,1.947468516493977,2.304035978659214,-2.031186165508857,1.9194887624151957
1.1212067574051416,0.7659485100250011,-0.5832857199655178,2.638345357255452,0.35946523402295716,2.966158826192455
-4.144384677588947,0.3557256933513637,-1.5889792753021614,-0.3238479182150831,1.298241998503379,-3.859345785096585
5.413229906085815,0.4910832455458001,-2.853962636831178,-0.1834325863698591,2.9091461000532055,-2.604010874581899
2.5338137623857673,-1.5657744280065249,-2.1763786297767873,-1.605305756883439,1.0793477390864548,1.7458230294446897
1.562969559243959,0.636122411930343,-4.291924463215557,-0.9643544561195818,2.5179237823700724,1.5328815099362805
2.2029061870842743,4.441579993026723,2.5840952659351566,4.139114913770451,-1.5543414531843636,0.486034481523743
1.6238943663995484,-0.2410923381556599,-2.1243820508631224,1.3483433264964866,-2.077924047933966,1.206942932676518
0.21037299230157358,0.910855716825013,-0.9337169671702162,0.5446338445567283,2.501009817039014,-0.5789636643181048
-1.6683300668403318,-0.8039826991765425,-0.8790689327514825,-0.40329401890754324,5.205294734867565,-1.2909373174336751
5.145204379723679,-1.2095725028310051,-1.15425324469353,-1.7255175363854967,-3.691190836631943,1.7301506519603993
-5.7916777000340725,1.6193730414109855,-0.6534923013759529,0.6476476155890558,3.8407037991896225,0.9260431539840637
-3.901647645734611,1.1826602878537864,-0.9420404357135633,-0.44825069926345323,0.9143279283019955,-1.4901631873764545
-0.10419307141540213,2.1372667367381553,-1.701283042713532,-1.276778330008249,0.07328389676685831,-1.7886535740300191
4.821469114545462,-0.9965953819315614,0.03234458454093303,1.5657068933096343,-2.343422544113204,1.0163912972697833
1.4228167562604215,-0.4983364948108158,-0.6765947479674466,-0.29226535765548567,-0.1535206309113517,-0.06913663068765619
6.802041241070474,0.04624041764461105,0.5920312249359895,2.8221780471884306,-1.5256198180514682,-0.0872544129777853
1.5825053290196087,-0.7884826177007052,-0.836606193409989,1.7155291756663227,-1.4219152465443372,0.610893828903795
-5.353501481202514,-2.1361556644664526,-0.19499472684709196,-0.05544207805808586,-1.4660822268750722,0.9672412531113006
2.555690877638811,0.6233706034109263,-1.173780899566128,1.6394413185571715,-0.049491735699241146,0.9011327873386745
-2.061613563130327,-1.4211458093444516,1.5742354305775428,0.25720784532566043,-2.858683474148408,0.9071873884429635
-1.2571568434613598,2.4607833801508385,-1.38381920189192,-0.7811968513758274,0.6050755887300694,-0.6551191576607026
0.3029551780702957,2.6158527222390258,0.9945066581574679,-0.8121721508733948,-0.5010272152115681,-0.5238077939739276
0.6514208379125503,-0.9237919791966527,-0.5150521753444793,0.2551085862376816,-0.6947369553341897,0.37535446340323714
1.0885006565774222,3.7134653270300184,0.3635329216817309,-0.40884591436545425,-1.6620979567284488,0.5885849580872888
2.114035691847068,0.6340900612345209,-0.6831161353159586,1.9377121837038285,-2.863334292832306,-0.3559271321916635
-0.20252195578332,-1.280651730062021,-1.063421339392697,0.708190974883627,-0.10378458647713296,-2.7223725676456167
-0.29277150899036664,1.2627903404129526,-0.9106521934257674,-0.06728798238825173,1.1324080211603114,0.6303248943402268
2.3178074223138765,-2.397036576402481,-0.8223611645892662,0.47279349822798356,-1.686983361451901,-0.3149641147214274
2.9994733220483902,0.1018276227528393,-0.46306314301172063,-1.2690233810398244,-0.5363344381603937,1.1375793525844153
-1.7268193301011088,1.919002406798145,0.27396762865033975,0.5131746365493333,0.0859167837107101,1.058142412815965
-3.7856763512815315,1.907349272344847,0.7238750104489406,1.2349541130520023,1.1569612409549164,0.40164041461554084
1.079597850507061,0.14799905965057158,-1.3544609258698868,0.48921866805287595,-1.0215589586177907,-0.6495191536278586
-0.7141125332218137,-0.13250835313164594,0.9401886463255739,1.2103781894010477,0.28228097917220973,0.14673920275567803
-2.772011474160797,1.4567127108390143,0.07655377124519112,-0.6467897032343117,2.6893338098725743,0.5606919674793931
-1.4968238504452545,0.9792455324459967,-0.7654987245582235,-0.5577632955323437,2.0957689669560913,-1.0893058106572924
-0.11796155544195464,2.292624050868405,0.40048829831911736,0.37432748601135646,-1.282990563884237,1.2995824361655945
-1.8596335511920614,-0.4036454146899386,-0.9234999014979568,-0.4516098560306995,2.602155306492255,-1.885675150007702
2.2934935750650243,0.9065074702234077,-0.3261948251572163,-0.4751137174254519,-0.01135841920027525,-0.6008233869681588
0.8863575542651847,1.09394398357465,0.5505356689697976,0.7533499557163921,-2.101087008629185,1.9205736728416167
0.2509282831594494,0.16754988810456678,-0.6646602324017276,-0.11950235042257867,0.38420115852596776,0.03253472488965647
-0.7935251356593339,1.9397901027845983,1.7865827728660715,0.14402991132309043,0.5705730781083584,0.12036827879167422
-0.8467508882704579,0.6394665645926735,-1.0863797822986603,-0.3405098541230288,2.4582175525645367,-1.0191382499416444
1.4234024597470667,-1.039053445455567,-0.7837350743342287,0.5655978002865563,-0.3955683449413132,-0.020140977175208172
0.35152487844407504,-0.16560734784181402,-0.8419341102802446,0.3245659640882461,-0.038960598326419515,-1.0899205376207444
4.008179584885571,2.0381941166798816,-0.8024151708483465,-0.3979684617711122,-0.046953288864981346,-0.299215286973858
-1.898112009024794,0.7439586433878908,-0.09770750622681612,0.1296247333085143,-0.6201778339607207,1.1202994135186555
-1.5964564127600842,-0.9105349700430575,0.017340643524458108,1.1193308723818631,-0.10786287206217687,0.11173309466343732
1.1409824173263654,0.9247780424144909,-1.168439550667559,2.161730334595406,-0.5849168190532574,-0.9474114496605903
0.3606969110822106,-0.07717364172917146,0.352812624177026,-0.11011764181695233,-0.46925906298022035,-0.09256681699449093
1.1569726364929498,0.20978896035305275,-0.5230279270362209,0.748795819304108,-0.22353205702596085,0.10224041364894657
-1.3677428914570524,-0.11235650569707586,0.8380804668931519,-0.5959351681539014,-0.11596251403776958,1.1402746425726418
0.7910521891547625,-0.3406080632664735,-0.35614473780511624,-0.2970969364276955,-1.7759074158060437,2.0424476127363893
-1.9364388560588537,0.2441115797996739,-0.46209027486050436,0.05304528323836974,1.5266612000349296,-0.8571928817686506
0.3673682249080936,-0.187539921045071,-0.3816473035076541,0.43621546635314445,0.5520978159683119,-0.5745629146259797
1.2241664110666928,1.178713917534054,0.21729102366479341,-0.09613757338693124,1.0294357413067594,-1.407642733920983
0.28638817535076183,0.3829398402251672,-0.8845930052694017,0.4759302290560926,-0.3227537156522605,-0.00909459203999885
-0.5137733163767206,0.6369172387215736,-1.2007982144180906,0.22027551062504294,0.8595873626078141,-0.6533383975999917
-0.4819728149229109,-0.8403526666071729,0.4687682141849969,0.32941740351644383,0.15505680234017932,-0.6034034163474373
-1.2782749243619416,0.2579244794939949,-1.1693869254172453,-0.09889986401147244,0.7262643181286195,-0.6311634157907053
1.2341392366470603,0.3606098500809858,-0.9436352178158097,1.1223616555785383,-0.43808556600758275,0.645190043129976
3.1961972973602726,-0.08105507056839367,-0.2781985160537225,1.4033185507328394,-1.722350659565245,0.41748594609162026
1.0097612590867096,0.23862915702269744,-0.5614288478144966,-0.21598301849921653,0.10699930376125621,0.6713387581533559
0.41780035444991814,-0.4979437649109139,0.34799420748322396,0.2486627662735105,-0.8118175921625491,0.6898643758796075
-1.7924102847908028,-5.134885461063887e-05,0.3704510355236315,-0.001644109839425159,-0.42572781981577024,1.1209035732157724
-0.21296845436009681,-0.0881836213277038,-0.1794725259878581,0.23308860253616856,0.3488690292480347,0.177780473106561
0.01969287317536206,0.4521149359130539,0.2242830171007114,0.0642232826989857,0.7880099956546245,-0.8011263609222329
-0.606635709417215,1.1843086494209694,-0.49834248728504266,0.4159859074357118,0.6444708748443507,-0.1970451026417542
-0.5254725095389522,0.38287673048181425,-0.3140105318125993,0.12462418664070757,1.0484872900578013,-0.026928627669726708
0.27945935473143385,-0.7867790507893486,0.2605847795947498,0.19983177984994185,-0.48947810504372946,0.7350374623779816
-0.6343503841742868,0.6478033690364942,-0.04413417172076314,0.18876773271223363,1.2915708925483382,-1.1136792385764527
1.2625940079183278,0.058242044779480695,0.0367149720937088,0.5445034349681706,-1.0786774413441729,1.1292436688520424
-0.409813812032113,0.2861066915443595,-0.47882974879305207,0.5044627361623523,0.950878405551751,-1.095802493304115
2.0768962192065463,0.4623188308617223,0.15625664490167832,0.18798104102544683,-0.4740391791200315,0.12283949438395003
0.6842232391480013,0.5550797926533235,0.6074163932399718,0.3595823933861855,-0.9823552106924793,0.9507485837410526
-0.4816023557001934,-0.03525866774631886,-0.868679736017266,0.18857404658539975,-0.14496386939216868,0.9052397190274598
-0.17853639158080367,0.41064151019340744,-0.29056071657704236,0.1449850305628786,0.8452469624340059,-0.18076188990829714
