Gx,Gy,Gz,Ax,Ay,Az
-9.477993999999999,-3.1337779999999946,-2.197657999999994,-11.613999999999999,-448.6139999999999,41.596000000000004
-6.14489307495266,-0.71267830540109,0.34745937557596945,0.1344540697564468,-0.5750350904837651,-3.3432124108727974
-4.805421988847566,0.6037268088664423,1.0845786691867085,-1.5603592237594426,0.45891339921619834,-1.3426092727583208
0.5191258603388628,9.729770764073105,3.285133666521847,0.5865149726562185,0.4189762171802295,-1.2544994975184527
1.7271985071835971,5.111516107268081,21.893808232879117,-0.6574214196021932,0.6890447403196738,-0.5377814964726867
6.6792502564041225,36.16328681824696,-47.8733770355243,-2.5658540327526165,-1.2779324916469792,-0.26450893812879384
-4.6673434616984215,-1.3587475825619126,-13.344147981793592,-0.04569346777222902,2.88755860400797,-0.7204426855830601
-3.7549354341887318,-5.689922024358264,-7.59779239470821,2.6606245638802637,1.7161324429036924,-1.513502659601529
1.1305320517692872,7.545851739001477,-5.962631252255395,-2.030428912001212,8.265066187200997,-5.617551108256218
5.18747713071339,-4.769131461420003,-10.641280757280803,4.909367611230585,60.0776406007871,-22.777678052995597
-6.52940739870988,1.5192206494086298,-8.577569814590468,0.4183482538355215,-8.445301611912232,5.029031901177224
4.830177205790839,-4.586062640218353,0.7984888446926981,0.1099423083161335,-3.4156701185363705,5.040367996291287
-0.2710533612251359,7.840492839208701,-11.907074369761665,2.1498352222055566,-4.15955585854047,1.5750498838294265
11.192985989104066,-10.57275440553597,-20.59446880081756,-3.178799978938633,1.9499381918158514,2.894022530705934
-17.08642948594704,51.35963647894988,47.39827617311973,7.320233596447698,-2.169968498201423,1.9435586440077073
9.180980719407025,-6.615950240689268,10.15332601091466,0.33830287245053275,1.4376911238661418,2.421574375044284
6.425416623427824,-10.268802417588695,-2.3256855769942613,-6.063287524651713,-0.019426942303112704,5.506775673780011
5.851083059921095,-7.415753784062974,10.540287035335247,-1.195147445422729,0.006462657417917406,5.240139090454786
17.826947139941613,-9.697825923272072,-0.5099175420568662,-0.47292567937476426,-6.086741228124634,12.284242180028897
-16.043543829139907,1.7252262485331922,9.187178380976338,4.797692263663929,-0.3937492444933284,-9.254015748152078
-8.476110500720965,-0.6782439657310595,0.039491475945988674,0.9828250337798488,-5.935962711804146,-8.846250869002471
-1.8610775230381178,1.4659714424380614,2.2752305541253874,-0.9049554480156254,-0.6886643817736272,-0.5282030645864985
6.988352560615017,9.742097882503977,3.475659241994732,4.090610313412873,-7.011679239273554,-3.0432999874345734
3.5459764979723056,-51.92942551616136,19.18177489682563,-32.6957935251857,-5.079855081714395,-6.043184857236051
-2.9940416116056086,-6.24356425507286,1.9263393004315672,1.602304430885603,-4.0207413034677755,-3.530184085840058
-6.036494021220482,-1.2990172895532568,0.4150898322740157,4.966892881352675,-0.21557663288552553,-3.9959878368351593
5.273817091822437,-3.574502239905151,-2.159585745962964,-1.0231754892605345,-8.552439163062278,-3.7431957802686626
-14.304048098713995,6.027512233052732,2.952147082834484,3.5773451065369692,4.049964120716764,-7.225653549597558
21.99510824349302,-13.803092897304959,-5.035766736258719,-6.930179140351727,-10.308103296188639,8.432953597116281
1.7491277192477312,-12.127481120839885,3.610289950765669,-3.8237820184398243,4.066227617632569,7.900223816379967
3.698671120233839,3.4474437418612713,-1.6132366179994635,6.470211489292718,-0.7565087135159897,0.7626029836923633
-3.2432904927129513,11.571234688520052,-5.023962872261517,1.6873922865027269,1.3452742792286458,1.7341085677447616
1.5040056203154673,9.446133349879087,13.943306281408725,24.35379789257496,1.5072715310576574,1.39737944474361
-3.215914754959212,14.02317196934276,0.08634756614233097,-1.8870615188838011,3.0604295091798415,4.524579631050074
7.90145683000013,-1.1005923638944837,-5.956842478578492,-4.637142874575092,-5.6082701984115015,3.795483537688392
-4.926220794475846,1.153615759514167,-6.479599089205972,-0.4347414546709434,3.290543907928426,0.04813429722067908
8.560682165493594,-1.4318096113626724,0.8143048858649916,-0.6336916726633872,-16.61496927312182,2.2539822804171985
-12.809469481460317,-1.1587105635946915,2.383743543726765,3.6981517795739833,30.016439690375964,-9.641194886418546
-4.531138661524948,-0.3771230423224323,1.5325470202083604,-1.2042022081664925,5.567166643355365,-3.2932528215023784
-5.546578593950569,7.7617057710924335,-5.6282915564605815,-1.0904039725742123,-2.048927469275624,0.7167029326000843
-1.553208320634352,-5.4424786361719875,2.167573193331957,-3.995337770994249,0.2838092656448701,-1.1786836667089489
-9.787839227730181,16.033511081172538,-23.52822791089249,-11.39638276643832,3.790559587519683,4.010202046238145
-0.6932165101024703,-14.743855642379565,11.524240295516378,-5.2249927188311185,6.649292742714494,-4.834577132594659
-1.5403845959787836,-13.317123770814408,19.616441472320755,3.565834781152563,2.7464854092963384,-2.0008183131417363
3.3513962951339633,-0.9569995433671384,6.065625388489904,3.99144882638181,0.9786996750497852,1.1887907818943226
-7.288085217152362,-3.1281873833775293,-1.0354733479482998,-2.9434344362956057,9.927645212480902,-5.172606485207464
7.945165928826336,-0.32874261546987604,1.4637102311832662,0.26730122637167986,-42.07892240032105,17.411109496869408
0.6898246961819312,-4.663482266675456,0.8508041236157399,3.315488206291828,-7.559106684272992,-1.5636961996482097
-0.08188859333112597,-4.370602692930226,4.816668643747779,3.5785919782595617,9.319134579373973,-6.63043648863706
3.6994307044105383,-3.050573845436909,5.742282547993721,9.786832388815263,-1.191942346735912,-1.3486893263511164
3.7819300219395546,-5.033879003855066,10.828877189191402,5.601463332030329,-2.0529115381452163,-3.799544858084699
-0.16582615475904028,4.672467237628459,-11.914932244623397,3.718591169075035,-4.451710950108371,3.326227739393538
-2.8982904934949096,7.917347918748411,-17.201015279797335,-5.6589027053597025,8.37234145221374,-0.6101701366966257
-3.3014053607598326,1.0934016799534325,-1.1113458195486832,-3.3255144249976816,-4.3563616022957445,-1.5192379402573801
9.261334834222449,-1.0770090749598822,5.096195053348575,0.01423241182691709,3.9022222316502777,5.426784990437798
6.17867961494263,-3.6895884757496953,0.9468047486853073,-1.8217159298732692,21.012760335967837,-21.056724339485392
3.8313266184558374,1.5966159525640509,-2.1121864611388252,-4.036036095717952,3.599574924090512,7.60339183932434
-9.639661068494378,2.1022372606522843,0.6202961442739995,-3.1968781787608433,-6.426236174595471,9.999533241005732
-8.068535555496112,3.976435787172295,-6.7665367590725864,-6.88338286318469,1.4337523395664595,2.933773757784811
-2.1972646789087884,-5.223777226556903,1.648645196679034,0.17311194148335884,0.20603483867966443,-0.4606170140158158
2.1989250287398727,-3.3261802800687907,11.037321097577959,-3.0875173313586743,1.941157060648587,-1.6302932681559716
2.218459579139815,-3.7483427818644977,10.935329966085158,4.291367942843248,-8.734834499360106,2.473988491940048
2.5589279342210407,-2.036573206609342,1.214261362074776,2.262536555839059,0.9962338938357862,1.7841267115208617
-14.216920416085662,-1.796127049996668,-2.1434482663341776,0.4009038712423796,-5.198807001847372,-1.3542153818079212
-3.5341342928962547,1.0152548483182917,-1.5243064702930282,0.25812759195560014,-6.226517054474546,13.03943316982528
-2.3269686887008714,-3.5884845312452835,0.01573484748640709,2.242281385558975,-3.340336782063984,-9.013525943425009
14.125184915151952,-2.797010180446537,-2.769481927853873,1.8361115268611936,1.560706113509269,-9.369314217376346
9.093570093592033,-4.655418338656172,4.982941292032932,2.1449318857883557,-3.0569168486214418,-1.3163835912906936
-4.07265794534405,4.549623339314155,-4.872245878796255,-0.5511187203275629,2.3886531118926424,1.7905438764657722
-4.597213803407778,-0.6188058586174447,-6.024596264865895,1.0478425766151187,-0.435791263214393,1.3497013868253767
0.2086695937626611,0.6062125358340346,-4.236266918372694,-2.7136729552079957,5.316923994704173,-1.9408933062821898
-3.4077033167972344,2.0867447953463154,1.1871125186084974,-0.9576076763535688,1.4241378195255048,-1.4395665879846669
16.279522779965756,0.12290257690651352,3.3255920098435343,0.2240477939410794,-0.4798028764668989,0.28665735521438274
-1.1894809582436192,-1.4720358414823491,0.7864015632769572,-1.1235318146694275,4.15705460490774,-3.5768029342767758
-0.9978022085808469,0.3181771736776762,3.1967065646984434,-2.791043962925773,-0.8403700555065208,7.218843420478821
-12.91495219570524,2.560848775884494,0.6381488644916813,-1.1298945961711757,-0.8420196571813711,6.740773967575387
-8.530870921981556,1.0124700818922288,-1.467077967651669,-1.2417953529188472,2.691608383542093,-0.19126560338440668
7.51938542224279,-3.1507724547666944,2.6850710330701526,0.23621923102139353,-3.0776503862472584,-2.3905436058734306
2.3703353436226164,-0.9672418031401194,1.9615400248260533,2.442819197985912,-0.24994355794216938,0.3187971050547725
-3.466433936971953,-0.9164232949678427,0.7210193405708907,3.0365999195043027,-2.934744573791521,0.19921770081047036
0.7781434451304725,-2.2216695481181943,-0.5106174236571983,-0.6234275932964629,0.35784757624585195,-0.3059780551215682
-16.483612192277104,-0.18430643334159713,-3.4632397584784598,-0.8492389350317331,4.58814836469522,-0.45127095786800653
5.11537133994718,0.00782013190473485,0.9906182442475061,1.1496061448442505,-5.112478868884501,0.42657426710410223
3.5325764237286537,-2.888592971940909,-0.4367939473605198,1.6845040184247242,4.136800330163715,-5.052863136972064
11.110336826453928,-2.91093201227077,-0.29984945588602263,-0.24026362731385936,0.08670852289629871,-3.4161260402118505
4.871977026225653,-0.2828577573319238,-0.09213691358457027,-0.06516008866661305,-3.0724184369509144,2.021864931543166
-6.010398804016251,-0.6767072064416498,-1.28387844551097,-3.566579695257384,1.9172896820556442,2.052072293857976
1.7307397711873787,0.314104993716769,-0.03305903643688721,-2.3075433323539234,-2.2592962780675756,-0.5292423439988742
3.48096304459779,-0.733957309311974,0.21811481640267671,-3.005101763419613,2.9542001228918884,0.21367637236257458
-2.921316449568988,1.1358169411318766,0.7397909581842419,2.16256249946503,-1.220014167671285,1.7112078543733333
9.006583869019536,-1.1641937521134123,1.4675978159653313,1.1578597992182962,-3.1856353505856023,0.42691908198257333
-7.288157658323787,0.4976871405520388,-0.4360659262844554,0.0905369049592229,2.7987585615704536,0.4522732197091137
-4.6261099792349665,1.2079131723755057,-0.20658018133885225,-0.785798061648429,-3.6370631689863764,2.493442081243537
-8.706070221950732,1.8304724955333223,0.18191698826369535,1.549651305943049,-0.2609121554489502,0.7934286486988373
-0.11840977816492337,-0.02666422355407616,0.2848907313780674,0.7822546948024832,2.814906158756866,-2.1343508674374885
4.935516409677854,1.292553262523401,1.0569161217825005,4.931540578500904,-1.201119001495254,-0.3713421880298164
0.6804710453315341,-0.7862176508298191,-0.6509704716194533,0.14678157871261788,1.813517321109002,0.13003899979547712
-3.9402765405181777,-0.29919232109172034,0.07286256176613426,1.9876834218238648,-2.220311123040254,0.3510704925343722
3.1910095794384326,-1.16689461889736,-0.8188217550488801,-1.8586104772174452,1.0944269348551598,-1.171886572700745
-2.570992671536,-2.339995527239947,0.17001134570520465,-1.6043853787421791,0.6230438892010067,0.10726086176574352
6.0430253998239,-2.1587903700538695,0.7378745235280532,0.44987461656886096,-1.0400510263990805,0.6978507465848696
3.277446585433257,-0.6872087344803531,-0.04834516119025822,0.30885207285081634,1.328331842860519,-0.04755274018358412
5.170580400926785,-2.1448150831082002,0.06320535733935825,-0.6600668178972119,-0.25910110034371536,1.2366384500504775
-5.467643694763757,-1.0159605692684202,0.24062546534398288,-0.9670761387712414,-1.5331542359472912,1.1767572504226873
-4.238095411823868,-3.609536469862495,-0.6216704286465523,-4.007912915842356,1.3282569211394546,0.2509569513498805
-2.253350574017273,0.6973537829913602,1.7412869615421465,1.7689010568538,-0.7185743403916708,-0.11671805048534091
2.58493763908495,0.32444559730811756,0.10912750670620325,-1.1051807437130348,1.3488339877377,-0.5992917849023238
-3.342982713891366,-0.3151334511893784,1.6216406973593553,1.4904869896610684,-0.8649385541680225,0.6373647489985493
-0.4698301236022977,1.9008594199771682,0.03890656517646862,1.5951251125668207,0.20635870762342273,-0.39839700373318204
-5.787902425473975,-0.9912787118344987,0.3855833822749982,-1.509660047943412,0.8930770033222413,-1.6064011994495773
-0.887957726665165,-0.03564292764434246,0.42745430679393265,0.3271581524982927,-0.5076144877713743,-0.003688386605070069
