Gx,Gy,Gz,Ax,Ay,Az
14.030558,13.163777000000005,4.007059,18.215999999999998,375.26000000000005,5.592
4.744365463538139,27.33990401607953,3.0581808035035287,0.5396682686606754,1.5838137741128033,7.5780316337194185
1.8707767987809212,19.18098773180605,5.271179621527519,1.7879110821396569,1.582731396191675,1.8300862058730143
21.303659254860676,25.809744927710597,23.020113572691862,1.1834654873454447,0.9830552101932319,3.226474343563484
14.3200776074902,81.25507086928486,21.159677547215217,7.296138441335682,6.417384454120925,4.019424651205514
11.488805755668555,36.105953524542976,1.1210049808803897,3.4131466307335803,6.746426008226462,5.877660290566453
3.677019821414387,22.229006266188264,5.112064120318561,1.8637513087867623,8.773771025434602,8.864863281883864
39.81857258522805,16.451928872277787,29.261395461623856,12.759690765615696,54.42648094771713,43.28533194278977
11.149998593196688,17.857255243410417,5.093074375649954,4.839986575849595,10.510045621726102,9.998397911802993
15.632261000451395,9.642654624094012,15.334361973926121,3.910966948687514,5.319549360288134,3.500094357682076
18.41324340110769,29.278811097052895,24.979757004659582,12.204192370660568,3.6957487359035586,3.1702626111972214
13.684885879412308,46.82690993830578,16.849116749658048,13.361201812646225,10.278933006547634,4.812998797591695
3.2107026497577125,20.981238513761998,9.888503624151726,4.056344164748858,3.7865126815602617,7.594786817298516
1.887062390043186,15.138183667783071,7.169375952383873,2.4142218496163093,8.149006352365294,10.253205714846219
19.95614682437691,23.351267387764782,11.173677969945821,15.715774477413346,6.494429976414061,30.95521088030139
13.565660441411065,20.06286634066251,3.5482927330856127,8.28788076206954,6.202473581457367,13.08402090468338
3.672191596629876,31.00785618201305,7.031288816641268,11.562508617569803,4.388725058912993,0.47668179691271845
5.293805546465844,32.513714870580166,3.895318378709092,14.284151724554942,2.52137282481035,3.1599189149914824
0.8062037517144155,30.620439239163073,2.5465313608609588,12.290845082263694,4.524970518912994,3.20833008765438
2.066393095812464,4.683666049038266,1.739160299735446,1.9489917143320399,2.7493618417195522,4.764476738631965
1.9984480968315557,3.2720382203236924,4.386446269487965,2.369105657332166,3.2990005186369915,5.985368031140424
9.996722521550591,8.704377625215193,1.302435709624216,7.373012281289899,3.8863078259477746,13.171232695882077
6.2031412880573145,15.83669242284129,1.5003044682567694,8.575795183254742,4.032865547622322,8.470185872253031
5.345928275727699,10.594694301404287,1.2194310915604623,7.050712972767512,2.1065696230577258,1.4085593418553735
1.6074731713935528,18.97414030741416,3.4142441336971494,12.209884054737776,4.603095032382271,1.5776893773887786
5.7700358911091225,13.870802521550967,2.2276158468325282,6.515203494755284,3.815270011406211,4.888816899407395
5.248806210874858,11.263756022565458,2.3910705008879702,5.111375339550947,6.839314005062336,1.3951301740060997
9.321705749737216,5.284151698003564,1.7844052932099188,1.448330586341646,4.442804843551699,1.8808544265140572
6.493597488441342,0.4410107623444674,3.3130001119422374,2.0556508440796377,8.05920441255347,3.464776608540061
13.700334092982525,12.837564700960288,5.038071386646029,3.2588337145421518,10.708566671951564,5.7935906622112485
7.106853418989132,6.15464736761266,0.556836470581364,3.6922723327966938,3.4891637465317755,2.3918377130911437
6.841380823950236,4.321680353649716,3.29337223610481,4.666008376242431,3.514651166452054,2.998364513557737
8.308669264440004,6.750703340007797,2.1779147192347916,1.7811484712110466,6.847985375293558,2.2514731401287116
8.021331620583606,3.257978468312334,2.796096411470141,3.7229322044086373,7.353959831097826,1.735581033499331
6.805221463971991,3.027865733730795,2.4839017468815325,1.3210061419630523,2.995801919331842,0.9834397525474434
9.23186470556965,4.34963134594057,3.7837669064636863,1.569815809011938,8.303503363380564,1.6765037997029315
18.975145830179795,10.029135534326265,7.205373439191892,2.1129437628868706,15.460492091267971,4.090482331402156
6.163617108293613,4.130946434352211,1.4745281852974306,1.4528252752794117,5.022696493654854,1.5998505945455987
5.366448428869977,2.7284088314122865,4.561461252567248,1.705565732379433,4.805756657593887,1.4565965619517816
8.021741868170551,3.928763518126813,4.1667121502548445,1.4740467768327048,8.451637411902155,0.546180617841852
2.9726868720869577,1.4884319983173382,2.404350315233234,0.572406215436024,3.6849891289457855,1.154470590403031
2.676847675288382,3.545014815205985,0.9075650936927371,0.8489741151859242,0.8165040725727081,1.1189942750427955
7.206838775921309,2.676400786529548,1.9681436106797565,0.9944029491467876,5.69335534073589,0.7826823188455826
12.640515995781744,8.08375396941014,5.138102677750503,2.7957753883554455,10.025374941142289,3.7130248278017706
5.452822726888363,0.8320345238406321,2.1256729518616195,1.3258801509312381,5.328610095032213,1.1660075345901886
5.168544692116665,1.0942062211199322,3.4825080405670494,2.0671972329003996,4.821160294951456,1.3499351776934174
8.490409006599386,6.548268845448785,3.9088648900338154,2.630246003588552,6.210499716615495,1.8988030573330221
2.1111069270002747,3.3976191594128013,3.0593651247570364,2.409969068296822,1.3585925592460242,2.104402201845965
2.2271425624015375,3.4302953996513783,1.1225975712207492,1.1632278222080066,0.6752443289040747,1.210006070475293
4.525556907915076,3.525389686491241,1.8980502339784,0.6369325461031304,2.8783729668816362,1.372612996516107
7.118170246898424,2.285035314136514,4.383599061299738,0.7174276190831284,3.9001422755304547,2.3955234950794306
3.0800931510852636,1.9515732715828469,2.7218416876890004,0.19953232861497064,3.128282729846629,1.638711925503202
1.4640621611553126,0.9033734423651242,2.5829944095947814,1.212259215042093,2.978551962483831,1.9093228062542937
3.9644663952414283,3.077556192172912,3.9189780035496424,1.7663370311081459,1.5063760058346376,2.6639206284290458
3.826901580140691,4.444311249015008,4.695395701611135,1.6355655551236763,1.6044014082639222,2.473483462368838
2.6340465679765606,0.874251285477,1.4248136187794764,0.2929261253105265,0.8141744602804841,0.9887737721640427
0.9334906269614852,3.4404371217975918,0.7718519505490229,0.522415210511868,2.076838007332369,1.1818509605809988
4.469768496138658,1.3233167750504389,2.82731958721505,0.3922050195923845,3.1259676138044923,0.7232234804322593
2.4836797183900163,1.8467108346380896,2.116385438056679,0.7746041550371624,1.5531477483741642,1.9235072171190872
1.655573406625309,1.6576027832793803,1.627520695067198,1.114605821955485,1.964434628646193,1.1782362688078454
1.8420594843937734,0.20177938137680054,1.820466784619919,1.0084862009363014,0.10114493049303187,1.7269153937203878
3.5477169003264453,5.01475448132377,3.92607206972158,0.9601977850104806,1.739627477067097,2.2195675329537763
2.558641569415138,1.1396163296902582,0.9200536605221629,1.1833498516967176,1.4273619740656711,0.7438952565769594
0.762591664393359,2.233413362604536,0.4860191722738302,0.5570065069505021,0.28494970621577376,1.5419426872651303
3.3454372054688584,3.462493653392397,1.136071452303284,1.4349572348582114,3.425780617708188,0.35419382926456666
3.51793036983459,1.1026849482460173,0.9914291975152102,0.5164501253073561,0.21537339459003063,1.4482321746988303
1.4009064501273487,2.7119194412489582,1.2182871440224095,0.5539078987026751,1.1616985775200503,0.6590456259393036
1.0943680966700307,1.109002558715332,0.9270083966608432,0.6710071393814666,0.5470906767646697,0.8556961810519227
3.2908429678411446,4.4330205955998965,3.441052483146405,0.7878782332436952,2.2835500247162903,1.0671788701801328
1.3172315391672127,1.941929952076743,0.272768249795196,0.20519259820489827,1.1385624746364658,0.3460949109781705
1.7337821010037329,0.23819270635074294,0.5130389408217628,0.970731414477498,1.0607799262332613,1.1009377451183586
1.388766157059128,1.1296325201199828,0.9123390177809088,1.045895172612067,2.1066669525385278,0.08064912332216481
4.978265114353749,1.1422996515914607,0.26410460599571217,0.29029754653974404,1.2358988345591109,1.1600292195097834
1.3405692380996928,0.8968986697874445,0.6712177478084375,0.17402133170187645,0.2789525837051864,0.3231069786048761
0.9145070468251086,0.5956712483844402,0.4006225066460688,0.32144897044371545,0.1040883532468155,0.8125999871815192
3.353951397783751,4.483516144239977,1.9731694048230528,1.6118917743559145,2.5132929615211634,0.6213371929152995
0.7491780904554122,1.5673687347198104,0.4350795291996969,0.6865559657054839,0.2715430583364077,0.548865824143402
2.0027962677234497,1.065855156908817,0.24008172523195193,0.5359902143827828,1.3239730990259713,0.6792587545801678
2.8960629349262628,1.2525023900428665,1.2420238168954343,1.173240073747242,1.305518662216968,0.491070462598325
3.886361066334719,0.6884283310415732,0.4729345247669744,0.27751705738172977,0.7980578777137196,0.49483229190453715
2.130627213082413,0.9507287504583828,0.543271234944702,1.0601685743616516,0.09017518621249167,0.3706589075122155
0.45995293133005327,1.165993821607945,0.06959565564669488,0.43029553022360484,0.6778899627416164,0.45629407374302977
3.652565565808624,2.015638686011626,2.049806801139613,1.7477678883063974,2.1473998501004905,0.738530318551894
1.1689246927946533,0.38020523975203935,0.22072581840335997,0.8614894300491135,0.74858271761639,1.2608845749631679
0.800336600227087,1.3537118706618672,0.38805808238762657,0.40461357544620064,0.8541824752054115,0.7443314427770006
1.5054840601874817,1.0910714013588392,1.1427460870387183,0.33222354240939994,1.1022746908631917,0.3724202784918035
1.776644803275863,1.185402247022773,0.28928163785595556,0.25338719203506044,0.16016175131735239,0.4136304137768854
1.0061977372891144,1.8353124384572599,0.4690016852082417,1.2324412065089496,0.5265171079414377,0.2696645056726748
0.35962968258348005,1.866434159662906,0.2521142760253149,0.06899067510393425,0.5964794162206413,0.6592993302302713
3.2426198058399986,0.8163764675969144,1.5330139233545095,0.8076534090552098,1.6129152941896705,0.7911495415404631
2.3759403862907083,1.3942575985882428,0.36403963012003454,0.45379360196445845,1.1258072104344594,1.4899935557623056
1.11418485812291,0.7093621987794453,0.12200086366974097,0.4382336171571051,0.624714265290504,0.34646637217384313
1.0235502125380902,1.1145045829952478,1.141268441317096,0.2761791240577772,0.7351918700879895,0.2688585364671018
0.4651707429873617,1.5848990721150766,0.34815140354577845,0.13493926938164003,0.1195551379810441,0.6109825402137341
0.0,0.0,0.0,0.0,0.0,0.0
0.0,0.0,0.0,0.0,0.0,0.0
0.0,0.0,0.0,0.0,0.0,0.0
0.0,0.0,0.0,0.0,0.0,0.0
0.0,0.0,0.0,0.0,0.0,0.0
0.0,0.0,0.0,0.0,0.0,0.0
0.0,0.0,0.0,0.0,0.0,0.0
0.0,0.0,0.0,0.0,0.0,0.0
0.0,0.0,0.0,0.0,0.0,0.0
0.0,0.0,0.0,0.0,0.0,0.0
0.0,0.0,0.0,0.0,0.0,0.0
0.0,0.0,0.0,0.0,0.0,0.0
0.0,0.0,0.0,0.0,0.0,0.0
0.0,0.0,0.0,0.0,0.0,0.0
0.0,0.0,0.0,0.0,0.0,0.0
0.0,0.0,0.0,0.0,0.0,0.0
0.0,0.0,0.0,0.0,0.0,0.0
0.0,0.0,0.0,0.0,0.0,0.0
0.0,0.0,0.0,0.0,0.0,0.0
0.0,0.0,0.0,0.0,0.0,0.0
0.0,0.0,0.0,0.0,0.0,0.0
0.0,0.0,0.0,0.0,0.0,0.0
0.0,0.0,0.0,0.0,0.0,0.0
0.0,0.0,0.0,0.0,0.0,0.0
0.0,0.0,0.0,0.0,0.0,0.0
0.0,0.0,0.0,0.0,0.0,0.0
