Gx,Gy,Gz,Ax,Ay,Az
-13.431944999999999,9.372605999999998,-20.016552,-13.21,-564.7239999999999,160.828
-20.537829447167066,28.584061319589363,-24.011924940696368,-0.00810867809536675,-0.3573663786358259,-4.371608507710222
-6.634952137418545,30.514930272032394,-19.369929183940283,-0.2796264420512977,0.16038228275652333,-1.2602495153239364
-8.052054554265615,40.22669786467385,-22.54803421765802,-0.5754564250445158,0.23376272613889082,0.5813410853926271
-9.524952275606601,44.98616356040194,-18.093434392541184,-1.6731630712842889,-0.03209320233094237,1.5420181804279873
10.807832682306813,33.044818214683104,-23.32009157491386,-9.221310226919131,0.18904906673128274,-0.071658100751268
14.924968143886339,-135.6690740999411,42.43548604167751,23.790467623406272,-2.1009452037488154,2.5230957235002474
20.354735057459433,-14.82880906502179,12.442038724929212,-5.528480091297297,-3.4960198598170567,0.009444761984635341
4.379628851418833,37.18733511766328,4.4404126836824105,-1.514127580824438,-2.9827257074909843,-0.1741942762191117
15.27870684784819,6.140413662819281,9.663251104432348,-1.741948998939387,5.323799236979973,-0.7753389708648519
0.09123881016973723,24.898696494305973,12.340731005671259,-3.6642762122640358,-6.933621904775478,4.177284204161152
25.18049394636113,17.10238051192361,-3.1906695871558397,-3.4438989156711135,-0.12392013260404866,7.898637010950919
-14.209630373884576,-11.074585621009959,-4.5918466470412085,-7.5918687220759065,65.91473573316281,-65.95186775822893
17.080752268446574,-2.5039509785192635,1.940842001244306,-3.761670956489747,22.419874165900804,-11.96709206995024
-3.3343094814694103,0.26407328713729594,3.5514085151808628,-7.160208157150425,0.9779485843407283,2.037700705409555
-3.4959053240564972,-5.396851075150953,10.60347882390648,-7.555348634998022,11.456107820847949,-5.829886260630012
-11.797398590550378,2.820694028870072,27.75744229215711,4.478286304348937,-1.6676753801938418,-3.95926934174493
-4.061022645957152,14.070654839901518,53.954610921989726,-7.152790215479262,-7.324360717846155,2.2752721847356527
12.13023305501117,-78.30617464360532,-178.66489967109868,-6.119027436911161,4.130245251354725,1.4460384617748243
9.684430125737935,-35.908566347564616,-32.53192386580001,-17.69105467123216,0.9987259471135062,3.172701484241334
-7.096658649132263,14.402160613797324,3.3261941140800433,3.4571312680816284,1.6365488207943368,0.7090646751843721
-2.0146506812891607,-11.118756248808374,-20.113123179321594,3.195327784434503,-8.189285680142682,1.5756107312785308
-18.119167792632865,-17.80365772984326,-14.802950503110743,-11.891080181359548,1.9895557567887088,-7.077982197166467
-33.17646908730052,-12.53120501075382,-1.8353996061330955,4.272246558167789,1.6384794019396747,10.143725477367179
48.9633016871927,-0.24487638833338954,-5.624857602080732,1.7910796088329164,-25.648559558633536,-3.111853619840117
12.747161308249407,-1.3384325805242776,9.342525793804526,7.073144931194203,-20.95589510037157,5.525955800341921
-1.892325599827613,-1.8732858430327926,-18.350583618213985,2.4295039498020197,4.301502590050843,4.069260901505139
6.447047947165916,3.7014839853348613,-0.5972755883447034,2.3292426473708607,2.683358863414978,2.848851344694461
1.4806106950265594,-22.914374299580704,-16.36036984384337,-10.092171218086637,2.626070489748663,-4.353814901253941
-2.41841256056174,3.6200778283781947,2.8740927551946767,13.047371757600917,-3.793108427549586,-1.6899243802783737
13.103933688140314,16.98173692984438,31.201404783573654,4.704563273012755,-9.02185605917964,0.8482981902033117
3.953238994938619,15.196461793766181,41.27002560189311,12.32345592945652,-8.9697866642554,-2.1111770234589504
2.1277820609815654,7.054305671327978,2.9217119974251236,-1.7651366351469269,2.0675288673997816,-2.266804812496054
6.042986995595953,11.186956313338976,26.29451146849363,10.3274294012278,-9.654515778316384,1.1955460281914743
-2.373098450579088,7.18816170290367,4.3325222984100185,3.9985151536690218,-18.28633528368587,-0.6356887341585105
49.80174514945455,4.463689016500422,6.203045632360565,-2.919937816716314,-38.62463386777367,-0.39152553460644013
-46.18836402324673,-3.970173108762747,-3.5480754744976633,-2.155191708207324,50.104600797882426,1.229566155052475
-6.255735455506224,-7.380687474259126,-0.8778286103044806,-10.10323510330815,32.26180631904727,3.074055855197007
11.803234993692332,-13.207537235206475,-1.692370621337487,-5.186988028853836,-11.293505665671066,2.647939449198313
-12.973242701472156,5.7475487205328735,-1.473126345362151,-0.12293110251074069,17.436835494919546,1.8370383665991068
0.7668186784115056,12.565788062914383,-10.835316861900573,9.12889463337006,-5.033695157626756,1.3547789475501368
1.742537367424931,1.5045801019600478,9.980098806847991,-17.87394870645239,11.50494210171932,3.3525437643028644
-13.092143750743498,0.29279565413494923,-20.879898189046326,7.428775241911761,7.068445409915911,-6.475098488301061
2.5058147967031923,3.5132665448099973,5.406469170098851,2.9374084909840175,2.5726626882968624,-7.219754557641396
-0.5426914714893201,-2.633492560427187,-2.8814296059711717,-2.3696159133149375,17.90964248996139,0.26637588913324767
-8.409343851624238,-7.535297734749122,-7.306564512861806,-4.105021519694178,-8.59868917448549,-2.6859518348243814
32.91743270522852,-6.72471426453115,1.5883503991408379,2.585435894126006,5.365243863511821,12.035212088365533
-6.824556719185564,3.7231864043350313,7.742100210411246,5.208672952278404,27.701273619118542,-10.88383317833805
1.4795628936159773,-1.2455980623517273,0.41952302051778456,-2.9148055774002652,-33.61787038456889,7.82124119948293
-13.774481165038697,15.704569751349126,9.477960297419827,9.940421753117166,-38.53471140513128,1.7557818472546167
-3.723771738188765,9.799515876162609,0.565775012779958,7.912167046632124,4.498938075876554,-5.1376107458909965
-4.420512584622811,-11.480981695469799,-0.9008094222373941,-1.5218977464343773,-5.155612316884893,-0.7556018206937103
-4.854429964960012,16.78723244532396,10.325829276998055,6.3603941421910015,-1.8882276663392545,-1.1953172319528482
-2.8812184788401156,33.510641950583505,13.216661383702188,15.115551489603417,-8.390501504353672,0.7485271764970398
10.632901393838612,-3.6156124447010622,4.340091325829418,-2.622398846375496,-5.457348881048086,1.6208795468328336
-1.5915051499249844,-22.850279414998113,-2.770654368328009,-6.828746692621116,0.9539537830199196,0.9384199225278009
2.5935033868619386,-9.018409234819092,-5.048318194124395,1.2562143577497764,-20.526789767366814,7.364122683955248
11.35134151399717,-17.452099249288548,-5.390135107751795,-5.173875965861167,10.915139810768043,-6.285165522377984
-44.30168925653438,-6.383144977474589,-6.15802547434381,-3.274751561848756,-6.879506742677352,10.44390190546379
-14.674156566222663,-17.154722749814105,1.3931624964806493,-2.134279538042462,-11.832931610946243,8.689649249961414
-10.742267796086807,-6.078338267337678,-2.1285100760510614,6.862717609269266,1.1258941860140688,4.681777176604724
38.80823163930437,2.1277575931604362,2.839113550219465,3.3270611811894364,25.242511468281627,-7.578078654300273
19.61593913345893,11.875900340706455,11.791415134778145,-0.3808152116673682,-7.742053599640575,-0.19979505311019286
-5.295088786600267,-0.1819650050125423,-6.2359888155183345,6.918745522463922,-0.37088596382618544,3.7563579758929193
0.5802148482240996,-26.101917898548145,9.561261673955334,-12.162837880475635,2.5676624351085975,-12.425025178000086
-4.457992543724181,13.463048970711299,7.651267621553661,-2.0081558765837872,9.176200254293894,-6.376429208625269
-3.15355303264284,-13.37342834856734,4.5731910085028815,-7.948606354896322,3.42487440177012,3.1756168675602394
11.056407288793192,12.305445722745105,-13.72240476343052,6.681439616549415,1.2999509839222658,1.4543221974682332
-23.946279432597922,32.754449314662466,3.8710715342621986,7.19182467288339,20.29978922315563,-1.6731603229867544
8.769778353254033,-4.314566665713902,2.142203757820812,-4.408127171570915,-17.50581860789952,6.513549922506256
22.20345791858413,13.068177834607319,-4.2956928244167205,5.264462494107772,18.490067135223043,-6.810785605041237
-6.318613555412314,5.567165563541905,-5.74504696009074,0.5653911588640081,15.763484211174008,-5.505283027200534
3.494866000521969,-3.731339478708179,2.245439624613472,0.019925853803345106,16.111077994247104,-3.58062163743268
-3.860910648166288,13.682667754914863,-0.5203545879186224,6.735909906653594,-26.301822138662967,4.608170141172822
-19.987955838983005,-16.47645518801862,-8.688491507965681,-5.786465481203797,1.7793721286721853,3.0732629184506357
9.955107964384649,9.110766084390221,12.98106500905358,13.077896985759427,1.3443004293169292,3.236777966943637
-12.623316787392316,10.36792896828975,-11.969955434080786,-5.440238997005427,-4.444858508504629,0.335748448276869
-10.768181349769389,3.5590664831036842,-10.000378297045312,-4.471354201051003,-8.456047109803672,-1.259292209759011
-7.073663672967185,-0.23175540949965523,-12.061986728390302,-5.057735170421141,0.3725299246335311,1.5159244780442487
-3.992944488938416,3.158246352614613,8.430630889976683,7.974769747777737,-7.005486148607848,0.19476263406864808
3.5854209427110715,-15.15133963620407,3.361860340264716,-2.3524318670385784,-12.849399606507287,0.9336606750865425
2.864070249324024,-8.64701690090084,-3.3394270470019904,-4.827415060810374,6.043281490990305,5.073780951839451
-14.18200670107101,2.177382142006147,4.653312069518942,4.335652530145382,-5.996807625262422,-2.2171176852840624
-6.169692184388126,-1.2381198633910806,3.9004298717543335,3.3722101147730985,-6.334269970690854,-5.400868624620429
2.545636412562061,0.12107313081355198,-1.5818541427501813,1.6520754401939959,-11.876269680720412,-2.665470341228179
6.021253330827648,-2.1334685436651264,0.11556953697400352,2.7633611727325045,3.6232755595902155,2.552844669403685
13.91589045044595,-0.13518590609522585,-2.0643689089891915,-3.683824252180876,-1.3300088192865291,2.1373251097161643
1.8290301906030573,-1.1216057914988657,-1.099645907860761,-0.9375121506853288,-2.999147903738254,-2.403256882617659
6.32442943536601,-2.043007100985241,3.7786272944709367,-1.046210058969225,3.7710127531782476,3.076329427419169
11.452235873523325,3.115478287599787,4.042267095232292,7.818883894325924,-1.401873209848933,4.2878775913776375
9.32225594410186,18.77372279650406,2.073940411134183,8.00183678852915,-0.724758403498442,3.2671904307360027
6.662725415684391,-5.774413170578402,1.6648069410417445,-0.7052086978311227,1.5750833842091332,1.4264102352251837
2.3014576078612485,0.3069584360551305,-4.986509476871293,-2.497178902717291,3.5996497810672055,-1.7849841367553947
1.6241659610669554,8.75247619692302,-0.17106619964548297,5.483352197130623,-3.1970524057643233,2.7748009853228215
5.259778384887296,2.998692458124486,-1.607395961435727,-0.32407936106359836,1.1200089016687613,2.8395746088641998
2.3423740575932746,1.0442575445694304,-1.6008652056670296,-1.6672770136028436,-0.5374780046177499,0.3497029308888111
4.615104003817425,6.766397264388819,-2.252684556785388,-2.0976265554832043,-1.3517760334745361,-2.7883753531040196
-5.4926297066341485,-0.29043882955303246,-1.7344600197781452,-3.2257009160905925,0.7623810460851619,1.970630112142239
-10.154642,-0.9614465000000028,4.221149499999999,2.9440000000000013,4.215,-1.355
4.290413608304771,0.5145220182513977,-2.5212004913082073,-4.844389242620598,-0.43979373736060623,-4.372991465431876
-2.46953204028706,0.35972867235877715,-0.1406703259886979,-2.740310634540213,-0.6531623050697171,-1.919176041482159
-10.268474412561853,-3.13746187161371,-0.047086812278378964,-0.19894554846124102,3.1817965325658024,-0.9090254207919004
-0.950666076640496,-4.295845283236468,5.017823003879637,2.0042328601577304,-1.3246136542750202,-4.785163624072397
-10.95399739783179,-2.7988799703179392,0.08877644437579146,-1.8440385895011875,3.573587297717031,-1.0946276632420968
0.05309397359639195,-0.5721814455167582,-0.8809526965813905,0.7047573113835996,-7.488191330607856,-0.03592439777286849
-1.235931138777107,-1.7367610301815213,1.2900126941760734,3.729506939162229,-0.020976750898256097,-1.5146729505870586
-1.389760843889892,-0.011938629733382555,0.09841731753674932,0.33505895237364924,-1.3931682398139906,-2.38779735955288
-9.6624226814878,-0.20329896585533547,0.11159908263918195,0.26182725272330143,4.360055906086055,0.7116317912909431
-5.247451078234862,-0.2766114914193136,2.618428663052603,1.5777489688164241,3.939254752394709,1.540086283950336
-0.6514427397167006,-1.7576128342148571,0.6042266684087434,1.0273489021886721,0.5241067478366634,1.3735929640406535
9.218543356208716,2.57083654276048,0.8581941117800245,2.2595401196326086,-3.056131074776239,-0.24038017078993779
-3.698485214064079,-1.3097756637057785,2.281898741080238,1.3990259350668766,2.2494198021895837,2.2435313776259282
-2.442888465871222,2.59508536085717,0.9118361598004165,4.673962035228579,1.18101903620353,2.0456103052326027
6.567893210513773,-2.7672785543112184,-2.2805653713817597,-1.8106645140925326,-2.031871284974957,-0.18079141613940963
-1.2594816287708097,-1.1062852826769016,-0.4481523487746979,-2.1923791835524233,-0.6661078377098284,1.8747447142999172
7.407714110888795,0.18651904240006445,-2.5611998331154666,-0.8897345860107269,-2.4660097450061067,0.5190174800858389
1.6809325072131986,1.1597294234332907,1.2891399621632642,-0.41551881294248316,3.038676518558816,-0.44082549956327133
0.5533483178132144,1.5993529854840993,0.8883606415828448,-2.4975197299319194,1.0777589350959413,2.8635498521579885
-2.938403886673165,-0.39251135049322095,0.2998048446389401,-1.96950060302285,1.978068267573486,0.29014336764751425
8.903699032645239,0.20030688040442346,-1.9985943978259413,1.0445615666587162,-3.40274610324089,-0.24124575089008926
3.0796569724363767,-0.07255752028698714,-0.1935318324019844,-0.7687582398088164,-0.6450799869531387,0.17083098506586802
3.8802236934716703,3.827967001002479,-2.014642203659576,1.6186245516577156,-1.3278656971457803,-0.4930621843373082
-3.7399110976653525,-1.9204673386412954,1.8500963496926939,-1.0012658423944023,-2.270901272619324,-1.2805655718235016
-0.08700807364616292,-1.5615028457120275,-2.049434431607658,-1.6328368638482382,0.6038295590915621,0.19250508347617923
0.7854206928734234,-0.026409723207244218,1.0777192192895424,-1.3904901221558927,-2.1159073104612576,1.3975039429380176
-1.9325413612976652,-0.10317598908948122,2.0308766279933206,-1.2900417009955985,-0.01170735364217279,-0.44326801787135706
-3.6193458477658487,-1.1016887751831073,-1.9267579283995406,0.05655116730622378,2.629489170092876,-0.7077414587189943
-6.805675780237081,0.7184367905936783,-0.0750258809876847,1.5060667349708048,0.6878493662429337,-0.3653476394136179
-2.0054209789924116,1.1173998590368068,1.9355713893676993,2.8327540933364728,0.3400054427776822,-0.8929134986880023
-2.962613876622088,-0.3285879153276863,-0.7827029385050598,0.35265608658254854,-1.346810029745269,-1.0866916335992944
-2.3796084973421623,-1.9585760162731178,0.21282359500400005,-0.4217277378335167,1.6421148279568838,-0.6398228974407769
-5.159295769584039,1.5613116315378157,0.8260321423157732,1.5941725190273548,1.7874573237413145,-0.36474889873928706
-3.2314134085310116,-1.4443809062599675,0.5949839833751054,-0.3181939575173178,0.5081307391227057,1.1784387917428738
-1.6444596125587907,-0.5127076818188985,0.19874242672002618,-0.4778533046973401,-0.3540183350037758,0.8127004686499448
-1.2061681623947824,-2.269402111648735,-1.3134141703059066,-0.9316562091369045,2.8572423464691017,-0.7744029433333904
2.1886950468614224,0.09488217856328784,0.233022893311432,0.012722487078400846,-1.2128694461928156,-0.7380273252622416
0.05344141610630526,0.09280254159807155,-0.3119684747459046,-0.8743251305591422,-0.7173555849180309,-0.6881204522252491
0.2617965508871718,-1.257309716505568,-0.03437085249813521,-0.15242017468913538,0.4907892191268708,-0.26216852443685124
2.3333422308439653,-0.6249147935870507,0.6923616983845324,1.7657673284696576,-1.6542268876499517,0.21060459402947568
2.0677524256151547,1.9438946328610072,-0.16008022006079825,0.35734824022874356,-0.9029895844629294,0.17155013972256905
-0.46268775245259675,0.21937439174671525,-0.2205829189141415,-1.06339568461941,0.3581315115846859,1.567233059121925
1.9740525436222258,-0.9267358831837047,-0.6540431893656771,0.5997709285778503,0.19101518064054734,0.08024555047136062
1.2556410797247857,0.4336408642406375,1.434635939094031,1.5440662966973906,-1.1792229781916312,0.30974748718244993
1.0843622345839128,-0.3692490653088416,0.11004897250955192,-0.8706067107995925,-1.691214111742843,1.313553756226785
2.9107881389544517,-0.07796613430377725,0.6263320134666204,-0.4276427787738166,-1.5857137755982524,-1.1600258039381441
2.151432166801243,-1.0236217207061387,0.30916056020075855,-1.5573213861585915,-1.0804987402277249,0.1635901632838621
-1.466101103037568,0.2563274771571571,1.0990798967442057,-0.21812492925126126,0.47010437911540315,0.3257494442417763
