Gx,Gy,Gz,Ax,Ay,Az
-0.6200399999999968,52.86507699999999,-28.42760699999999,0.6199999999999959,-547.4,109.17799999999998
-7.472214419408984,58.842443153648766,-24.29246274175482,1.6865746516556446,-3.2166256120841754,-5.274141742125148
-3.664472646016154,63.654738464696905,-28.861515512756974,-1.797440824581601,-3.7834187225126903,-5.755331263426265
-1.1887508021000042,70.86281778648747,-5.350453630202959,1.0843611413570409,-2.9180951024573787,-0.954342427322399
14.850901760604591,50.60431989167894,-1.729496838681244,1.4026202996110748,-3.331358283755222,-2.094230640159035
5.9075473595844805,82.60711393422346,-4.935210285098376,3.3405026458247704,-3.466210133410388,1.4075699680174023
-0.13835546331956805,70.83060576653892,28.448788611449082,7.9564341174196676,-3.583482659182114,0.4593558742834913
-12.417775225734207,26.664886933515643,-120.65479638864898,-16.42743316196155,0.7978692055326746,-2.793796782045426
-10.409646357359224,-4.688804076531003,2.021172509392473,-4.72739150920674,-3.305187685824909,-1.2538902579579296
14.36925189598976,7.004083059389494,6.600022796554808,-0.945309199614879,6.020153831838115,-1.3664511516278404
0.4201918959558899,17.230188568427813,-16.356606075662754,2.0990455790541374,5.01037719863163,-0.6228288677743232
-6.100847305699949,22.242737588218482,-15.227131771857179,-1.4475326626573468,8.147637542641357,-7.896152440175396
19.84711415065309,10.340495382408108,-9.253811224880426,9.46866021857385,39.57787411468787,-20.541563076782932
47.88749729438269,10.140388842910273,-6.650394774948708,5.502703569130033,104.76728300606278,-26.110716694462585
-41.799184915051626,0.5827652156634464,-4.668457731991858,-5.283199425653125,-36.75040882100259,1.929591953352439
16.06500787766626,-24.375965878729087,-35.87516226301693,5.07928594920872,-0.8557874554604905,2.688468285689864
-11.911335151081401,-29.523662276733237,-20.290372647602226,-9.922247580317606,-5.356430905727642,2.6910713833773916
-12.274306998102388,-46.30266478464012,-24.484759735958615,-1.0170255392493672,-2.551571844962379,-5.623250071401848
2.5137902597731436,-11.10220695753365,-28.925609150187388,-10.073562504089534,-1.5957798471721978,0.6416314747135181
-8.096684651227665,25.84259576025643,30.709783527064236,10.928125014457933,2.427807633467211,4.731722490678154
-13.377589243127238,83.58737563459076,100.60467278382733,31.372132815351627,-1.2197300423119004,2.012090338838948
13.424246962849558,-22.07529478098202,12.580395111189919,-20.070842393045698,1.3960518552458594,4.287785774588416
-11.26831794907757,-8.440797352158617,17.628117705144632,0.7742257114435749,0.058626823286132446,3.8033295354121615
10.898512237355574,18.89017992055894,-10.335515233479015,15.679034045992271,1.1123755489694624,6.475020930187164
-13.199507401430228,-1.1594329958189302,-2.42647713573372,-7.151892562329736,17.394384120734763,6.878637597734871
-10.775815914075213,-45.087252756614355,-0.12027252266718369,-9.35466845105033,9.8186422308758,11.46699581464909
-5.57279654044449,10.638728899718464,2.2328881234177125,2.3705430296980188,-2.5755052889310277,0.37094901675911984
-3.385140362147835,27.286224729198235,-2.2118199343019764,5.653752142564893,-8.210829130372895,2.7101744851095617
13.365285856835394,11.39447279259627,-3.8263896495613734,2.4098547141446107,-4.430616991896999,-4.552219988341764
-3.750185256305867,10.368214621982181,-10.33550205727218,12.745895206130253,-10.55643997687562,-3.413330398628227
-1.4005408608157013,-5.942059234502031,-4.412247780284853,17.754511715788574,-9.449707289774587,3.334818167483356
0.9605837701374735,-30.593360442937502,10.327957466701992,-21.862268044680874,-6.0112694328143075,-7.332247106259189
18.411030285022726,19.03406722204268,13.666898731370816,-14.19940768769189,1.885903336798834,-1.0878517448812635
5.241936741553679,12.53908360798202,6.1322743625998415,-6.322767978323453,-8.274557975206136,-3.183415444652221
-13.359786677850483,-50.7441573537988,-16.85036115238273,-13.435840598021729,-0.04709211831226856,0.6093189352458598
-0.311515365297109,5.422866036327832,1.1887317782196436,4.000302311268848,1.534425984555127,-2.1200841276336906
-6.897061556115306,6.423157847096835,11.949493797497079,-0.8526139407370739,-11.80771867869915,-2.036086580094117
-11.209517434334213,-8.492383051205842,1.4197525138168827,-13.047951004619186,12.73061226912964,-3.9074593478324884
1.993333038688415,2.735944223718224,8.378950412491854,6.319270863830299,7.1780087249989695,-1.6046917831189966
-1.3661832644837562,-26.18855968720263,-1.0170618204660173,-8.235049274281568,-16.993929298642993,-5.167303264756752
-7.956941906522167,8.73628923220236,14.719856300349994,12.554868741081341,-19.18780601769947,-0.25527995757292943
3.9430070616084127,5.778810490760543,3.5707276858289942,-1.466939197313511,13.715400122313348,-1.7506931954018925
2.2091723417804254,-2.7601665642399444,18.636616680265348,-1.7893251985783412,-15.689571603464788,4.703361599534667
-7.1544623073526195,5.200696015283322,-15.70590851801691,12.516908058355881,0.5834383238356247,-1.6865999804166723
5.203647303808372,8.317811956735488,-9.40999111428296,16.035510174135215,0.9289014579779158,8.040732414966481
-0.9955128340897046,18.87437365980688,-9.976672931346796,9.869971343360254,-5.518720522668984,-0.6335565621107603
19.620795908723757,13.583071307197864,19.207239457660457,12.476682863691268,0.4047425691360944,1.9132626082390716
-2.173722243497389,-3.923636742772705,5.718725533122781,3.2877311283419894,6.798917383737398,-2.03736616668257
-3.7953522478810076,-10.473978689312261,-7.084368657411902,-26.890775110724427,-5.078967327690152,4.805770055163481
2.6410133572887378,1.4703601575956116,8.608652768707735,11.11697197490995,-2.988618351395374,2.026469925093167
7.806869195346133,-2.9895520380242764,8.068168837085183,-4.945438155259947,7.526846410906491,3.740662192671976
9.816536340565097,-7.973886291154131,10.238492635943174,-6.8424415154051115,-2.0228836525138663,-4.164166291006975
2.4171795907320703,6.290514769661977,-13.016828227410004,2.6558384483905093,4.5113027649352215,-4.714987273191173
2.744428468936258,-10.755470174677445,8.073058179499595,-12.234950524635236,5.986630244977988,-5.276923525162424
-6.3586567948565405,-7.897917423595135,1.2907189469628517,-6.359588414622964,4.4719690855118195,-0.8436866493330708
12.439527387240087,-1.678670427249958,7.419747985708862,-4.611896394724902,-13.056517386286238,4.161550936125921
1.2763184978385098,-9.673795253428894,-0.9158785121209827,-12.974716637139965,8.742744088581313,-1.9096002323357844
-1.7868890291359971,-7.018173507584278,-7.466079708125957,6.274872098542383,0.10870268731150778,-10.006305117232165
1.0477268764962429,-7.794618095314817,-2.0376837933279575,-12.092412053632216,-2.4097148084131113,6.285474260663487
6.348199736232128,1.861918800321774,2.2774023892364212,-8.560904868128777,-0.38976514780434846,-0.03932369326544638
10.479768030870824,3.6415348448869027,4.30275707678444,1.5820344506735062,-6.194017522560613,2.8442726169250365
7.766370404244191,5.680774050396208,0.10165948198214014,17.513120080114717,-2.5286706789251077,-8.020345064772373
-8.549686053935462,-9.642486204586477,-1.452640499024774,-12.85813583213984,2.80462006960135,2.4994105528238464
-13.471483218254402,0.9395778242339277,-1.396656965987905,8.261248806749903,1.1394641630952735,7.430094803046125
0.610782080732843,3.641508767133971,9.217332344148584,-7.257503865123681,0.7801720476009364,6.811984169865076
-10.271752650588232,-1.4744852411048708,4.0226267654911005,6.015606931291543,-3.2273495264444803,4.950390703631438
-22.455462286771283,11.566990744832435,-10.301620295820939,11.517281690637331,1.7186456277559587,-0.7846134978158767
-15.704927649650493,-5.761086022731827,0.4196413244920914,6.157111076540382,3.8044736087829385,-4.317737362028961
18.01336247116349,2.7857328660953087,-3.370868582103038,2.8573801092935676,1.4740440794057135,-9.969984231297826
-24.0974424360118,-1.865556956020063,20.816271631555903,-1.0461765044115308,-1.5695510068422083,13.674509369281786
9.647172756618788,-0.468915542925207,-0.687881436347101,-3.6963057914397712,0.876630203937316,-3.9326868531091486
-7.351325596671289,-1.3902237266475939,-5.247989967272293,15.567841810779536,1.8233055550883064,-11.184840110482321
-4.129438956776207,-10.54752707560625,0.014301676871485647,2.6420728057869467,0.8797664989178433,2.385508014550193
-0.12567397429437988,-2.6623446457323436,-0.7228288306001698,-5.548303304916267,3.5350015060133404,-4.490965245259936
7.857835552838361,-1.5220371420836272,-1.738729321978768,-10.365267092984261,-2.6097757153752994,8.850626321777334
5.904812556732397,4.639290060885861,7.41629707659582,5.876683110656186,-5.944939514914484,-9.569072714554316
23.35221422242651,-7.834018773862014,-2.500723976312944,-1.0924256718391465,-4.759207815225191,-7.637267402732804
-5.372812420464677,-3.1872788087365267,-3.8537504831597316,2.50384868231999,-1.2247094351423866,2.4189284792127643
22.977356559165333,-3.6431634616039563,9.731299282070143,-10.539256323581174,-7.462870986717011,-2.4984494291959276
25.91497698924675,-2.86398904494507,-0.5133345593289129,-7.187800689745504,-2.956371515171191,8.483973085983504
-5.823820498693956,2.5440918581814604,5.643973179153568,-4.870843215732651,-3.830522978475661,8.62188047401834
-5.833731784001849,-4.811962286711163,-6.636179660268724,0.09918234581681862,1.5950470514816333,2.756318509718376
18.516976293961488,3.169545075048623,-1.8760957658878472,-1.0531237360978247,-0.2685286607361679,-14.511469438513735
-7.499835395777383,-2.7819909874723967,4.885645704748674,-6.19602585820247,-2.9227605185358354,18.93232007951981
2.3044479060500898,5.111056717554033,1.355096159557736,-6.342045057235655,0.7618987645612172,0.7397398589353457
-3.661590292219103,3.3701392651733912,3.9918458535677113,3.2758781156068633,1.9404195554961932,-1.7591951041864604
-5.414630058799801,-5.57026065898314,-1.0952670568590561,7.360264605521823,0.4605045328269741,2.231692910642696
-18.825904721043663,-4.1384887331825775,-2.6879165627383728,3.9268078075709996,7.447604077487213,-7.90899021720872
-4.778876705866254,-7.454243592763128,-0.6193114615545603,-2.8664901478515366,-1.6287905092363384,12.023040015104087
-11.304664787503606,10.340808733015454,3.7986642668917914,-1.8517890202570637,2.2393233818846543,-1.1379693481236521
-0.10440293412255675,-8.031114790399684,-4.701733638274912,6.787613753165215,3.978528458754406,-7.498493964194312
-13.391333740154785,-0.8013262635744651,0.16601898866318265,4.881076789216397,0.880963947421614,3.511853973646266
-8.268615990117327,-5.973401519338193,2.0158960718143515,2.243689277607312,4.548093773132416,-11.95642096449923
15.158864617536436,-2.2779815190851576,-2.161280056602642,3.621046383976798,-1.3327051084086912,-3.692694184704665
2.7209231896917148,0.15837725618276244,0.9086740064682222,-3.439602316354508,-1.6240522172325076,3.5805617777711802
-4.818920271112554,-5.126313418326273,3.513650166205127,2.3281205735775807,-2.3071207310406487,5.593779694121543
8.44537670858107,0.14115203716233915,-1.1720843835969332,3.21164673208029,3.417630881327289,-18.131666667509737
-1.0186516929157658,-3.31531543482184,-2.131398677941434,-2.1759531127067864,-1.9716389421743021,8.593762462431648
2.947563029367336,-0.098329893814463,3.1459031070813737,-2.709889775414251,-2.2111347131176515,-2.3861308710184392
8.75938884218437,4.917282042805664,5.050171849961695,-5.425724098154506,-0.9806901868986027,2.9048995325389217
8.814613712992836,1.6186750809827197,0.09381373402760802,-1.1673396531365714,-4.591436601050365,2.322637850509582
7.7690065783741415,3.1516849127280344,1.0174974116675557,2.402657730645653,-0.291577658723434,-7.348723061811748
6.474079312878722,-9.480818137819583,2.596594760157469,-0.8444631290824152,-3.5734051283517516,9.04063847875201
-2.4592082963852144,10.855679267577859,2.6877902464352705,-5.929460134789939,-1.9320509739027372,4.172536824655489
5.945592445378679,-3.6160684808261836,1.986242019588444,-1.183164764762254,-0.40525785457918007,-1.3141263866689097
-14.12798726716378,4.9526710719860265,2.4341940440576932,-2.3232495658764676,-0.9072281228895775,12.18417722792554
-10.63880851623093,-4.180738611016358,-0.4504540968583136,-0.3213055347650087,2.6502517636213283,-3.2051191176115332
1.9929551476669196,-0.4809159010110111,-1.255369507734029,3.0675289112777167,2.4604182544358606,-3.445464417149114
-5.328298931916399,0.057942990937033034,1.5240753986488744,-2.018801650211591,1.7569035715698587,0.39709313221708953
-1.595509650578812,-1.4244760267691037,3.101013717314259,0.6151537848899957,-4.718073860184996,10.516599418262993
-6.4182595837626275,-5.096454896230182,-0.21348437558819366,2.4763575819638,5.855304610084248,-10.178135277944065
-6.145613453469848,-3.9046969681746475,-4.498478702925388,2.853323263244803,-0.2431118303759956,3.5792270328755054
-11.584922008139955,-8.265769029497074,-4.402610289605755,2.64959896520605,4.591542460248346,-7.855015925006954
-2.5961668747299482,0.11209250743842769,0.6593017364717224,-1.4485467122303526,0.3760673319677397,2.458112960199614
0.5298673987725465,-0.7407599104586313,0.3929722313725227,-0.3601667955790509,-0.007127304060995154,0.24464042981384393
-3.2765183043808213,-0.5670953039938156,0.04093234858571515,1.0066275444239206,4.582081968057443,-10.501986977472686
0.6937790228330281,-9.499834186670556,-3.841290674450959,4.462408045072745,0.5426193821929022,-1.4863676693489678
5.63972024264016,1.504735596425981,2.6735366449453952,-1.7711971051772726,-3.8043066089222313,-1.1206568684642748
14.028113452738092,-4.639727900624788,1.7473969519951242,0.26911209193316654,-0.47980398577949684,-6.715634239023523
6.166946721891302,3.1385185389920682,4.155445474492222,-2.998900970660796,-4.889349908779616,8.162961841771354
-2.0049062683286536,0.1871019025793716,1.2805101872413394,-0.6956685945284254,-1.0007035674686382,-0.4790293515542207
5.640829438775855,-4.058307278994369,-0.5408483073465664,0.7009447768928463,0.361702139157312,-3.3974940560074396
-0.007900565213111665,4.799964719184754,1.6837636668560907,-2.1261629968806157,0.2571278006762475,-2.7734037619654854
13.629560565541691,3.139412476269655,1.5244536400205975,-1.893449088917944,-9.475860371956554,11.57488189014205
1.521341315049111,-0.10492979731371482,4.537870433835861,-0.9449840668052958,1.7100010194865338,-0.6608670244085061
5.4788618364244055,2.894196995721441,5.2999243955373885,-3.0935885289278686,-3.198200539932452,7.21422714039102
-2.5256227246356193,-4.051608232573087,-1.9446645641004414,2.2906715189176037,1.0351250229275184,-3.0629802183611736
-4.041373619161416,-1.3964046353777475,-1.9289127259176568,-0.28066880363605995,-1.8079586972655988,6.383804630617614
3.5717764324133334,3.338915623384071,1.4527133947179105,-2.0944585661734605,-3.24298685797962,6.212046415057291
-5.686033957204657,1.6592608378099976,1.8397542139419687,-2.3594561532399427,4.237458142801734,-3.154008534219026
-10.323707857969174,-5.3460908005946255,-2.9925547366106553,3.1810018302720215,4.409890280247248,1.0391827479633768
-6.065052033456479,-2.3573952996453413,-0.4894075114629526,0.21982932334192506,-0.23381240161203487,1.1618924402429696
0.71875673420951,-7.197263611423853,-3.3800679559538773,2.929762427475648,4.362068490076759,-7.109275332799124
3.0554505181833065,-0.03413561172585711,1.5348629891792167,-0.24143220824303993,-1.7903784847804531,2.679613708293646
-1.8554427171641255,-1.0005686693432767,0.057873220022426564,-0.11469596680161409,-0.9825049180077645,0.5683861380585477
-1.9823577340337493,-9.279304897136566,-0.3082103943471862,1.7155104160206551,4.285805453454506,-4.224699990385711
-9.52227126068213,-0.5940208166263251,-1.4785989112121154,1.4881889087470301,5.289729864132123,-10.155854298486645
4.200988704170092,-0.9300823353797936,-0.8668224251844396,-1.0561472237924239,-4.443884196932125,0.6283333180110964
-0.14717576441252755,-2.4601963346112807,-0.5610042677595896,1.5279751267140074,0.488945091789197,-2.2911622430113696
