Gx,Gy,Gz,Ax,Ay,Az
-13.880729000000002,-0.6962110000000004,-5.4336899999999995,-3.7920000000000016,-535.41,-9.932000000000002
-5.793602784449577,1.4846355746406714,-3.3640327649775466,2.2855050808032837,2.552212766264119,-1.6254395153589254
-5.1930217340418166,-8.014017446767669,-1.3252056704702726,1.6590885072752863,2.508735139827248,1.1432443137342703
4.865918680553637,8.547034447251326,-2.4726376158735337,0.6971489117219034,2.1585314090928636,-2.339709391153575
-3.241761775622807,-21.673158702336472,1.9927833888107742,1.9724388563835151,3.5479736236517496,-0.4883649067743464
3.079594589118498,-33.76985821072917,2.834320091085477,4.868552701175497,2.0874393159083735,1.9689948301298612
-5.852546397047885,82.08755636730845,0.30732016129390305,-5.664956645433422,1.3545858616394424,-4.225062347483095
10.865236914235817,4.719236010734366,3.821816303112942,-0.8305159859505441,4.6426467626666295,-0.7816039686364045
14.00055464808408,20.909181558138076,-0.6400685535299884,-1.570362533223949,2.374212940238606,-0.179963405795533
1.6163005129875896,11.629761797317084,2.4056438896485126,-3.5764436390106464,9.417967454497894,-2.3434382909960174
16.423008516907387,24.46040366516806,-1.5866993981639965,-0.10502235625686362,15.400240268068922,-1.8625879170858395
79.47624440631648,12.009746423171665,-18.075866692174557,-6.5096103586711465,55.265324424438745,9.864956182947754
-23.70100558494876,1.0966625412010913,2.410450836643923,5.0592144381787545,-7.959292172467236,-5.413803747917957
-12.279784772911349,-19.70514434360084,-4.658033935572452,-0.005694329951504873,-1.2900205851359035,-0.9310941695627502
-11.169250806338093,15.829229891075583,-0.2596421643666238,0.005962071790474033,-9.6147520124833,-1.827430128721192
-8.83072949399946,2.8869169857999646,-8.568263994632321,-1.2550389597081797,-2.831765497166147,0.2154997632421094
-1.3121444135622056,11.110913469612251,5.1276689434575,-2.0622465477412697,3.0952021624458284,3.9667477256490518
11.91630253325362,11.700282361130544,18.37554615833612,14.102597858768249,-4.840164108651002,-1.8033050594629598
-1.0503121778197848,-19.33746838099716,13.363811724734685,0.04920653391225793,-2.3274636298510956,-0.3502373782496006
-1.255305465046896,8.983793485750171,10.15737071406452,3.47442176193832,-3.2351140859128384,-1.764706446500052
2.3777762163753993,-20.41054578075093,-5.979058559254492,-0.02302190657182912,-1.5748653353661837,4.7287850338857735
0.5983433570030208,-12.434674953403436,1.6096712708618477,-2.5564955337076394,-0.7280131323342989,1.1913103184251461
-7.352907343209451,-12.541003767973073,1.4416578926609718,-4.259649118733162,13.36302879826392,-9.612336292666658
2.2696866527246957,-11.458265180006501,2.76415385434297,-0.6959542914765602,-8.256302407692619,8.071988416912587
-0.15594545671065774,-1.5341509561409976,-1.0139015121863113,-0.26132602162070917,-5.1157986419925745,-1.1349936303839452
1.0061349232860337,0.3580450658076808,2.485114637578895,2.646121741031708,-2.94789297186248,-1.4291128127274089
2.992655752956316,3.9982990777869993,-1.8759665683472597,1.0791867354356366,-3.267780299225848,2.1857733454758614
0.17121775908399284,-17.3851142715979,-5.759316691646674,-5.839540925976461,0.8555123511587013,0.2928037975694553
0.29798050987081326,27.54508098994701,19.24382541377969,6.25613247683142,-0.9285341880804185,0.99580096017729
1.177619487928593,7.005288763780526,1.7715846145265688,-5.210342981148481,1.0762713180546446,0.36852710144073664
1.3251311845315343,2.972744367108847,4.75768655568751,-1.4579398865113067,-3.6432995010006204,-0.3316704603557667
3.058295468445429,3.2234284983197172,0.2330202248528752,2.943065614494316,-1.302721280997492,-1.30168277065605
2.9380637717426197,-2.71295610438784,-0.26113524806576116,0.11316708986412571,3.1140367456457954,5.053510675602866
3.6516199747318683,-12.332080125772968,-0.1229710634730683,-2.483502956860436,10.020520495299579,9.933393658591797
-4.359620932688854,7.747551148925651,-3.8916950667733383,0.5804455393085293,-14.413149529104093,-14.468246057949482
-7.25309505995668,-2.774434600670123,-2.4107847468831487,-2.4760482403013344,2.8003122505191156,-0.8814516089755342
-1.9158910525527106,-2.7355327731351284,-1.8138320436220503,-1.5371222089727565,-4.092412862764924,-0.8976294188770798
-6.39202260367027,-2.519698716987932,3.496609166739376,0.4629915875604411,2.7387135504851585,-2.3553682501793674
-0.48422682086116153,1.2191300758948165,-0.3952088661965931,2.8583517139432093,0.6125716676898341,1.5295673632256728
-3.3981191031766205,-8.283900675926159,-14.518876943034853,-11.23277469497647,1.0438738598191426,1.4266917564120103
-0.5335402554414057,-4.297903202882047,2.21589057190932,6.732482444738784,-0.6277948921396188,-1.041583017989404
-0.15932453445440187,0.5537238792248391,0.3730518373947171,0.1945752834035943,-0.15596855850604752,-0.1956876777897869
2.0150272669349016,4.73913603045648,7.023368337555376,3.060049291242877,-5.4406186014839655,-1.3285605003409626
1.8616144568201443,1.4673604036365284,0.9756826749105988,1.9551618549644099,1.6190475162699287,-3.282479305545987
-0.9357485708352953,-2.6658932038979497,3.1740188505524234,-2.688995733755702,4.148481493483497,-2.416681200924247
1.6500530575316676,3.604901766276547,-2.078041617721774,7.923119091046955,-7.633805640296291,8.37549816288457
1.2385702121573166,0.07684299763265146,2.6706113460770076,-0.02540695158977324,4.058116911739495,-1.4994837723623484
-0.13482396817376352,2.4487126574201232,-1.2325172585138282,-2.219402724486259,1.50344081028059,0.3004567498352053
-0.22008196983364114,1.1643682657003969,-1.070829769635742,2.8778754270842892,0.1700383744031213,-0.316096919137521
-2.804001271985194,5.240732261450991,3.2777401079873307,6.188890342721795,1.8413935841485651,-1.9111651384957402
0.9912552354713777,-3.0310136838724655,3.433556469316889,5.395388503218727,1.2636604468827113,0.7984205796392086
-0.18492256106304605,-0.1799279358006789,0.2870930938789913,4.539538853495829,1.3360385645085584,-0.9771637121276964
1.4581564836868148,-9.026318737832188,0.06793109912210132,-8.748717309253717,-0.059054444152384256,0.023605276316287394
-1.0927151731609785,-8.189419569583759,-4.811228990951591,-6.826074986661209,-2.433093934698453,4.47889291483764
3.884955824598649,-1.7824557411777042,4.809701698522423,-0.8424407276161601,-7.087825678820849,2.3423381575669926
6.819797593519219,-1.4253354233117919,1.5378234942118862,-2.0015809347810465,-5.067078773215624,0.06253191698525207
-4.482417830694786,0.37170639336832423,2.3111884225362846,-5.067787245252663,10.749951751727913,-8.145843439433182
5.908507875701149,-3.7905445772429767,5.667444571021948,0.49054194205439927,-7.613758765732163,2.635147134019092
-0.7236956696530268,-2.710836679968402,0.03515622786733985,-0.6569653282985137,2.8113050394160912,-1.03750652757279
1.469348991759011,-2.1109776936428917,0.1853437721349649,-2.8195007742152627,-4.23946953863571,3.192410103502912
1.4063894105244268,1.1322927685061384,-2.3862035396276102,1.3981778052732046,-0.5556832297723537,0.5279738229496825
-0.7262479877578507,4.354570905206881,-2.3996897816011815,4.581736865326753,1.7904074998480135,-2.925055014144112
-2.286722219312498,-1.7264030314181886,2.280141383563397,-4.372303278981137,-0.6554810622472551,1.140324433878151
-4.007734196996346,-0.2661792409712411,-2.8632196612970304,3.356766394252393,2.4315261836627684,-1.9485547667175964
-3.0069711546976166,-0.7430456567771699,-0.2964572215397615,1.369844695017554,5.99233601344987,-4.02400045594656
-3.759856959885251,-0.7358819902844576,-2.3935985810340354,0.825102994252314,5.65514206691126,-1.8488639879289614
-5.0884103930123405,-1.7177559457563403,-1.1340862773002365,2.461720876338108,-0.6000557658178335,2.0232150764783046
2.8314518768324213,-3.439220629648129,-2.497271312565566,0.05113441821818476,-5.831343114709018,5.515827501400231
-4.047265519840238,4.410441493520386,-1.9740558271010211,1.0320662811944703,3.3525721448685633,-3.382291704715409
2.8605544171945345,-2.1488922254769705,2.159719644821694,-0.21936626352117894,-3.1001342893049335,1.3428660330390363
2.8846255355356294,-2.0308401300673076,2.9167598542601803,-1.4817794937480095,1.5574821189174886,-2.7300111644540377
-0.34062756750602796,-0.9514343799379289,2.250648606523442,-0.8587142549299428,-0.735537428354327,1.4085404949361093
-1.013527122732511,1.2298391425003954,-1.054011923583859,-1.4858591659154852,-0.35625769397221063,1.99105502561447
-0.053010798126479464,-2.6254405359539876,1.0787661459640643,-1.2653032178001067,-2.10588851634576,1.3761283820524173
1.6641834968791436,4.151596767451904,-2.45426230934059,2.268906301324243,-0.39667388970376316,0.9996590824503659
1.709565567210973,1.6281996951036442,0.4904837273949356,0.33636861189461265,-1.8073317562276234,1.1930614989106958
1.1994237400234975,-2.795539604190534,-0.06789768718696221,0.5536014599082624,-1.6641255972629057,0.9388411421964626
0.859963854005039,0.6096747223122552,-0.26141936486372463,-0.8465387819262864,3.636649866929104,-1.8748196641591512
-0.8155797020533595,0.7567146015668862,1.2912791815866786,-0.37115551059963736,1.509320189891863,-1.4157616369072155
0.9148328758884725,-3.196437539071662,1.2208362880058123,-1.5663393118368136,-1.0798048984041086,0.7680585281109151
-2.7426305951497105,1.7638646162760254,1.1017432484667966,-0.2713013637471613,1.7331257066931012,-0.9762921875345403
-0.0035272889394905027,0.884288854681146,1.2788524143556796,0.6648167095715044,0.0662846752819739,1.2276174639351098
1.2446499188576763,-2.5885864423380087,0.7130954034935886,-0.2523059310923891,0.10658769679100866,0.21060498051154758
3.7189844961734515,-2.053264135845847,1.0037224138567133,0.7278258713783692,-0.9676802566534581,-0.3326746727684027
-0.2556976052041481,0.3350319127189388,0.4696546267752349,0.7173950476090094,2.155995862866468,-1.5351700354948146
0.9265783895597859,-4.106131693201112,0.7920699207034763,-1.2077726188089462,-2.256134890158491,0.6333895488113087
1.9003761757244588,0.35832582666860335,-0.8396885710911384,0.18309463527548356,0.07352507343581416,-0.40509588184196266
-0.6961952455404432,3.3895926149298186,2.151671883100482,-1.2995834557674382,0.8106602307500812,-0.87567127158733
-0.4424322096086504,-1.431719324162348,-0.3536990848050754,1.3447105064154232,-1.8941973185565217,1.2415479779536422
-2.786729589114545,-1.5607850276406714,-1.2147572807697504,1.0245871096462191,-0.15727081597262604,-0.284982924639565
1.8528009284624374,0.28276773389202137,2.302777925685562,-1.3468610364000924,1.290653172966877,0.13963055498061544
-0.7278059609132566,-3.3041810111058236,-1.927482730114406,0.8950301690892286,-1.3547856087301617,0.903651966755357
-0.40878553831240616,-0.8358792804600066,-0.5168819592333997,-0.29756369714301534,0.015558284973795522,0.2255486277892531
-1.8998368471596117,1.6604238114549044,0.29969748409222263,-0.7477999933830717,-0.33859133955307563,-1.8308948886365846
-2.5025086607867464,1.3932557378593637,1.1798606176888162,0.39581574784838697,0.3533518005744385,-0.14811097198894627
1.5538119588593344,-1.8685920760974721,-0.005923807865226283,-0.484414606374918,0.2502640254033026,0.9105669934276737
-2.8866210019793015,2.3279222206742727,2.204365601934314,-0.633625491364629,1.2598983442559069,-0.9057955046385826
-1.1260874756382453,-2.5602985607358786,-1.2924212370316237,0.5517283053854078,-0.3574743364324588,0.6809534798762165
1.9743043515195886,-2.62073788242994,-1.5873250181971368,-0.1949232009283146,-0.19162069524789063,1.6328198401629193
2.851774474694308,0.8559387909871485,0.16683908999179153,-0.5752563573225544,-0.11507992366010811,-0.5997244335434613
3.6758228592806352,1.0621557074141805,0.7267674868526125,-0.4043504392493437,0.5134333552763363,0.6302816578343957
-1.6677965568692967,-2.3090859522247205,-1.0684008042541842,0.5851206075971687,-0.5155597081514813,0.6820681670062038
2.668216661102643,1.118887285285786,2.2316479680523007,-1.2203781025561204,0.5853514292429856,-1.471447250856896
2.0330770252981885,-1.2209791519656394,0.34547267532224185,-0.0022268973030822314,-0.6383527705233473,0.1227337241544949
1.457056840903991,-2.178107338667845,0.2733866864732826,0.32117342343213545,0.18904055987236273,2.0229725243724683
0.052120918039546105,-0.27716799117742674,-0.39959563282989363,-0.37524882088563905,-0.31906002520794574,0.30063851038455836
-2.476726921251372,-0.6553370354874749,0.7220434588110727,0.5216162718426383,0.17927494073008765,0.24265256837653085
3.5509909487471103,-2.552817569638292,-1.058041517212116,0.3740932514788468,0.052081420361585806,0.4109033568844539
-0.2490091632321093,1.9206137738519962,1.9632093024190942,-0.848391747201239,-0.6280699417081319,-1.2677883734826554
-3.2608873809904857,-0.15738051236519612,0.7247856636869645,0.3663123428368837,-0.14712648036589843,-1.016904717389818
-3.763584718922405,-1.5910878481468824,0.6935524848684822,0.3977262367861356,0.724464817204161,0.5995526386331929
-2.051712082589831,-0.7118141350303051,0.1198095188321261,0.7160036319265599,-0.37102320168756076,-0.07185271719576539
0.8082378591631514,0.014515562485979405,0.48498006225265705,-0.5014486130224887,0.7097147936129937,-0.5781458921652699
-1.269672806047009,-1.8890424568971138,-1.2198405350061405,0.7556879549097462,0.8131135153522101,2.2666573706571445
-1.0041261637885852,0.5230360637705536,-0.4962135432147604,0.6521374432212659,0.0914421345536113,-0.8387609725054255
0.6449660660119294,-1.225610316997059,0.5086671854301952,-0.3078405734092839,-0.3746740454652041,-0.8632682239451899
1.6369587911779606,0.19590365827253453,0.6896311490759012,-0.3842392397832996,-0.06491594015752594,0.07277093599565537
0.9412242024974307,-0.27031037519801604,0.23884741165757828,-0.4649166571456785,0.0736968506172122,-0.5440175168493743
-0.13847752809711478,-1.0537848304157058,0.32906978604888865,-0.5926810298008464,-0.996082362449632,0.34229091795362376
1.5290438043565246,-1.0656077442914291,-0.20099537017155467,0.6294451522773525,0.8749406152798433,1.0693658534355737
2.3617959041614998,0.7701513260095205,0.516981232055448,-0.6745164892446895,0.7105293249578408,0.1912728885710166
1.8492148875904957,-0.5735951404781711,0.12477259454038236,-0.5713192949722702,0.3474882064926499,-0.4185649855513389
0.06214561362897897,-0.5925232701995714,0.9393843106132008,-0.3151304760127259,0.38840719177039773,-0.2180092091330209
-1.1497974979358263,-0.7272264510017309,0.30700917699672464,-0.292040874496552,-0.9583457154463956,0.7844739322672036
-0.7953154838464245,-0.7592235178166541,0.39734411150638244,-0.16744381166072853,-0.24208242844634548,-1.3426708675776524
1.5176734818977922,-0.42462896729291905,1.0769863623758424,-0.18102632680476738,0.6554625845456221,0.7560668478982076
-1.1986645839776013,-0.0711077730330002,0.42209764587524323,0.36083783591382934,0.13296295395514157,0.39271294670048995
-1.30702989538114,-1.3774403552116121,0.07464775283979797,-0.09766227188898828,-0.40044823542299834,0.693514160178355
-0.31955178453663635,-0.33140826544615826,-0.08656817804458433,-0.21081191714655023,-0.21621813375713447,0.9316383543620161
0.10928975895881421,-0.047810273338985076,0.33017467125120836,0.6580442762922492,0.8263804334187037,-0.5597706400115342
-0.3588670721884728,-1.8461731820475364,0.4459325807124005,-0.7098515346401226,-0.7594869927834323,-0.126594888346798
-1.1636590931322133,-0.5333994726463891,0.005120137079025783,-0.17611483372075862,-0.40562498242787265,0.29146784090398287
