Gx,Gy,Gz,Ax,Ay,Az
-12.49687,-3.364888999999999,-2.0911349999999986,-0.9980000000000002,-474.472,57.236000000000004
-7.320453529307937,2.4203562137013788,-2.811165098577537,0.8892704127228227,0.9946509468004889,-0.020873983231390503
-2.361834791284877,-14.423243233016644,3.936087705653836,1.1207686391575458,1.050166587010334,-2.149227396482287
-1.1486466183543065,-7.28445153108814,-2.6736385803857305,1.7098625322090675,0.6503403682927671,-1.6230406229077807
-4.590935174935775,-9.948244456583774,-11.005414583999954,-0.3878719193422029,0.920625652183058,-1.531812036052432
8.231660815038142,-19.31527290593703,18.72939188199934,4.010732961471795,1.2782387477469517,0.18529125771668725
7.772390546181061,-8.691727190313959,2.1116846523423742,1.4738524532785975,2.2525065285099717,-4.359061907012515
4.872044366002893,-8.579334193641156,-1.0767941287877165,1.8434868406368476,6.8465067924635195,-2.9720340493144324
14.943302953665347,3.099061437420536,5.096164283930149,-0.9667884130072064,12.969292813444966,-3.196074371133455
41.251793432825195,-18.448574394369675,-0.18650619783282474,1.0094210366294896,55.435071549025004,-15.438332422870165
-23.297870710790914,6.796509738988316,2.5272217491881515,3.221673209689507,-25.78775734780583,8.015336188508384
-5.534470123634971,-8.70551567088082,11.478662424014262,2.811991269337011,-4.947600228114607,3.6281221007887083
1.4930885055065863,5.212898014544841,4.1235465251824195,-4.1764756486745895,3.021592721646801,1.5179130340212783
-4.7975028955264545,-0.17631068327587662,1.844719705226526,-2.060205006050662,-3.02872440410235,-0.15060893179508794
-11.877137228255236,-18.52160685156487,-96.03395149057357,3.119386735301362,-2.707170709281086,2.060668299743544
-3.9566107637355556,12.486888613661849,0.5407317302919045,2.6631140277242062,-6.973384191161587,1.356145832991178
3.5093500791927883,13.631080476273889,-5.894082019518416,5.556195886118172,-5.253557227147744,1.010307199850396
-5.959158707616302,-0.2837760688943748,-5.390858447818543,-1.1115395215155301,-9.79067663682062,1.2902076998843937
-13.834225118159399,-3.141212262436481,-0.7681264799186875,1.9837622877161882,-8.153141083478452,2.4300606779836205
29.42200688876606,27.401499098209186,-11.425916650451661,0.7858154688075725,-1.659839033871712,-3.3554062390843145
9.770748219050528,9.261865660645114,-6.335149905490861,2.9210564159917354,-0.9780676046802665,-0.885819439903641
1.458248496768044,7.194689026431778,-10.171660409128002,12.732710577187168,2.216478627135555,2.1155527307883037
-0.26756259504297386,21.88491681759357,-8.345713839299233,12.13805291370523,-0.465054795290878,-0.8141993126170454
18.757810628620632,43.386992242755426,-20.390900119141094,42.83261754448533,-7.219525749081868,-1.9067460375550394
-11.767519879270022,-15.546292819418895,18.043407149620613,-31.367229583208605,6.5950000463417044,0.7748300462265092
-3.0744050060847687,-3.398585229472239,8.01725095137581,-9.253306608900012,-0.9233614130979427,1.6472303711148837
0.9191956061431472,-15.836753802922647,-2.031071919151032,2.043222877425333,2.849414781711097,1.7339495687072808
-0.4380261331587604,-3.42619920918186,-0.2089753419610263,-2.433508438923073,-0.03390360339618609,2.3423420578223566
-6.25053195458637,-5.522094021822391,2.0582851063362977,-17.62337113398798,3.6893090795456525,6.857393791717934
-0.02893876413132357,-8.919778044269693,3.983833169987297,-8.242131051273304,0.83934286507416,0.2776797101133405
-2.6173634528636085,2.2659701063766358,8.778238691061725,1.5909770718158374,3.229729958231749,0.37580410815532106
0.2686876132751114,-1.5727664974937767,0.000817413172460979,-6.856511047426624,1.2695567594185684,-0.3720176757866404
6.206318461917251,1.4853664845062018,4.022630757489345,-3.574125580652118,-1.873382187749999,1.8963555424398608
-4.737864157442946,-9.226486519883089,-9.007825950657349,-7.179989876537508,5.357801772578913,-0.4315636625668354
-5.361048863742081,-0.9742836028529355,-5.077938737459569,-1.4432894214616565,-0.26565218232457205,-3.1575247561012327
4.237255500252999,7.830302843994317,-3.0896600853940646,0.15742031016389563,-1.9569515417091063,-0.5495422702847307
2.4725054355742486,-0.4191043205408496,-2.108398307012826,-4.112908112096452,-0.5852047500278323,0.013162884911071482
16.007545435813956,-4.002967540181726,-0.8434674802797164,-12.576559630038457,7.922649981558861,0.1623910160709402
-6.15522366923689,0.9350238258150535,-5.663445450113327,1.7234038808912064,-9.973680972530577,1.3592955598411829
-3.3734900359698443,-0.05771431405233274,1.8482264918311588,-3.796440160674788,-1.434975649137711,1.068841295989277
1.4413838973359776,6.052221081599226,-1.0360958830353364,3.322612479834454,0.7560010111218236,-0.502888346239238
-3.5083917295000138,3.7328044602126917,-3.3111194823989085,2.244289435938131,-1.2484092375304119,-1.6330999122584253
0.9727337678921205,-4.047600429841788,0.26299611433699865,0.5751370098608293,-3.33987143836021,1.2470594170286629
-1.3605066289649803,2.056160969662184,-1.4210066514652655,4.643397746298308,-2.3177777824191605,1.9267042561767251
-0.8120123670699045,-0.4659543458608414,-4.147824322937332,2.365326399985153,-3.036456202105152,0.15244214781949605
-2.3851701649579686,3.096372846910378,-2.75675247048402,0.35278994001295483,1.0251031429335913,-1.5168872771401978
-1.10313099841402,2.2372389821971694,-0.1613320059535608,2.141102999280964,0.8028744054167325,-1.5671853249148588
3.6004718541712712,1.6972682969291777,0.9956147332890889,2.4227106270300487,-4.652649187866787,0.054749612382980456
-0.03396654966228907,1.2108740091742989,-1.6602645358265833,2.8551930424011416,-1.0507031789337629,0.6646412396037276
2.197495329019362,-0.39708600355490364,2.516682912490341,-1.806234713768808,-1.7731278310701506,0.5442810444932517
0.2704915410194449,1.2064812068727107,1.5137424894245952,-0.6086020187214924,0.28130861179443994,1.2418564723957664
0.5099700890058507,-0.17450212986082803,8.049245059426294,-0.0077476841436290855,1.934901997019585,-2.232820396774783
4.136305042847053,0.31687950030772405,-1.5479140104007294,-1.956606390617398,-0.26054062981741694,-0.08663112648885068
-0.48363794229720136,0.8066068461212119,0.14277702602145292,1.833509761722305,2.022822342256765,-0.31323587940154846
-3.4208694002023288,0.22844623664176655,1.1444587328835083,3.160674860994734,-0.8830827446546603,1.694411630914863
0.1909546738726109,-0.5688740751614556,1.542996836162942,-1.1903711215818433,0.7801184153931743,-0.24714634508267952
-0.22399395055460286,1.1259764277999207,5.289840460117494,-0.31400982843551917,-6.050156523341722,-0.4342410874594265
4.999524620651577,1.1807352091065593,-3.7255807718262597,-0.2547078894778323,-3.3303140768617343,-1.1996130038430404
0.09389933109805204,0.149842924540196,-2.679211289882587,-0.7719501635537365,-0.2851903064925829,-0.19836127569396822
1.5021811546048305,1.589407779979564,-0.33939583691716124,0.8814795177943839,-2.5963496700721973,0.9431786034547078
1.8523490761195074,2.2057460258538457,-2.9597390202986915,-1.0149474016201134,-1.693451660040605,1.0144478348960018
-5.626474439395118,-1.2838435096465093,0.5616386166650891,0.7301512606114673,-1.0888978441611625,-0.2610525960299258
-0.08921018787887736,1.0925356845650933,-0.1455592140347628,0.022869035164198026,0.44173418771976913,-1.4815415365567133
1.6280755797691326,1.6491040644046104,-0.24504142165593112,0.9611330495084371,-2.0307468887238658,-1.0397260316824037
0.22052979067931489,-0.047117156782950476,-0.412638472543416,0.5586061174637571,-0.25128321820940835,1.0002090600035118
1.2146121924414115,-0.2094938823837042,-0.9727962641219635,0.48671098554794456,0.28733423973111605,0.16731540220268182
-5.748446619015999,-0.08416504955152393,2.6926585119871675,0.8778025595017052,1.0887287303956195,-0.11235044178570089
1.0580188418564365,-1.1405060958512117,1.1430267857649847,0.22113943410303927,-2.49259220551333,0.1106842854431263
-0.9722145721575028,1.4739404391056368,0.010905084732489523,1.3666371079404795,0.11323284272843526,-0.8789652225555595
-0.08467722917970635,2.07376566743958,-0.8547837385990846,1.8016917142512927,0.7280702941288731,-0.16707004899151845
4.146242100377813,3.4763032313727655,-2.6483379452315656,0.6113238224069353,0.8633423846592166,-0.46575247133494746
-2.966122866339234,-1.3926022815228727,1.0100234266234973,-0.8239626506409139,-1.4071967162986705,2.106239798577362
-1.7442987303127002,-0.2568490090715123,-0.740373055020406,0.23841215691888884,1.548415631913963,0.026093553889666943
0.9698028135286929,1.0568690972605577,-1.4991810046300946,1.5109219447176976,-0.5710618400018452,-2.2268187433720485
-1.2937032134766175,1.4224667906698993,-0.5335637437974992,0.7588150269174392,0.6316749885283464,-0.24971906230138335
4.023000088188582,1.839767521349673,-2.4759263200092763,1.7061933650597552,-2.135544647585011,0.8031211525303797
-1.3479777119638894,0.5948102058387201,-0.9052703920864655,1.5632779789155196,0.012005915426037572,0.5065327155028554
-1.3970150361272022,-0.8087214690221032,1.2206342468342335,-1.6094025567676342,-1.4500998901381053,1.549193171432825
-0.3553937385938184,1.2274953059656073,0.30417488068738224,0.8152725993210161,-0.8210081233820574,0.5036735926941043
-1.6238536767763696,0.18492415564743703,3.3368582134426363,1.326319233477484,2.2347842213239257,0.2862798686104352
2.9427974999999993,1.0306310000000005,-1.7284110000000008,-0.0129999999999999,-1.3920000000000043,-0.8410000000000002
-0.47758395692525824,1.842875831163616,1.0858683545312304,0.2844245792956146,-1.1701679348106924,0.9215827908258141
-2.538030542887268,-0.011948177778300817,0.2871081461793672,-0.22456963863235502,-0.14335403617015152,1.6793896472572087
-1.6739983878099949,0.9139694602541207,0.4464403385571216,0.36783370990427744,-0.24309589219106031,-0.2916489430204605
-0.7770144163592306,-2.558188347337639,1.5338403265311278,-1.0114644797059014,-0.9800406999871429,-0.12867207670685699
4.255941546928421,2.3431739248277625,-1.5121492619366714,1.2511129865768134,-2.145783990253612,-0.984798435295456
2.6230024348625793,2.0715533907979897,-2.779479757238199,1.2640967437047457,-1.2269157472567418,-0.8900648825831929
1.612043994955906,0.33978050752602584,-1.1207213482671299,0.5878449953802627,-1.268633141994279,-0.11932043369265966
0.04279944442354111,0.24976162867613683,-1.9377058201869084,0.8210214450038904,-2.25997441811389,0.012583987583444145
-3.3812978965791567,-1.6123999262678783,1.5413173086356986,0.6301475659767453,-0.21109221996282046,0.1854097246112265
1.4574700516726997,0.9385640488727822,-1.4332947657627262,0.380349089098164,0.1801490999317008,-0.3911083037002807
1.3789271938877703,1.4228153479910723,0.6255316446256476,0.35037310694537305,0.010258382636555652,-0.21392720348537292
-0.2841467069207928,1.6555028390452093,-0.3933041043955159,1.25717039719297,-0.9911709039975626,0.4337845663894355
-0.7060091638306971,1.4881850321639707,-1.367522834600811,1.3212660176365076,-0.375375269418908,0.1478905564250408
-5.062460314183376,-0.3030771186806245,1.2841016244939825,-0.05240567542933389,1.688825827526336,0.4877743403416458
-1.4743718117377829,0.36392310074462597,-0.28016914138047766,0.046554674950709,-0.719320775913924,0.599433350062016
2.128908413523436,0.6770561885637058,-1.0952804753152166,0.6808378407287371,-2.8864159547611337,1.0553432322962024
1.0147071607530807,0.9103034945454976,-0.49873584462367687,0.393737968927504,-1.0083803717700288,0.4452225630853358
7.798512597715552,2.7772157049329462,-2.3527452559328896,1.223413643267731,-2.719825473083624,-0.6765086968751741
-2.5150876691654487,-0.1905467981524147,2.024839147790006,0.28091009584673166,-0.3349478643249719,0.19417783256879184
-1.8392454016841713,-0.8654534552155257,0.7148850708087805,-0.0392605188784646,1.6623946326910128,-0.47447594174516555
2.6568640530176175,0.6059422655502901,-0.6465054922050217,0.08010249860864624,-1.5967426784359162,-0.22631187890851964
0.2731509190152186,1.1429098636820747,-0.15734051130438176,0.5526501284156375,-0.38694757673567365,-0.006045752387034614
3.5674708416119283,1.8360270064501087,-1.7643599652644228,0.9743752351737561,-1.666572746558296,-1.2810985797513252
-0.40364489411036253,-0.3097355578627732,0.7924792690414446,0.46541822892312923,0.7081418691637844,-0.7899258006622766
-3.929140382705872,-0.07337913049045472,0.2971714981988002,0.3093013213284974,1.872524921272999,0.039697580610817046
-1.1334593329166578,1.4644740245035996,0.5557573173958863,1.7551661440108293,-1.928247690345166,0.6674738970030294
-4.294830789812364,-1.6400925139644507,1.1568765574574202,0.3141561073996566,-0.03395642788811437,1.0268443835665406
4.112775929852136,1.684334728842949,-1.5395205312014382,0.8005069337672435,-2.928955350782048,0.22133199374759815
1.6561644917462677,1.652382243001699,-0.5135627750262867,1.273537258285013,-3.075931095553776,0.6339205280966569
-1.2922572344457064,-0.4883490747506637,-0.6120886662531568,0.1487596564211062,0.6352452767714167,0.8885816356030816
-0.2776199215692544,0.20043707012503464,0.08325485402569643,-0.11940122786040647,0.08327312896015493,0.012578146567199688
-5.464177951634495,-1.747012930997673,0.1734362492893201,-0.036803997866364235,0.6761863788146727,0.6001044236451105
4.859316993741589,2.102059907713496,-1.0068404995646112,1.009695060247438,-2.7273834125384666,0.18214357114444776
3.5184097378426196,0.9372122586402023,-0.40042845868452903,0.2577478542712684,-0.9659480792342046,-1.1390084752284293
-2.6289348079840313,0.5323825233710862,-0.19328164124307967,0.21035435518777423,2.7186691731568207,-0.6429042317795035
1.0691433738126026,0.4939687581966835,0.15087351535977778,0.3908959922855222,-0.17146904773068214,-0.8161950149519908
-4.167684700635864,0.2969697088077239,0.044492050880339695,0.33656519966261966,-0.3553840831152023,0.6772199565734636
1.1403433868491137,0.4488961577884283,-0.7398723718603989,0.27789513403322325,-1.2897764741271547,0.056482868557708954
3.524713004282626,0.5051338147531892,-1.0731512554698344,0.3249950274895763,-4.185862406564349,0.32433751670214517
