Gx,Gy,Gz,Ax,Ay,Az
-10.102126000000002,32.88501999999999,-2.2074320000000127,-6.921999999999998,-531.1339999999999,26.70200000000001
-9.590373035513839,30.01539023267099,2.2404998303242576,4.475072707095004,-0.8930622388796698,2.5685227209212513
7.82098812867473,18.59156252684825,1.6195823943825365,4.259629513078759,-0.645038368065836,-0.6072970771184039
0.8311227182938216,24.746668064381858,3.6771784158262917,4.139400745105062,-0.9057692605069334,-1.3625638330117393
1.3255939459387354,38.327428639068515,-2.8349391698032163,5.373141696048715,-1.9155430663783113,0.9954053959060966
20.062710110568727,123.99266155157531,-37.79227604041367,13.087756085067474,-0.6995271559168241,1.491117580806741
2.1735137907448228,7.055821704744963,-13.101050254313478,-4.7923174659165495,-0.38418899810682894,-4.343559805498095
0.38049027792164253,-2.6129531547318496,-0.9598503052054577,-0.1421419178059553,-0.9762225958016726,-6.287489030984256
4.553187512135889,7.702756613422531,-1.3465051457531103,0.2236184082010615,3.3643861842585867,-9.629456954414692
6.817943195867611,7.856262871665891,-5.87212738789051,1.126407869448143,16.47339298681797,-15.407694455964506
29.992702405961467,7.962477317613018,-5.929636844865964,4.4567054117992955,38.67174142798937,3.313012632828528
-17.523187736475876,1.2240929040919317,12.580709018496059,0.5648977558741687,-4.2097518864999754,-20.769935865644015
4.852857819650828,-6.05488060826408,13.122943568545846,-1.5724080881773412,-6.072125368473035,4.2159611029613755
9.43427450581784,25.398243080339277,1.1529989256975992,7.20784365294384,-2.2164075116701345,3.3613667819353186
3.014516543280909,31.989063772984167,-15.701222156621148,12.27925335704762,4.811904899188987,3.9787837006620856
-3.992952263633831,-15.516454478458684,-39.41444922754994,13.560991894147431,0.204407112595959,3.6076275589326787
9.007417524054066,86.68340684081528,45.632726749385256,-3.5166453938403057,-0.988818646435778,5.954290311353009
-8.276059244626847,-29.705227012251875,14.971335385980375,-22.08041819095318,4.431126953243196,5.627164632014913
-7.221594395294728,-28.390209052484146,11.70887461104417,-2.3648430449431763,0.8975671455781682,10.504098267783565
-6.026406877398045,-28.209783682967725,6.6579233326589655,-5.165787322758998,-0.811551388489927,4.9753451054314
-1.5284971808725598,-28.226135089464798,-0.22014889051024555,-11.627768534768855,-8.415689436477807,-8.962355878751929
-26.18228337400233,3.7687683845446145,10.626054866154757,-6.625694488629244,10.72054653147814,12.19096466841204
1.0421455603961007,-7.881551836777179,-9.00119540810905,-11.504391334908814,-10.411880933144172,-14.555222619526152
10.802140165027343,-2.036311005252937,-2.733725938139985,-9.610553272791247,-6.351626873427213,-4.524914975036329
14.630021811325395,13.369577552340274,-10.156529489013668,-3.1673676218911853,-7.591268278064504,-4.433292822611481
6.313606620079408,-7.742431001040078,-8.346303403269175,3.18079842195763,-7.155380854427062,-3.8019801520337677
-7.035255918075682,-32.9130725008473,-7.761614801042468,-34.146685679169515,0.15479396329040052,-6.626874219074903
16.525848040276607,-1.0163597556392872,-10.997665958971496,13.410077250569028,-3.8694376373164006,-2.1742256902002066
14.250792644977897,20.15707704198881,12.906278619996549,23.328287109843178,0.600058500894737,1.581168229334458
3.1593771915079927,3.5048881216369328,13.646266833101924,12.616260588806451,3.5395222737036174,5.828455290206376
13.277366585496026,-5.754547011466017,-2.3432323118827987,3.2851636640280444,-17.106726127250347,-0.7244574383847386
30.4791869143073,0.19520919075068588,3.7533763481756033,1.7659448334598995,-10.970769875714957,-5.2722433898598196
-24.769492495998186,-19.880380938641252,4.131513594373921,-5.602962197396348,-1.083751201630592,7.447784499214878
-32.01247382739041,-7.014283793265907,3.7367233739590904,1.866167870083471,19.896196261606512,6.468806648400696
-6.903092860395861,-4.602720801624212,2.9254337742991874,8.80214004950292,6.897708124801687,1.5462116485635211
-0.10814833247432781,2.0873304847224077,11.582958601412358,3.756682591609151,-1.857765514540315,2.0251810903924765
-4.049285176771377,-9.064687510542115,7.055832194384021,-4.458979095899661,-6.810981145443667,3.9628286678719693
3.8191787626578755,9.265910712131655,2.5783284353052998,-0.10772149957282395,2.277931795929078,-2.9132042375062785
-9.76051008816226,-4.14328976145749,-15.321243424171747,-7.6506961254299695,16.250504875805646,-4.002222566798626
-2.938593904691375,-5.316071380615048,-8.472520919625216,-5.1824888675202025,7.95327833749849,-0.9731836470094928
-4.576333426586136,3.6758450634067987,2.401599603030846,1.8993067477971903,-9.573007172512018,5.74468715956064
3.905251320437705,-0.36688865767613255,-9.58645222351279,0.6065263493283064,6.15075042865778,-1.0844046395103357
14.47136222907947,7.7657873105816755,-0.3718318765209929,1.023229171085343,9.287429254295832,1.7240866080830297
9.753249801215302,-8.842256870305848,-6.857261108211058,-8.131672596823016,18.48748014362789,-3.7311759378274028
-2.0500627736730404,-7.575428737266743,0.5614367967535738,-0.6968116379017548,-2.3901044909492892,2.4230434967824928
3.198422842813076,4.359446169507613,-7.8554036854426865,2.955369090775329,0.49683560911972613,1.6078914676943465
-6.8324223158110975,-5.9206479691469625,6.998681785938674,1.2915538016210277,-5.288156201008871,0.7846846272246482
-12.693376622228524,-14.978546477579576,0.8613270017724082,-0.12984912518874125,-14.219176194135928,2.980278286317421
-4.828698270965301,-0.25295186985852336,23.863477892802365,4.570915958622404,-10.384789057773745,4.573081479338001
3.7732163457456074,12.48767612390646,0.20112679486050933,8.771316017147678,4.894292535301082,-1.9473126181120772
0.49246968160030846,-2.6476770832764767,-6.4296025744573795,0.8789761329006909,4.412686017526186,-5.100807352596849
-13.736131723027052,0.997736567661426,0.5918709132688245,-2.070485961023601,-5.01130749333879,1.8239380717194515
-0.7769726379894584,12.211242326517734,-1.5543208847843442,5.0911895564557295,3.785738194657089,-1.7311389035037485
-21.683468606278076,0.5176192064655956,6.2547109946355555,3.4228790041848196,-15.537559803747655,3.011259648255791
8.2573172568055,-4.267739635023901,-3.6361155974337915,1.281559620956631,2.5043126294712783,-7.709771338763264
15.32177930650013,-3.611149823281366,-5.492220650523683,-3.555722584727178,11.386329542568413,-2.721483091911031
7.961520808925825,9.356823485682064,1.2458190240586504,3.9811374813500384,-5.938736547634418,1.8817228211804022
8.431231834852138,-1.9948123622758915,-6.9364013340726345,-1.5249315063167832,1.7510867304857713,-4.489432478639664
8.046168000398794,8.30882936005392,-8.11457483423876,0.9489119759286253,1.5068041665073928,0.22179434987191715
4.397206879641057,-15.424116618243541,-5.776651493343959,-9.76512952181729,4.87493701029428,3.4319491723509765
4.670002047904834,-11.292216879349528,7.756902397022499,-2.6567249431480917,-2.405848901781165,1.896217309468376
2.096737472282351,1.0969999601225933,-2.2224923562139556,1.6943919977756048,0.40735548775303076,-2.275763168855643
9.94438845210668,-3.9285275063639977,-1.0630095546262033,-2.53427941334738,-1.3565324150106273,4.462248285469582
4.760240766449395,0.7994489652113388,1.4072350477021591,-0.05968454870575768,-2.3808528563246623,-1.1704399991073056
-4.573354653074182,-0.7430863825239458,7.919625598061106,3.8010692680788463,-0.20012410901621092,8.660391354551301
-7.890707885143084,-3.6039997500980814,3.498266982811887,3.959541623497505,3.502225537572481,2.6743958807375137
1.8523703807804202,-1.9221838184532078,-1.2237304872701742,-0.12428921889784172,-0.22875034706793237,-4.429821679466098
-2.0592938287563567,-0.7252794399984885,4.231769867626158,2.4750337279208345,0.45482639884998644,2.8628460682827743
-13.29145851414208,2.905230125146473,0.23679473777828458,0.7540172896228696,3.892166923037898,-2.942295021617879
-8.147149274741393,-0.5066921067671695,4.8169997231698005,4.604502421581041,-2.0001010412042306,-2.046863348676844
0.29753705466134284,0.24277322131796186,-0.7401760271022,-2.964278030884547,-3.290960903767699,-0.7470771220530592
-0.5752207425136091,-2.3256236872457143,-2.221893504790158,-4.065397491678305,0.02099445845007697,-0.6988973226870389
-3.4893436310782953,2.0473646486719117,-0.791401918993994,2.499005196549949,4.4293640549269755,-0.922721228197527
-8.301226090280283,4.083986698285829,-4.2775866840760735,-2.658406253610709,0.46669532874326924,-1.3698075088844446
1.403489783881981,1.8946602834098345,-3.7910833067623098,-0.7613807953375018,3.922177882587807,-1.615538561328076
-0.8062990272670894,-4.677984933507064,-1.8766197452189686,-1.0782666041570628,1.8894649873141836,1.8584456590502414
3.4444640179016224,-0.603660882881033,2.670072630208586,-0.8266289640846562,-4.985390084656814,2.494831532216101
-1.4185295562858458,-8.193226511629758,-0.7749128515293691,-3.295357661380746,-0.8172431006388226,0.6639697597876542
4.801734899144814,-3.046405316291039,-1.6442758999388953,0.18198578231639595,-0.8162589411779702,2.2868464708970837
3.3291784985828783,0.6634312120210875,1.7139885257326903,-1.5350965493954023,-0.6647227935761164,-0.727017742456362
5.5843018037263175,4.915249827005715,2.9540197546494995,2.9527165613971205,0.21292159451712678,-0.40452469551030135
-3.670294221102165,-5.852592386780721,1.1667643126395744,2.33378562835897,-3.125812223942175,2.1700327953490985
4.344544651277796,-3.6947100202677845,0.22388224121793898,-0.20897320560133079,-0.4931263205422905,-0.5763252521368872
3.0100177392408636,-1.649124815323698,2.130487629961376,-0.7749465498234009,-6.284506604566566,0.4305920809606788
-7.758094924550334,-1.177278185961902,0.38269313454925213,0.9578119327816951,1.1046612489586622,0.5421965793564507
-3.6373556816253596,0.4683126918267204,-0.8576675710104471,1.9811840810208174,0.7338441480840912,-3.2518399116158987
11.656239005866054,5.4954680636586275,-0.15746034090269476,1.7424709339648439,1.3642708394500573,-4.4057438168115155
-3.1819726161241437,-1.7543365467415843,0.8850708316900913,0.5853954406224519,2.9770796043187495,1.010429063749104
5.572710363504527,-0.6415212468911844,1.2310640043795185,-2.7834885142891785,-1.2889342117199065,2.488090519308529
3.407793292226906,1.4881881904898018,-2.2197882584606603,1.194542893804691,2.1828278877588305,-0.14319858861038992
-1.02752920738531,-2.8598989275217503,-1.785192739161765,-0.9902608430824594,5.162454177505445,0.9938655177855437
-7.02831767568186,-3.998554500478643,-2.122076413885357,-1.054299469082286,3.027150785285893,0.2572655452510271
3.078481259524574,3.890748308317227,-1.252236387804154,2.453634803310268,-0.5479061425392051,-0.2947990808396739
0.5262520624544091,-2.61877791507497,-0.0793824100709114,-0.42767949385439213,-3.1884467088901967,-1.3617649486457264
-4.068344109656593,0.4263584433043519,0.3542828216027144,-0.6341769872014489,1.5395866384022832,1.0633947657258709
2.4542374869994723,-0.21096998909969766,0.7004274989689567,0.19458466521393558,-1.2546938991738479,1.4294646660962629
-1.9188434416538944,-0.44158769693668803,0.5256337987354419,-1.316954058495719,1.3210587338079522,2.5480855559320092
-10.337039919997006,-3.241286903606666,-0.0995806774009116,1.782140135981419,-0.3922109220507739,-1.1392246971275717
-3.6220373241122577,-3.364105083540662,-0.3815412283876541,-0.3237625405466158,-0.5998986168884962,-0.8612959332132759
-3.7823352378877804,0.2822841503933635,0.476017757927657,0.5959197370351278,-0.5655824626745296,0.5296765166407353
-2.0756959670404624,0.14178954740236227,0.1836081558213798,1.1635220710548346,-0.7401349954545475,0.6529669582175471
1.5708571071121038,0.5698295868230987,-0.4458693353634317,1.9301940889206604,-1.590215187554762,-1.646069913925285
7.028946319881879,1.1187684538821958,-1.0791730995148936,-0.4278319303607532,0.301875896896111,0.4406263402583055
1.4313987836376585,-2.026505871746539,-1.1638178783350912,-1.2857155266305256,-1.4821085799453713,-1.1717951183363127
0.25382977975458265,-0.09812406511474608,0.8621494414717442,0.46478983198349544,1.0914447218147307,0.4952384738213649
0.08261044901904457,-0.8702193438183383,-1.4574349294571896,1.2278508656856957,0.3120250731456089,-0.8067412144943872
2.1135856875268546,-1.8848792465045308,-0.34007126155942013,0.016683866961929084,0.3953647030304881,0.49630823861865153
-1.437970321126823,-3.522815864034115,-1.3214325492833647,-1.795543672178657,0.2206331089849738,-1.1383877241474258
-1.3841872520005691,-1.6847422290362721,-1.7234131159526367,0.6685200937924611,1.894898416356857,0.4802793211484185
-0.09120288482129679,-1.0920939832724939,-0.0701576278660446,-0.8698535077099026,-1.8334244800435362,1.309926544309501
-0.9482158978002677,-3.2078201772660804,-0.42993246999930923,0.8666858415742087,1.370161108517082,0.001837388746708496
0.9370460498638858,-0.8603310076385228,1.6471071252189282,-0.3004061255359117,0.5046419840411382,1.47619740015158
-0.12094439972482096,-0.5338621167895603,1.502860436666821,1.499277688629237,1.8874914937361038,2.14494761280509
1.5326780549030978,0.8653051810447796,0.32479799282585037,1.6363562142827677,0.3322674264977492,-0.9107342923317958
-1.410415182995846,-0.6356492245911146,-1.2749726529957677,-0.9687739867837057,-1.9340461569026466,0.07818834548156045
-0.8262601578403794,-0.9556729676128524,0.42852560923590977,-0.6875469442532622,-1.1160385506392494,0.08821744601676741
2.2895880894763097,0.8070167451349229,1.2125479164311543,0.668107412943902,-1.1997770986573664,0.13070591905113368
4.330151977308242,1.699927186563265,0.5430908217278194,0.6597768511051896,-1.8031257866659214,0.2886498683606814
3.239222426644546,-0.8827107716163292,-0.19904147656995141,0.1230113629748204,-0.6871813342147649,-0.11491241065768398
-4.364106995944304,-0.9978496719940864,-0.34760371469586404,-0.04595588181222357,0.9530788025390872,-0.9547582341340959
0.6021573240796458,0.5547555353838733,-0.7280701962898135,-0.773565472047802,-0.08735622439554547,-0.33538343176243457
-3.5666613809510954,-0.6025157857303522,-0.503395240268222,0.22932233532395896,-0.048772273817685674,-0.20899912522372177
-2.379068999769755,-2.168119704089257,-0.3448202711381887,-0.48551401921188836,-0.4841545555347171,0.34344469109498876
1.473711797493758,-1.190237289546224,0.22550097714671918,-0.5187497204645941,0.5955502221228341,0.6711298438547417
-3.0803313469871734,-2.393504341661176,-1.3540796016353518,0.5463134091537605,1.4267253250419405,0.2348913305814152
1.5277484809577602,-0.8211150218443151,-0.2101041023988619,0.7524152551622747,0.1908699557112774,0.7163699561678359
-1.882767335006203,-0.410758800613083,-0.5739484336640462,-0.509353384363971,0.24229795868648996,-0.4189822553852778
-2.2092533057707517,-3.3780591476830324,-0.5611862832177766,0.5552820740314449,0.601292461213883,0.4755838408328063
-0.9362475675330468,-1.8860733929778652,0.45503113260125094,0.3987467722069473,-0.6483598393265514,0.9105233759806908
2.3623489891292384,-0.11492376896045764,0.08297832043394993,0.03701336094304443,-0.9314194641188245,-0.3612155155791743
1.344486622769606,-1.8085106513743785,0.49600717712511955,0.08872827990356402,-0.12641789145456617,0.6203660912398866
-2.654271402187752,-2.131871907714297,-0.8917352842733723,-0.10370358461453057,0.6492417496351525,-0.22064493230719556
0.26788785350091177,0.8335184820504964,0.44893011183040704,0.052812740586150236,-0.06560764843593625,-1.0008133135169837
