Gx,Gy,Gz,Ax,Ay,Az
-1.806944999999999,2.1340660000000016,-1.9246299999999992,7.052,-571.592,70.354
-11.796875237710735,19.682392023826516,-0.31356718733661615,-2.181012671504152,-2.3839937194062726,-5.317630075533503
-7.29078496532556,-11.384316817555906,-3.73721417603808,7.753311581675805,-2.3120963294041585,-7.142551732729256
-4.682232107431944,19.76682343777732,-10.706472347462707,-1.04068721566584,-0.9998629683518632,-2.524080147243578
1.4883918021575635,14.576236876139774,-7.948001311496435,-4.88234342554816,-1.0505914709878699,-2.068773026467227
16.047518630201722,-70.38167755815056,31.18002246807427,-4.7510822226741105,-2.7449795809082405,-4.911764957060961
-23.504859897948972,-197.07290764824987,95.85105842531851,-5.845652413744282,2.5032456610349714,0.665630437993286
3.1865321673932727,-13.383857581089496,-0.11606337290359159,5.200528945002857,-6.239281795261318,0.49004474909354956
-21.52938582967091,11.106113549891413,3.3941510191807382,-0.8021172900098963,-4.5028805647615044,-2.035738397225349
-5.909487802823059,-19.54573486768668,-4.135525939459997,-7.386555606285083,-1.5128894378869462,-1.2767127385444828
23.169043247303584,-24.771968258990288,-9.66517509079993,11.753090576008995,2.2190926238733093,-2.51531629903709
-16.261278814276167,-9.772208180900082,-2.076907826851481,9.821433578378585,32.632766189210486,-19.95891545902394
-10.840519457357118,16.22038875694055,-6.042494267019071,-13.181379386786459,81.56189053617405,15.807689099722687
8.193109166870642,-2.1720535615324437,4.7390606972498475,0.26481801823360407,3.275922069247038,-28.944032100022795
-13.678124304168044,-45.99125361862489,-2.0073507921217013,0.041990994227512735,-3.0092746872419154,6.651160255407777
11.018962610217551,-18.10889485231847,-7.284593989781178,5.803446696292625,9.87722081360567,1.0459189919600096
6.583059234625564,11.586466996337299,-24.176289024719964,-5.210039675980086,-13.104540314705842,1.8651978478217976
13.04377819100739,-14.377218237644497,-11.230279478048228,-11.468651147540594,-6.517529619286581,3.603684953016855
-2.960977513802263,43.93918263520236,35.81464622190092,-9.190321407809623,0.971996187024109,0.5968399291674578
23.87598941663277,-95.80299439749919,-59.64116763321708,-1.698406876465803,-8.12754125917017,-0.6713174862846021
-18.016893872363383,71.632523344029,-5.9657034577158825,16.562647617211056,7.223857429028325,0.6644533637328647
-8.08219571738481,10.286499671430771,4.388763940735148,-2.4623128429430348,-8.245322160688492,-3.5185427819616084
-7.378759340744488,36.300661283754096,21.1954494129425,0.145795994215712,-7.0054414742025,11.228990650992149
1.7017601729506058,1.5649918686831972,-15.812510966961339,1.5147763166301262,5.336099784829731,13.857240658799084
9.429470956562957,-9.482659620262863,1.5457341511883005,-12.677043609513085,2.263964956157203,-6.341589070072672
-21.406060310355052,4.493549878442886,5.516784463682027,-1.7512716786700642,-8.731780301267795,22.974557001582077
13.354497796551252,33.0225872312932,15.75532249328904,8.950314593840556,-2.794033299365074,-10.921410256063698
-0.31268644155244285,-11.399389967154315,0.900138601841345,9.130987090340083,1.58550027101791,3.7985801398681485
-11.085260032475967,-6.291005584113963,-18.395888331367253,3.492856680993917,-1.9105581706195078,-7.8649612647719005
-1.78361177759382,20.088319138609172,1.556282759513713,1.7356023786642645,-7.082387473326345,-2.934499677396267
-11.262745603489439,-10.429027768379681,6.181086859747115,-4.6564695253525406,0.7749493815323873,-0.11583255291002192
-11.017662286627367,11.968875647060976,1.9585669202936482,25.212391931848593,-1.2113053139182113,3.7651387385529524
16.171629518394,-4.494688968183352,-10.093865886703874,-10.39221351393972,-11.973438163467254,-0.9503867855780506
2.8315339546839953,-4.815138024729073,-3.83250960560432,-8.40349354445008,-2.2104163020930447,-6.051069749067524
9.959097105952452,5.835725076445512,-12.034250600431509,0.005621484708735025,-2.4516696657608255,-8.20449839940163
-10.279295020966659,10.79429082706198,26.525835348576408,6.449681571681007,1.3811277785639942,4.681132521505747
10.353490193796054,-2.331652342153948,-1.2063345822978344,6.132908683803315,-7.105021588288859,-0.49104250799790294
18.01445479712747,5.448579503156495,2.0471096098437527,-5.293812117129093,-13.799633153762144,-9.349916787410033
5.423183164748803,-0.0011424437693303702,-11.272431286561062,-8.70350142743997,12.505076121692099,12.030409474113274
-6.487978197615309,7.537513024566923,5.532752365099331,6.437803021579395,6.976008219223172,-0.7053575170770545
16.2912381787938,-7.535347152223091,8.866064499875812,-2.6444096353670297,-9.403753284971534,5.975459728909376
-2.353443089089999,-4.598425706342654,-3.899975186973985,-1.778281095755303,2.85345972797129,-1.8231672245317196
6.878684900057834,12.796983102557176,1.8332348394308169,-4.236801114248242,3.770994198609583,-2.4599664799467305
-7.645309036424165,6.022968012599081,-6.403421302094187,-5.709156496349543,9.961153157577101,3.112996143892263
-15.771696566058006,-8.171325578147357,10.495081787662322,3.293583102558239,9.343428005828649,2.837774366330743
-7.197658000087909,2.64263213208225,-1.2307895102997044,5.347700749469534,-1.6359508127444202,7.704767538131107
8.109990821093369,-7.378971055057797,1.9662886806009854,-8.1292566172415,-6.688750564876258,0.09379784885335374
0.47273181308182577,9.359069536917419,-2.272197757522849,2.0678397050309885,2.921800593544135,-4.928641113130943
-15.775510045565571,-0.3183377545512782,2.4946622262735163,-3.862786152500638,12.584823104658536,3.0609463188509203
3.911404866084894,-4.724277704444045,-1.8258234972824774,4.135335924972274,-6.5896319123264435,0.6353798693733175
-13.13367324621448,-18.43327676264371,-5.227507239445416,1.911344465917748,23.730617888914388,-10.705628434091409
4.486137172405825,0.7158094153649044,-6.502001293691168,-1.9899421298153228,-18.584833292668236,-0.20449361557238166
-16.77202097916633,5.006239130063543,-3.8328553167267128,0.7583091771103312,11.530622071894065,-2.5425735811316064
9.103063865688517,1.019760986693354,-0.4902836194172201,5.8081845053220995,-16.998587337120952,3.666207729440265
-7.036692571030763,-13.16277721647933,-5.085906952558642,-4.233760401753688,2.4402089212848876,-1.6580678652883338
7.7181629853937475,-2.498710578259113,7.360736461932524,-2.005639496056092,3.2179292445612306,-5.761995721415641
14.065177045349488,7.44020322166339,3.010603974903301,8.555576754720844,-2.1536876508336835,2.5568830657174044
8.796951950702026,0.7990302873575421,-3.572995099965381,0.869084667710183,-1.2329428723005718,-1.8793286118740493
-5.777414785046087,-2.6886314781274745,-3.769595493729965,-0.06272055207894256,7.825589677310202,-0.7119307615082238
10.272196652235673,-7.241373598752986,-1.6877988803306607,-5.8286871213139175,2.229091811752671,1.5028515647699952
-0.9891113941919771,1.3037737057333914,-3.208068027155065,1.2250327075132792,2.1891160179428333,-4.034581801771004
-7.821083835501814,10.724818527072252,3.5461146389555687,1.052572413633162,-11.699890081020497,7.51134742455038
0.2941291054883397,4.221714526865183,8.310632802708458,-4.142560288011582,-17.806643622884614,7.778280490383228
1.050793935928815,0.7058034157300472,-2.519972571994015,1.410888793530356,10.057836984362593,-1.6132024902741595
12.111609736061522,-5.332871562361067,-4.6600533840930245,0.091532866632976,15.21001041064796,-5.579708974986149
-12.9636991150568,8.678348467435363,-0.6750013644126338,-1.4094283754823134,-1.5632019512186144,2.3196563905656915
-0.6529075144935712,5.737789936969825,4.785671552869617,5.085426779361473,-9.38427516322594,0.6302625971083855
-13.032166793520542,-6.016136780698288,-5.6884492587233275,-5.059694892515668,-0.23146835328148185,-2.729467434587799
-11.11649368426966,-2.2660009329307016,-4.661952609530034,-3.7842268038606646,0.801270924646996,-4.538751468858585
-6.224117352471204,-1.362859742172812,6.24211378488198,1.5099644365255407,3.1760184867167673,-0.988675594294885
-4.224258648462703,9.86839809876157,-3.1540007082784673,6.130358148975377,-9.895522071561418,3.9891538213182725
-9.719395404062825,3.3620463340176006,1.9840465386674675,-0.19232612059334886,-2.801081647099771,-0.1189038055608328
21.193225832948915,-4.546278376522139,3.218776210253436,-2.0781885657882944,1.8572378934945113,-1.978425687885362
5.749708539150591,-3.861491879586337,-6.515356050072686,4.070988179916446,8.061696278397093,-10.634141961475626
-2.6352771510535167,1.3008307314015042,0.3882077786175522,3.6833092238619423,-2.1021171039225335,-1.4857963584619882
-4.488237050351743,-2.7621987146647484,6.0645251632541655,-2.2456582796369573,0.5395859927737641,3.2072350664878586
-10.095825431054706,0.7918389316267738,5.161820886571081,-3.230200504668252,-8.42862739997091,8.132300787830008
6.668728153633488,-7.588701986775752,-5.125364310563953,0.7219133593382262,9.753173296804123,-8.744173529532887
4.675048807544597,4.107608525267063,-2.168118932281921,0.44321545424488207,-4.771100605141199,6.6168551745207385
6.986414219627267,2.688812513248939,4.306653009889865,3.7032494136668443,-2.281071923726777,4.269582234913501
4.188653505664668,-0.28282768438299055,-2.201134315885831,-1.8204147374268445,1.7772687701544214,3.7541273417187213
2.251062781232778,-4.003405562101649,-3.017096237602594,-3.5219301528462097,1.629283088397445,-0.9395089131900218
6.01278162602198,-4.0954613840625935,-2.3190986011871964,-3.115162325380699,4.542993975587547,-3.9618713367661154
-6.643311021259148,1.5170637760923098,4.292347360795272,2.824232351495967,0.16209276799085615,1.5317250997259206
-23.219467141768614,3.929566751405871,-1.2226745644945698,-4.447436104577667,-1.1660380302520101,4.210652604594641
0.5148295186321468,-1.083158981973769,1.2800887068830318,-4.18969537878792,1.3595744960531582,3.9476816582848104
2.590992712500261,-0.03245077022983467,-3.004700324672555,0.0753985007313338,-2.2866485098960077,-2.912097970581735
2.078210385899718,1.2925885545931113,-0.7103697027761027,1.9924528115240703,-3.387812988645402,-3.7336804432741006
4.154325444522286,1.856085361105976,-0.41244814806177255,2.381607449600602,-1.4879857768438898,-2.038894614167254
1.1571384020860176,-3.9602787688680596,0.894880247309839,-3.077068006075812,2.119264224122895,5.00268853895548
-7.398399066905434,-5.764733532301637,-1.6633930563939339,-3.2047498494785027,4.125233941544924,-8.03235082438816
1.0412242594216408,1.656373124556223,-0.669943520121941,1.5957271370954857,-0.9750763496956862,-2.3567869404361
-5.098118161091517,2.646874700914578,2.2157317192790047,1.733623334806957,-0.958809771415839,-0.8165022162201485
5.0140365273963505,2.4711968784114102,2.214790018794367,2.004512620162017,-2.477924228111876,2.0574256190095497
1.36316753307259,-2.0614791013407543,0.5678576508128819,-1.5189897599840574,0.46934906524171893,0.052560441176397465
10.910133974583955,-1.07562203502837,-2.6633912533089927,-0.45102125366222906,-4.500924261574702,-1.2708569030604004
6.377925916440761,-2.823238503459754,-0.20086616848214023,6.297706230686437,1.500055464081571,-3.841882280788651
-2.7942269974233964,1.649553415192126,2.0298948336100917,0.6154616351758981,-0.16381663728115914,1.5893920225082097
1.0193676239939506,-1.7980846147786602,-0.8843617562853137,-1.9812452546284758,2.4556185607057355,0.5013042497402487
-3.5973218896769152,-0.9409272989718174,1.7061331880168935,-1.3307724695655831,1.7079703421466474,2.0105370995549112
-5.572229531120876,1.716075784471723,-1.932622061667962,-0.27285174637484577,0.3041592465879912,-1.592376771728392
-4.628145772752067,9.266504126743603,1.425366466768749,2.7063774438041452,-1.4658979118989894,1.9350131885903104
8.977866235820136,-1.823582044320748,1.335618985976406,1.7114495898868172,-3.9857738039696935,3.9258063334832736
-3.0393348621844725,-1.8045184704557045,-3.239932538923248,-2.0412318758967465,0.8776498705350955,1.219022926287804
-1.6695291071039717,-1.7813599788724912,1.512963048959362,-0.9894786570242569,1.5001787395148547,-1.096451069156979
-6.689958589038536,0.5577604340518245,-2.616958244407291,0.279186335985422,1.9030571710851842,-1.0775615748062077
-4.7298944607732105,-0.08522475696604559,0.7566592369210019,1.142909146977232,1.8941540301100457,-0.954028617522708
-6.17678842134657,-1.5062242998226492,0.8965565468769809,-2.9309392797041216,1.0206763931463012,0.06770575410165525
-0.07117683452661261,3.076228491279546,1.2220533109184286,-2.744108310556111,-2.979082468713826,2.4685239324678094
0.3741422955614544,-2.058088285888041,-2.236718284586467,1.2793592861813572,-0.8030409637860121,-2.2011794198600825
0.19378558410631008,2.2243441765446033,1.9873802844370299,1.1096217598282778,0.48041104640286214,-0.33140514174558344
3.638873734856127,-2.566145355319573,-1.245197968891886,-0.8952202065742116,-0.43211127106464886,-0.7351599818427699
5.441189873503243,-5.07494595928217,0.6274181571239261,-1.812973235661153,0.5750119693761979,-0.24196747752497805
-1.692233256392274,-3.1581878874506257,-0.7196677135600891,-0.5304813216573614,-0.0718622723526019,-1.6068275375296186
-4.4437321760805455,2.7074924770666886,-1.1083617022515448,-0.24642230263780407,1.189079078492862,-0.9444610606091431
5.66113571946243,0.6378586067277754,0.019675738886547833,2.0280840021864766,-1.8008678567254854,0.18748004565209797
1.5076469282228828,-0.8001877011165734,-1.4956915761429252,-0.2908003342568606,-1.0018337788146736,1.468469141104262
1.6316510359022187,1.7348458179560935,2.741701354631058,-1.8003549551469087,-1.2937610268964015,0.4541077524290271
4.429561155175097,1.9389571987556469,-0.4899028953564786,2.1530644108238013,-2.5677372748053062,1.9776528165903176
-0.9417499523169062,-0.19175883220678402,-1.1206305838530715,1.8000540151213982,1.6503655469029104,-1.4030102624735248
-0.5223588464876485,-2.985607613746489,-0.9325636421995989,-0.5286139189968488,1.9042715559006278,-1.0103586185896622
0.4099790080281003,0.36472743879342273,3.0380408374203354,-1.999236594268769,0.4502077766064905,0.7151911053728045
-3.114293468543316,-0.34394312155634993,-2.2116313971653803,2.074177659699763,-0.7328805545667647,0.2909812179118658
-3.371523170370337,3.8257124127758435,0.9226519675736862,1.5138638438133043,-0.41104814607069873,0.9029237495590117
-5.404107025079725,3.626405299864191,-1.5816710204698692,1.7722044524127085,-0.25744114623121295,2.4783238298726715
3.733262750358949,-1.8619234006789513,0.7508858155123423,-2.1223757550326883,0.8182578133803864,-1.8591313100767495
0.811976203947169,0.18170608480065953,1.0523125333686467,-0.5563904238457942,1.1485448860646212,0.26820464468243
-6.640029995527245,0.7393006199007592,1.8506789208765388,-0.4048552158760632,-0.08938597515641833,-0.7950816472937041
3.365245167679717,-2.7733370541771474,-1.6689612406105363,1.5844128209684056,0.7992514242951465,-0.9811524792598185
-1.1974378773793086,-2.3887483356835038,0.6071631966153891,-1.7084245599312222,0.9805490804847974,-0.6194473663030806
-2.4174818785779726,-1.4119604001641308,0.6608050729907422,-1.5228714583179759,0.5703915451451512,-1.0339697051602228
3.5095025482787108,2.795952863399485,0.8013500415484356,0.7893810899429841,-1.4855749833721266,1.3105482592080118
-0.8583962307669495,0.3649523383410096,-0.870511733086591,1.6658885465531512,-0.5284676658195333,-0.29613012662104365
0.6753644436927593,-0.6298625537997093,-1.5412395486506423,-0.6620782819201025,-0.5306878421144159,-0.5237051780649373
2.7556757578678894,-1.6835358843538941,1.0175179351056913,-1.5787097176601264,-1.7711912877819112,0.4018509254505771
1.2893406813609936,-2.3622865516646296,0.25896425495896525,-1.3510378082211618,-0.306610757755414,-1.2822465575572757
0.6992279343683441,-1.5704078186421992,0.20872476132370366,0.30295128961930473,-0.4076970351827828,-1.2721297856388634
-3.5261756116417007,2.710261356747134,-0.49705176777021354,1.3922026170853068,-1.0837584887320326,2.502775753335227
2.295838625439078,-2.5097435382900706,-0.5100495003120074,-0.28915360303698767,-0.9111643825471316,-0.33284124348497723
1.847223366632245,1.7321479787329377,0.07665450646416483,0.2931319182291008,-0.5929368059777711,0.6137508362006068
