Gx,Gy,Gz,Ax,Ay,Az
9.328005,9.026008000000001,3.9609959999999993,8.125999999999998,354.318,0.3099999999999996
3.046584865978155,18.28726100406575,6.3826828494293135,5.624001619201779,7.210888384069772,2.4418750830222615
6.939423399198545,23.329856336260512,5.801805722112897,1.454063694301277,7.342632350189374,1.6263404116372548
4.637720864216547,56.72806649337371,17.018079679047418,4.938198985024127,6.616344514811041,0.3752241304753767
9.288298536380143,40.555088214449384,14.420871470467874,2.194803029883304,9.485609749232205,2.6337124449183245
7.831709453190714,19.198393403824884,1.6848214814866298,1.717385164798133,10.672250082830494,1.3136211611052204
11.393686459275846,11.595131970241196,6.439758509978963,1.726017676165757,15.594239228956502,5.744109776377436
25.545747756762047,5.971280073597478,14.15655050318417,1.5068388327114532,67.348678592376,35.56263521535796
10.113744658575838,17.34311801128908,6.081544353737218,0.46899362424514757,11.872649555707813,4.203419351644648
3.146377748850577,11.009913060869568,12.326854589673141,2.489251085744057,9.305527265715842,1.2913344315136666
4.540248778671751,28.046423385689863,38.495519097374554,10.414660318020905,9.21019180499225,2.7299013203195166
4.827370783249221,31.14505963493956,19.20093342007921,8.446988002628053,5.587510381599424,5.710711453054677
2.056683518870387,21.895289404892296,4.970479010933268,5.852999374312812,6.182418970360394,4.171964803180848
2.11955040122288,11.597970094949353,3.6015577043069342,2.659424483143979,9.547327595775643,7.803253943887026
10.482437840861813,9.155147241053138,4.569074967115718,4.240739975548035,11.781619392959307,21.812044593083954
2.427603430882912,18.94809109149594,4.545235060813912,6.872866815398419,2.129426298072511,3.3397061584799386
5.75265984433331,14.642623706700398,1.7623021260074114,4.346752759354691,3.7517806511193403,0.7077755455193734
8.399166965336889,43.41577603317873,2.4811024015552263,23.353560516261243,5.037681627861146,4.133179135606513
4.6441549525002985,18.387968905495352,1.8030920145898757,10.901789216800793,8.388577612963728,5.019746833962998
3.0123487220815472,8.554019287908115,4.622010583233205,0.9281967904605511,6.561137739543057,3.1928550063843137
7.685721340880948,7.517236162541317,4.670823731712145,1.6939983484622658,11.44170872058694,8.574358495386926
7.722217122836857,10.801836788933734,3.772886580952905,1.6733497656294476,6.305742459885953,12.957068196821611
2.3699380344699854,4.042331157706504,2.721166791233815,6.975339541836379,5.156987454590981,3.8100140979502726
1.5443524805520916,4.362774897551361,0.9728666428350858,4.855979134159221,3.0819377173386786,0.4122007458528569
8.2937623502708,13.110912645560811,4.762665566042029,9.768783424377602,6.229034899842824,3.4058107742286055
5.3099149581837635,6.717733662390919,5.6439903357517505,1.3921041572894548,3.373297943338848,2.684256220396118
2.4214724321437777,7.331475533428869,3.3002343397047755,3.669773560620006,4.437234180838822,2.3475443831705336
5.787044771809267,1.8480299346349893,3.365079235918617,2.0490779655096554,3.2622800252209476,4.847658858994303
5.4828293670715675,4.5190207503563675,5.082692763012752,2.903488972913369,4.229050347196339,4.476419723337393
2.901585484880461,0.5809871851997737,2.9717098929268024,4.422949988057797,5.3152093366982704,1.5845275088202684
1.3906131057463087,3.838038817439644,1.3014457945900009,3.49880536564247,4.79156677449601,0.9276558470579627
0.8280420849667418,15.414752709006603,4.982188235935042,12.676143190563606,7.993257739540446,1.4014196802387588
1.848968245398431,0.514447748013629,3.1889073732331275,2.9328998603556027,6.2672504368196815,2.2701743528672598
1.6625457845601213,1.6184801208110386,1.4043456752548513,0.5913323391478906,4.973644308363423,2.45797908065408
3.702241519241277,7.1466299921886,0.5659390224640826,2.796675968413159,9.510670453248236,3.5445469480543648
1.803953799691854,2.5258192199231613,3.449963174344921,4.668268979668344,1.0873263122290175,2.562074994381167
0.7912805487544385,1.843781407755132,1.9858820784352638,2.5607647006843797,3.49215422177396,0.6817374863933064
0.3324259158443504,1.901315107997129,3.0968114758366783,2.313448444761835,3.8907728049346804,0.4803140052001549
2.4243015726064705,9.952238770377916,6.944485159864397,4.4517868806977665,1.074319783707335,1.2758537737437186
1.1713783948765866,2.9020575222948284,0.7195390382451056,0.8048929080603635,6.582666429165562,1.6417419688461201
2.590334834216831,3.475842272452902,1.3362140578294397,0.2318473217048489,7.198203629677281,2.8291481575547106
2.8124631158539013,6.121854396825669,2.189375357011486,1.5552614486439909,16.08872771190572,5.1672175887315515
1.8295907598010668,2.010475910491921,1.4104219196223504,2.322636180402065,2.1594745236510846,1.8218684326265566
1.7758854499395043,4.73665283385154,1.5520154278699612,2.579954969089612,3.071863581935473,1.261856738647046
0.21522002709292207,2.5531899727344363,2.849852252103374,1.3998647760604783,0.8835884336345617,0.20220372487649185
2.4766960195768886,2.6594908782622855,5.752293233103469,1.326678129522091,6.67961788969533,1.2130023587624263
0.16909271310174348,2.8240040640409996,1.998692753491742,0.9663776606784595,1.4429889194672452,0.14913839412427557
1.932795097162826,1.225756184928499,1.092217415469378,1.1850193610035107,1.673544880946562,2.421873813779979
3.078777598486356,2.26281912679905,0.5703070650514552,2.3272103271920623,8.74960787368979,5.8952939287162245
0.9240707260212283,0.7728604162827973,0.8931362243971349,0.8088388427036989,1.7103760019287664,1.2673351727566016
2.6161521302163564,1.7031445543254897,3.2411454144118412,1.6459087414674423,2.9996802011286072,1.1211338984920771
1.6943245453640345,1.0496726998973327,2.89778253833367,0.8251676911789458,4.834931284756777,1.0156626515216298
1.9592492228151817,3.7355851095422854,3.6661844828578625,1.4269449443448738,4.359077351561965,1.3815452826461747
1.316525757339239,3.0854483808082236,0.7875295355470325,1.3958718019271021,2.0513538665225046,0.18929712502867932
1.367731662378722,1.0143560080154932,0.4223406837795218,1.664968342359002,2.2384868690299875,1.6694731461639702
3.0660011866814925,1.617964374665827,2.2379539377505706,1.646267729497221,3.5051462823557236,6.113764112058666
2.3239260296913926,1.1135928192143911,0.7671863034604216,1.1519786353854835,1.4507620243825732,1.7381422408850529
1.0648485002597037,1.202799019529712,1.8770996640171544,2.1082532132007086,1.1886355319511221,0.08079207913464843
1.7186990990969166,1.7519994971039718,1.8544623343541529,1.4267665427730156,4.385188920352383,1.5487129640393344
1.8838140188052752,1.3678658488328808,0.9240123618853648,0.9380804458333386,1.978544717361289,1.746881580900594
1.9036757048197688,1.2294949692414923,0.4172971026648841,1.1164022488635386,1.7805756764654834,0.9533565646111519
0.643677149635575,1.063843101796602,0.6163030894655326,1.1316624270251243,1.2619657335335357,1.6077066612496516
4.514765806625179,0.5874362480100273,2.9078726334386555,0.9489254642850085,3.934290389551413,5.321697178576507
0.7790011691336565,1.610364967601965,1.110522863155612,0.2698446504158699,3.206103631719589,1.1660131121224333
1.1895926252847662,3.208102128451945,0.6916565066094156,1.1319365012115048,1.7228968115358887,0.34130381845254637
3.774960703961987,1.308421876912372,1.7397509087816927,1.9176706538187152,1.3789955046505686,2.5593993181323937
1.3764358603125928,0.4377360862351159,1.1530349923473493,0.5928443011746067,0.8243386295598552,0.6275012559576019
2.4024126504153998,0.1457594133640056,2.0938910749520874,0.5730983517067744,2.596315782571561,1.139014300204264
1.7394595734402032,1.6962730585030277,0.5558650275809448,0.6837350040038324,1.890131019970253,1.1466465307780285
2.5258986360988636,2.4774197901321466,0.9182287897725262,1.0004234808057577,1.8387446564730705,3.0456666147700817
0.5493203981009797,1.0840502215839327,1.0084143086717756,0.41360364584126336,1.0060049305714744,1.2973800389213734
1.2830164905743102,1.6158624212938033,0.29009948405625585,0.637088222961103,1.0076335810600205,0.6991435422725629
3.8811375170472124,1.0931494991135924,0.6165783267471667,1.5184207396579992,0.7019475851175713,2.660668953347433
1.0958335512801827,1.1243187253463285,0.7468199167988351,0.7076937809651659,1.8531697424921418,0.5500823470079274
1.8379750092212124,1.387840934398169,1.295832982943968,0.25512401995021117,0.04160677178061939,0.5264926316867491
1.8142609099862828,1.7616571315747458,0.5267362470757115,0.26833175959567074,0.9462693171145957,0.7280680925281908
0.7054990524875602,1.3955988595100834,1.1974760223627352,0.6859179427732582,1.2610599055555307,1.9820046551281874
0.14535877624590762,0.26100976219730304,0.8749328088018722,0.17723353562551916,1.2806088890450877,0.7312659189775339
1.3169792162963598,0.6532342789552874,0.9527796966749671,0.34392953047142466,2.09087687908243,0.8166259405217332
2.790545356093388,0.630516629032759,1.2275074431071837,0.9851806394556214,0.9119172419876064,2.2609678255525
0.978368160338353,0.8238544099269343,0.14829975444717583,0.5658798723706516,1.0711891082708276,0.701904797969416
1.5337173225314333,1.0240443664224104,0.7421290554701989,0.3579669613319448,1.3477312239719543,1.0616032017311137
1.6507230960488928,1.0307247177656544,0.7373710893092265,0.1003344170423935,0.7671734792737087,1.6614552575048136
0.5720392379420822,0.612430372797917,1.017546617526468,0.3075426697703892,1.650564992526605,1.4667888499347468
0.9103770508222131,1.1029309292089062,0.355722085272101,0.32467189685034376,1.655067155489078,0.3511563632871665
0.8304511917960732,1.4203467643680148,0.3948599275429734,0.23912258467420397,0.6239275801881442,1.021872007464994
2.6084177595240234,0.36494329811988674,0.9995422201464638,0.5733785284522206,1.8186580182546273,1.543374254428495
0.0,0.0,0.0,0.0,0.0,0.0
0.0,0.0,0.0,0.0,0.0,0.0
0.0,0.0,0.0,0.0,0.0,0.0
0.0,0.0,0.0,0.0,0.0,0.0
0.0,0.0,0.0,0.0,0.0,0.0
0.0,0.0,0.0,0.0,0.0,0.0
0.0,0.0,0.0,0.0,0.0,0.0
0.0,0.0,0.0,0.0,0.0,0.0
0.0,0.0,0.0,0.0,0.0,0.0
0.0,0.0,0.0,0.0,0.0,0.0
0.0,0.0,0.0,0.0,0.0,0.0
0.0,0.0,0.0,0.0,0.0,0.0
0.0,0.0,0.0,0.0,0.0,0.0
0.0,0.0,0.0,0.0,0.0,0.0
0.0,0.0,0.0,0.0,0.0,0.0
0.0,0.0,0.0,0.0,0.0,0.0
0.0,0.0,0.0,0.0,0.0,0.0
0.0,0.0,0.0,0.0,0.0,0.0
0.0,0.0,0.0,0.0,0.0,0.0
0.0,0.0,0.0,0.0,0.0,0.0
0.0,0.0,0.0,0.0,0.0,0.0
0.0,0.0,0.0,0.0,0.0,0.0
0.0,0.0,0.0,0.0,0.0,0.0
0.0,0.0,0.0,0.0,0.0,0.0
0.0,0.0,0.0,0.0,0.0,0.0
0.0,0.0,0.0,0.0,0.0,0.0
0.0,0.0,0.0,0.0,0.0,0.0
0.0,0.0,0.0,0.0,0.0,0.0
0.0,0.0,0.0,0.0,0.0,0.0
0.0,0.0,0.0,0.0,0.0,0.0
0.0,0.0,0.0,0.0,0.0,0.0
0.0,0.0,0.0,0.0,0.0,0.0
0.0,0.0,0.0,0.0,0.0,0.0
