Gx,Gy,Gz,Ax,Ay,Az
-11.317008,-5.798126999999999,-2.5791630000000003,-10.287999999999993,-431.152,38.66399999999999
-6.492569514257616,5.256396041842358,0.16796665480770478,-0.09642356948372849,-0.16486819787142631,0.9373974057330783
2.8767283006707793,0.19147125704741264,3.477427639037855,0.3903035409803472,-0.4890392015164524,-1.2231723761135802
-0.056896599555551354,-5.888624245501817,2.8268971815707395,0.8220316815160492,-0.9768051075427387,-0.6942183069944808
-8.64611082652426,51.05143963573694,-48.221869918927204,12.49401168334909,-2.101684243524571,-0.35477691366319214
4.34474067939053,-0.10896696194629751,3.282451903298564,-1.2570114163744006,0.6202998450486783,0.11198763800508471
8.119130772715275,14.976459121481627,-0.9863926964985287,1.7282275539980723,-0.24561720526626196,0.002101942760212361
9.705298206569108,-4.785029386075378,-1.6400565513790604,-0.6363516166433141,2.4255476953189463,1.2699232144216224
49.91729325796969,6.992203886469415,-10.838126845619339,3.965040645806127,52.317872834766256,-23.328482581691723
-1.4588551058818062,-1.9637812743962473,3.6844406395942517,-1.0037086106522257,-3.3349434750290734,3.360798047737563
-4.354230568115618,-5.360870614194564,5.099245157742257,-1.5313169523168533,-1.3665523764823564,1.0326562292102968
-3.1002752455349283,-1.22212722685524,-4.897103512797845,0.3960614685203486,0.4565590408014975,0.687407622713293
-0.5690398593716828,6.640529287078728,33.22263263735341,5.549034498660859,-0.10390987879586433,0.06680862735236281
3.341702723986112,-7.970664661676249,-16.702595275574467,-4.785522951715677,-0.18849452456848226,1.7566421481887358
5.3110898303038105,-0.9384928938011727,-2.9030389466055375,-1.6366889246684002,1.0804430097240585,3.168142556043865
-2.4632735713737595,-5.064470025071941,0.3268719529530273,-3.3181871841007258,0.9715557925110059,1.5569491626390959
-4.633147637376968,8.759164448924599,-1.2760308557407845,-3.53591863134865,-0.8027141933844781,19.65475623434693
-5.751772769191559,-4.29117386896975,1.6301313177738554,0.18552094271894382,0.4492751130364798,-3.5286023293855298
-2.067236451012488,-3.435255835938732,-2.7056526751523036,-3.140460539222749,-1.1730823324515143,-0.7457071125734992
-0.5456100902241667,1.9639275382011836,4.42527367603156,-1.2106496938100855,1.9864543563043595,0.2870793711054045
-4.179630364983815,-18.446480137543197,-5.354761918208846,-18.588495448446466,3.5375068814850437,0.2348561449457609
1.5683911308165894,13.832884839260188,3.4531709743799093,8.623056511336914,-2.1546454373740014,-2.0959591705985545
3.002924046402893,5.342531907883515,-2.396525271268352,2.3592825978439356,0.2620333612162269,-3.079769792352595
9.11462039506189,3.9349344697856123,-0.28863505567879244,-0.04831332075944461,-4.496602424459995,-3.6994461935460343
3.478712591648762,-1.9014646689251213,-5.526251754856762,-3.2999604363685098,-8.561648779846223,-11.311164143997573
3.2237648501714156,4.031617210902524,-3.8358663301867644,-0.8531214361656183,1.974186447241058,4.609118740344688
-6.15479529527553,-2.464465924160795,-3.447645828818967,3.9244037923965083,3.460683361802576,2.1779984845997458
-7.348748447930989,-4.8231662175282555,-3.489658327438288,-4.817487692226183,0.26295550380892163,0.7976560103097854
-5.37247639044443,5.799349831705488,2.971803102993924,11.244080986868276,-1.9855171082759577,0.633747581825262
-1.547860363582081,-4.364172468316491,2.9338812860866477,-5.4136348627672675,1.18337896335308,1.3675793903919757
2.885362553667898,1.3757576701829572,0.7300959157664624,2.668926611298117,-1.6939169385698971,2.4641621936634586
1.677544503254407,2.850681706612748,0.05907136919614242,3.201505290363496,-2.221889711378606,7.501792919101776
3.5975541033988354,4.259670470249977,4.607116174725261,3.798452336964218,7.549820491617706,2.632876973452645
-1.1259250715947604,-1.2805005555739521,-1.3503970534200704,1.4786539524234277,-6.179357809683751,-0.3790120891047283
2.8542509739567707,1.2620603653327689,1.496680038160466,1.3773365387596956,-0.7850083798579162,-2.9508403472709377
-3.480289830781105,3.597169260970812,-0.7033893864993654,8.96641481817792,3.2596101962845045,-0.1511062894363957
-2.803614898393263,-8.931476799869746,-13.597605739901352,-6.948245314187698,2.2877848884364322,-1.2072439195618028
-0.2939188323780222,6.341325856488183,5.987868539980234,3.936276185930408,-1.7082656445458024,-0.16050842932114034
1.6308397441895535,-0.6888365914868663,3.786889594058853,-1.938499469275465,0.7640660565469458,-2.733814004736941
5.1994873058551345,-0.7410099080748447,1.572339352224533,-4.322984267411707,4.615416252546115,-5.184927924285667
4.6317338845801785,0.36962742986072605,0.2914496719798132,-0.9989506614498607,-14.306724315544042,4.560924714647489
-0.16084415570627097,1.5901878627737203,2.2342874334352008,-1.4668867490932442,13.215463060458445,-5.140968800148177
-5.438557541640064,0.3178450696293462,1.106954544316003,-2.1706143754496336,-2.3163445991797964,3.0812551952995353
-0.10104146343287515,0.07752867700237231,4.9636082190614434,-2.0462291137175432,-3.897169455788359,1.6073085144032366
-0.5045932018163781,6.484746115939107,5.895706801237052,8.105130252420668,-1.1532001689979996,-0.3610749934952451
-2.001481491241041,-7.671795685719159,-1.7818220440378565,-8.53949723830406,2.8929103324392367,-0.8196361786502542
-4.053756978206906,-3.9011683656216944,-3.848430234439501,-1.0187222175580066,-0.15379334432163339,0.2780380063071137
-4.279867556585134,-1.0009829779363582,-1.436431610821172,1.4792555284128523,5.735995059100249,0.539377250067105
-0.9979625023434331,-1.2833435093470225,-2.142108049107332,-0.16381974612676822,13.008265573284405,-7.311192570590563
-0.24637504605034355,1.5590870529106686,3.272874890437814,-0.6250705131583423,-17.21881899561531,8.539092361135383
7.984103690137632,-2.668628368732306,0.23266096138629644,0.7717770841299136,-3.526075578139956,-0.19701771905764942
1.6059779327573604,-1.857890160018,-0.3687136358745611,-2.810880647127231,2.903392872813808,-2.513319729467156
1.446463325329157,-0.9796245905114325,0.5889242551342888,-5.347348701847491,-1.415129419066019,3.6932818529947955
-4.393929696545827,-0.6383657642633931,-2.157581035101015,7.676628022463936,-1.8941608433968549,0.09130117948869576
-1.7724812772373746,3.083442493204906,0.39349292323040874,3.706975062543763,1.0750644566141023,2.419397728976679
-2.7957123371746944,-0.8654883746149005,2.428491114115441,-4.371188964184041,-4.557056347848235,6.318509429196494
-3.6434025560872043,2.3229286805163896,1.8029131119338642,2.4086442028938837,-6.18840281700836,2.059228430079627
1.921865633716116,-2.8308001437935735,-4.403674657952364,0.4873849757301756,9.901153441686732,-5.7018333150444995
-2.109119714326809,0.8334870365723388,-2.7886703672887396,1.3069316434117495,2.066346656344258,-4.74827046101797
-1.7165409206941291,-0.5871603745090089,-0.788996014739745,4.892773618969855,-3.0247548637539694,3.781083567675077
0.38098866989213764,-0.903016481093516,-1.3848595423686114,0.5357122531684015,1.056328010969283,-3.552522855044731
3.944019522879052,3.1476738339803356,0.503411835223174,-3.108714308015096,-0.47174759329531524,0.24516526430409558
0.32065462897940133,-0.030554105171096413,0.8415608662505669,-5.2487037563003245,-0.14898777719631096,-2.4657511341691274
-0.5205310664939182,-0.04482265730912749,-2.257959257008621,2.910571585771879,2.015443141330897,-4.453479653516791
0.9316782678902586,0.8572891617948063,-0.9263341729589412,-2.7026513461312476,2.884530710777044,0.6534633946438084
-0.13104470334799156,0.05034964338616038,1.4181163850595646,0.10838078312937638,-4.253459419340504,0.8930377877361262
1.7454915718260557,1.7663774469571552,2.232546709293452,-1.6627218958058694,-0.14824529773508388,3.761736789638106
2.0933736728062406,0.38642483104999614,-2.038083254535394,-2.9812359667165045,1.941530405611196,-3.0505728332431867
1.745332104059183,-1.1837818406913057,1.9283083660437204,0.16987882996710035,-2.0254574539809815,1.8793919140349284
-1.5119974114271109,0.7993170716969108,0.8175006253347271,0.7672046904673893,1.3536688683111122,-0.4756075100885475
0.6863807868793291,-1.276034295305805,0.599873001604027,2.8599688872228324,0.10992027006737293,1.4733187382876742
-0.9667340000000004,-0.10120400000000074,1.0759124999999996,-2.3010000000000006,-0.751000000000001,2.4189999999999996
-2.7044970976946012,-0.4780623018141932,0.5955416205145608,1.1791991872455152,-1.3714115411827787,-0.4336047941736974
0.34199440086449995,1.409365584040052,-1.9123694160604132,-0.20506307578549898,2.431009925702675,-0.12405499428814748
-2.6268382478821826,-1.3677604667084062,-0.03487107108247345,0.9130204134937058,0.11889222176296733,-1.7112835279557932
-1.657444997311317,1.1290738819842745,1.033923238104022,1.5900884615265487,-1.478168729796113,2.19302833752065
-0.26542293108696735,-1.236887048331574,-2.023899382652428,-0.6469759110505682,1.4010133578873205,-1.3828711416368626
3.424189055396956,-2.1784920696718277,0.46505611114235157,0.3114764051565677,-1.7817153136026294,-0.10326010436249211
0.999651691480042,-1.030001313338478,-1.1623709808687783,-1.5621978145714417,1.4124573836900645,-0.9023288796512353
-0.6334697209754245,0.5419938857011849,-1.0268383722536552,1.3375410837547776,1.1809510535963468,-1.8932555821238584
2.603478393781149,-0.8210157967615054,0.7485527076806651,-0.6022157019434698,-1.9512797772205626,0.7961186425365734
2.2321359025408927,-1.0102219267531491,1.1963849273670948,0.20153078740639407,-2.1181574457186763,0.15431041260099576
1.7971278247322418,-0.022450368010364485,0.5427149989382374,-0.8847272417622281,-1.4445680519530353,1.2300260391191058
-0.019469954533600675,-0.5914920694159009,-0.8502570407911659,-1.1601291342506275,1.9796109135421565,-1.3413849182537754
-0.7866766141881191,-0.37155750120145803,0.6042610228459417,0.6853125967129579,-1.1860807664754383,0.8206709823023559
-0.9947288378986789,0.7721254705467447,-1.1648012892407422,-0.4804680373078953,0.5650207650360544,-0.05144497223459166
-0.31822863357665554,-0.14495776233425617,0.12194116560203966,0.9607014282311372,-2.0140073761630344,0.4983447996592848
2.553669095106545,-1.2391630665595317,0.9492809840014823,-0.7943437458327184,-1.9281776455874362,1.1025087995266363
-0.14361208629515,-0.05946700395818588,-0.724340158912081,-0.24891410213224588,2.8080544731577493,-1.8920937442461554
-0.6009141341031341,1.2705849489993013,-0.8572989386518262,-0.1944821658723077,0.368798571413426,-0.32864447015054854
-0.8083066412653342,-0.35645487819924915,-0.8410580269093741,0.4853459564761344,1.3064635763619208,-1.2356817709212073
0.0985981828391474,-0.36743958927196585,0.9361485093392439,0.290232590141397,-1.9091619826017352,0.5211767504070379
-0.6342953164077735,1.7211297699370554,-0.2531373678572124,-1.1500910326028613,0.9482629693562007,-0.008919703275327762
-0.7844392921611565,-0.33025113853817306,-0.03086230207905266,0.45404293830236486,0.2747123881698741,-0.052990097259073665
0.5170085899729108,0.6893162730426721,0.3197895911279862,-1.076574180429268,1.6732092854836091,0.12033791975362185
-2.620201715841424,0.2563362115621331,-0.16063211100380648,0.26064657026686705,1.053716022754423,-0.021367371444360468
0.652173838532456,-1.4067892435665128,-0.08584529562546239,0.9575538788628306,-2.4850533161716424,0.932834112268288
1.9350286503852925,-0.35135885130945854,0.7757381325106907,-0.23084001255028153,0.12920469516011057,-0.16491308376391173
0.4740802909176397,-0.2860202144395498,0.23679701780512924,-0.4332468477773452,-0.9241478606515946,0.03564593284308302
0.572776690776273,0.012838761417778677,-0.30679486463959704,-0.038969294927798076,0.43165601668679926,-0.03220198520067509
0.19769311856853083,-0.4949703829230938,0.7269620183752906,0.2004695472526623,-1.0583790262258723,-0.23310227083176743
-1.5551207274114256,0.8745621165721591,0.13723850128794424,-0.9402593416020122,-0.5060535600335505,0.056580577298973866
-1.0711035723542823,-0.45131305775051533,0.3747802034737045,0.3473058266312724,-0.7737153289514751,0.05351491818429299
1.1863919970175592,-0.7412829839874462,-0.5592398439279145,0.030271550923529178,-1.0314665658686566,-0.2760307040533487
-1.3923896220722785,0.2906748432041783,-0.2726353791771704,-0.7774290632719395,1.6630625760811029,0.2689573918784336
-1.3237775170346038,-0.6198891450854926,-1.0150151490160848,0.38820259246713373,-0.3000241989929101,0.4728579468719069
