Gx,Gy,Gz,Ax,Ay,Az
-14.281312999999999,-2.291566999999998,-9.195447000000001,-18.980000000000004,-535.7760000000002,74.81400000000002
-4.002047013695056,8.681748862484145,-2.502165369882383,-4.011331722291031,-0.0044808223284627385,0.7277066959548744
-1.6027894604375306,-2.490654802875076,-2.095564703476887,-0.7904742664661277,-0.5169591130079562,-0.40036701818058273
1.712462330003318,-0.5131543353192213,1.2118382483748071,-3.480872087710827,0.2538700618949689,1.6779791559444281
-2.7006406602988733,-7.150290980047576,1.2490586315142023,-3.638101295396859,-0.06689596220235061,-0.9063275394595721
-6.211321989456535,-66.43813928199,39.21338388353828,-15.10433872710459,-1.7112869290627672,-2.1979733242469996
8.411699375396193,18.58122925533054,0.41448574423781925,2.987232957533995,-1.1655670429080303,-2.8498479525806992
1.42812641773284,11.363932056039431,-0.03904804236964665,2.6513438927811563,2.116097503079464,-0.39910515072149444
2.2747949543238972,12.027764732735239,1.526369463037343,1.003553954798365,4.347572387712495,-3.4831925901009795
8.743487611494773,1.2982146912260724,0.871440560752001,0.45119554595573264,8.204049416547642,-1.2851743864208607
12.361801187399319,13.926903535100493,2.342970957679186,1.1528285462671186,35.055870888310906,5.506816462217706
-3.797678768645753,5.369748189301967,4.8409660650795665,1.8416595306132257,-2.3766164300558756,-4.713470268569098
0.02390934696778435,1.3928892721706965,2.8979564673912432,0.41458185168447326,-0.7375172251738746,-1.1560588102680391
-6.057653757543753,4.909738838350223,9.353735916488226,1.21054977699073,2.0450645868368227,1.0338273470577675
3.344758694146363,-4.1623102850319205,9.124140881191671,1.0150647720763128,2.2802989724432727,1.29256757798749
0.9129652928141869,13.89353532258017,59.03749190255465,-3.0106229617173286,4.006616792343476,4.457542762599016
-2.471441238477448,-20.625256173409728,-30.134051551220097,-0.25610460596432205,-4.268156541704595,-0.7141997930261705
-1.7890543927226326,-6.814108425017544,-13.665013049518844,-0.04148505531636304,-3.600661393615274,2.358239221918079
-1.2927843843044906,-2.8808527802052573,-7.508437092456376,-0.8874062934042639,-1.3120182953459647,1.8260804739253786
-3.20821340460818,3.0595532472035223,-2.25372378379339,0.2049227174373624,-5.813296295627882,-1.375593329226144
-8.870972369448241,-14.03709773749022,-8.735224334942549,-6.384191766566927,-7.979943520331658,-10.683985948200288
5.175678999311603,11.010796119843059,0.9877821867967,5.333640863640317,4.4196624109287725,9.172434855272526
1.4330573972301337,-2.296309975638324,-0.02845326412062299,-0.6895145831381095,-0.9537710479436368,0.5546327432901806
-0.2626825178607177,0.971646443212365,-1.0207832241820975,-1.925187060180384,1.5832539549944427,-2.5005514884174325
-1.3082957936815975,-1.1464841005402306,-2.665734303785321,0.5181350634602384,0.27606718766561045,-1.1279630589368597
-0.33423004172294024,-10.263049642758965,-8.41672731479499,-13.477706326211438,0.8373310996649626,0.47223566866931366
1.8603898235983265,19.6011497948995,9.66888262163872,27.037441430365924,0.26558093900626845,-1.132894410156394
-0.9184924577954301,-0.8598566706541675,8.355962489934129,1.0385880410969723,2.6030574024767326,-0.6309778937341077
-3.420456895310449,5.538687962026933,4.825193044574003,5.947764720821745,4.313441790395385,-0.06849290541044617
-3.4608380097833082,1.7324876713970956,2.019944579661023,1.0409155378057662,3.727341829321889,2.103650707859226
-6.287984746962672,1.5785336756113033,5.818074743959608,6.3140274953438915,1.185606938839996,8.41861318998808
9.593147182620749,-11.56631514055871,-9.3390158311493,-10.560798280416936,-7.989030182392944,-10.54674699699718
1.618029681217939,1.5655634142778951,3.2954302153228845,3.9172558517922127,-0.5495716668550052,1.0003144882682107
1.5266111331743837,-3.7509892710498223,-4.476000143563379,-5.105109503917975,-2.4093004790156107,0.948162649027589
-0.7741581190174492,-1.0646215187917036,-0.6959635046387813,-1.787163881074303,-0.05564363235281017,0.11346810078332337
0.75833024499668,-0.06804952125170871,-1.094072856386906,-1.7851489924752553,0.25528193498484886,-1.4183052529172562
-0.791629011590911,2.6062200838557663,0.47250202852841244,-7.812470694997057,0.31897262477686184,1.344975877612849
0.5257451551202639,4.430519761606709,-4.404158975765399,-0.84929188656209,-1.0355085053861255,-0.6594553270323036
1.76450377132923,0.01203153156196446,-9.784243069973996,-3.665955332122924,0.05935103049078534,-0.4830693983769103
2.4497001840866766,-0.4402795171001199,-2.417804441644283,2.4553276803552295,2.6327765444678306,-2.782892385701459
2.3774493388854334,2.1993021509559814,2.055347098949398,3.801646873105129,6.141176742785083,-2.937442039467103
-11.02368404285502,-3.4629668776733595,-1.127126440895002,-4.167409019509923,-9.266493480000063,10.689917511237127
-1.7066968480106326,1.31027261611906,-0.06446070973629503,-1.000067686538336,4.8091697690708415,-0.17690149204406613
-2.0686738228294317,-0.708081302490728,2.296643766731041,0.0673563406895914,1.6662575802897086,2.019053832656426
0.4774834183851411,1.145283220828944,2.7190911792694634,-0.18636259125935162,0.3043030308474255,-0.1349944015376805
1.7928719807575066,1.5787087112574127,5.208152183897768,7.092847673039124,-2.764185297141559,0.37046392599994826
0.5344107742975424,-12.503338408440229,-12.711846444840493,-4.034491966355824,1.8881733431857033,-0.712834243768911
-0.45145045655397364,2.042916932884161,9.947798062279045,4.203570741393415,-4.2462879734773695,2.0698402600211763
-0.47849596044199555,3.6284240161178483,5.712313322102922,-0.17954729753533383,-3.6620109686525026,0.9034626419080305
1.300436511990089,2.2963829407689933,2.7975946218076464,1.2127720191210491,-0.2563972198302664,-2.062638426439776
3.411553846357889,1.1920941488835481,-1.7030350366384068,-0.5320694703790805,2.0659310271253113,-2.3629970115463284
-1.87825518581357,1.8429983427947556,2.472414266194823,4.77643140978314,12.172050755887163,-2.7900202332516333
7.907147788809599,-1.0203003091774405,-2.2122144336422074,-1.2166910323323719,-1.7254085372764798,-2.8570479102374797
1.0314457845772977,0.3497385865098771,0.40911372127490364,2.5704307354723834,0.4006884468872488,-2.1014268999351726
-0.7909495609760726,1.6252027331361676,-1.5854396191069027,-0.8615518152851365,-5.255197454399692,1.5334887250822549
-3.512021404439537,2.043075515925972,-0.6231822494365165,-1.668291877282998,0.5368273642645331,-0.16070722285589767
-0.10293832288494764,5.57466473905837,7.3131562046418885,2.0535534005595673,-2.81594248407199,1.4336698875976166
-0.6923929988822257,-0.7548125242611681,-5.023334195502086,-1.9802797826644027,2.8444525324064607,-0.20826302874219937
-1.5121921820014392,-2.75129713253913,-0.852591130900256,-0.07563550716369163,-2.4503545209982303,0.6127052519211083
-1.3285796381618726,-5.586748000465157,-0.9517369885954285,-4.289063605363131,-6.652693108052944,3.2964169681173288
-1.5908205192069058,-1.688834363160186,0.654958962147302,0.23189098447279344,-4.61210749906758,1.3406467294631204
4.478090494936797,-0.23969066749181422,-0.423314511465399,-1.4722510029843836,0.8828608656484747,-1.3856606363887911
-7.273222838432753,1.2611418224623603,3.004516120913964,-0.7144417958070588,-6.63055192147076,3.5839751488295164
-0.45095504836029365,-0.7384011669564882,1.338876641705699,-2.1606340858191837,4.414505383136181,-0.7281969126084131
-1.5729670220176735,0.29590923434550875,1.8222220047776299,-0.7785948114726348,5.954314905142105,-1.1441242747777647
2.495928838182328,-1.8932941973601192,-0.12057519261546079,-0.2954669592324666,2.3458326121432505,-0.0894457773626828
-0.7915469811611826,0.2474738500927034,-2.008058290862429,-0.09259508047008569,1.8110737207185839,0.4472046085928749
2.0983307577840526,-0.10958942123188464,2.4194259084722054,1.5689939463755,0.7231619504128967,-0.8447434691908657
-0.18461462782159554,2.906480514776592,-0.6349609168413787,1.7314442474682132,4.428665521347828,-1.1414264475016485
0.9436125952391567,3.692870520092516,-0.20724232395332576,1.6506735462533837,0.7466701793358519,-1.3004568919119515
1.7703519910719723,1.0852070060951244,-1.1778411111274814,0.6412545340530161,1.9523173875684696,0.19742711597790752
-0.26638527162425873,-3.2923397203649976,-0.5169854391538824,0.7662723008064432,-4.161353948537496,1.2198594411354096
2.1776734737058616,0.8644568645629056,-2.011047154874197,0.5282341166494655,5.715285718557034,-2.4760500339456515
-0.4743394889067903,-1.5811035353900462,-0.45385265477342357,0.702273409872801,-4.22390652804291,1.6459189207885454
0.5715748302143789,-0.9049149673265252,-0.30359241230367073,-2.234553713518241,-1.3011100261317934,-0.13678533922917663
-0.007816533597147513,-0.08639399041521334,0.4021827082786356,1.1534473275253418,-3.135979049011262,0.3147970929401776
-1.0077362479292633,-1.9376778744967966,-0.07023363909448677,-0.1200829030981223,1.70955749708258,-0.8467079735615967
-2.3842667970401616,1.4121648826071653,-0.44231959224367423,-2.8063229239252334,-1.6497168969065799,1.0756422436681847
-1.0027124937131782,-2.936487219945369,-0.47696739808387956,0.1133670848345798,2.081509283459237,0.3954892132837604
-0.6535324520849395,-2.9169188795222842,0.11444781126402731,-1.4846691784783106,1.3069098130839554,-0.1534866125782851
0.1960634628616904,0.506924917997216,1.8258358883406478,0.5485639786514298,-2.703520103696395,-0.2933541337893931
-0.793324768884005,3.4486052996355765,0.5197261408520227,0.3779637274378458,0.4742398707368807,-0.5954181109903398
-0.07189436949187777,-2.625384678151625,0.26887923555727833,-0.3074528765101142,2.2480827249505206,0.9525408904536713
-1.3297222345334476,3.1042837385957434,-0.07235029348159144,1.0232963792065917,-0.416092936063273,-0.8639821490395284
0.5245258636510519,0.5169166384834797,1.020162994609889,1.8585101863782383,-1.0780033296422964,0.8531623105054873
-0.05939506683337925,-0.559178577467877,-0.3073985992009472,-1.3267741373443438,0.5032896564576179,-0.2778295751909911
0.8138593183887297,-0.048341889237967894,1.2188359027673878,0.5613487142803454,-1.185102213068577,0.9835998802319679
0.6453722950188834,0.5501377589658594,-0.7246521589587949,0.3733860610299793,-0.7348061617261864,-0.39735548484470534
0.6655200205654804,0.13945281695845713,0.908900955150302,-0.4084687954414446,-1.508215423642124,0.7806760331774734
0.11185000000000067,-0.3888220000000002,-0.31425150000000157,-0.5670000000000008,1.5669999999999982,-0.5090000000000003
-0.6032057433351798,-1.2414835495652146,-0.30031105040650463,0.13464772552939586,-0.41928235105013556,0.671610037273493
1.4524972690973363,-0.2826438389836564,-0.3080626138123315,-0.32719089577162375,1.3256475466347302,-0.2211119929472808
0.1782188759113189,0.30749760986131836,0.5718999077834006,-0.49007250926670143,-0.6995972730186987,-0.017003557387516577
-0.20140221782536358,-0.2555747905486708,0.3681241161486043,-0.35452888280005385,-0.7020162958124992,0.03906934698794337
-0.7376355408890434,0.6433431417274469,-0.8054681964252366,0.49120151802471496,0.3135675394782169,-1.3196376079878032
0.6022869627159935,-0.7945129658138051,0.8142330766085364,0.5515881836758423,1.2422294429144487,-0.5378013423305559
-0.8811729191999784,0.8097614578550052,-0.24607926018404624,0.47964404774196756,0.9595842091003757,-0.6792810454316599
0.14252454043514903,-0.9377313699398601,0.5512112873748838,0.0054899033138114395,0.03339532733174688,-0.2899352811100901
-0.5110807447657125,-0.03884294095879093,0.060406361967857036,0.45641903330592304,-0.02413115611222555,-0.7281664497042523
0.1951061164057545,1.247783114933389,1.3208046761591816,-0.314360847305451,-0.9464789165924952,0.6538178639715695
0.08302319116803192,0.24430636160440278,-0.020674690868937473,-0.2157934444836161,0.7352765079145175,0.03933447403410479
0.16158854325595273,-0.48692817358304774,-0.5211889571711213,-0.023899082999297078,-0.8205810194364418,0.9508767004385158
-0.7447281053401684,-0.3205606478236773,-0.3336869105355138,0.0013734360118651256,-0.8087743000062417,0.6146301687398276
1.0064892399573415,-0.975123743403326,0.5493504529243647,0.05377183982726083,1.2379471087295615,-0.15638896346270914
-0.010130321096549447,-0.21889249742654562,0.6357924599447455,-0.5719060609253708,0.3362360546213557,0.9657644730559554
-0.02215354342184206,-0.3881244621111224,-0.4707574512952263,0.03986256422611442,-0.9578548670677204,0.9937470602690437
0.07604439540979441,0.2549475224992377,0.24391528462636083,-0.2660153441023245,-0.27503441716098687,0.43113418146415794
0.05367342942979195,0.9380066233816129,0.4030056699097848,0.45767518793931516,0.00020382252022994873,0.014166327566790177
-0.016525218981704226,-0.5264178563336055,-0.7163840274069955,0.3994274219637237,-0.33267078605684386,-0.39795005234052594
0.35182706329349456,-0.005293124567428864,-0.519718520004373,0.3483031506728394,1.2919204397774675,-0.8510800401657663
0.26403818553464026,0.032753788923379434,0.019610312356112145,-0.03871810783596011,0.0666625243732347,-0.4497033292113543
-0.6879337922704594,0.6353878248016354,0.2615907174111618,0.439598168627391,0.48632266084469394,-0.5867403180420182
-0.11694636610824971,0.40118744351865804,0.3896409972008166,0.07130216648697052,-1.0956518489278508,-0.4326645711777083
0.14587112721639944,0.06287579947062316,0.2333499849391649,0.3404276317139083,-0.3186872731805067,0.39394008895192045
-0.43624599129558717,0.9184003411200558,-0.19702936539787821,0.12446986546150457,-1.0920318112510428,-0.7950338224407673
-0.37259507171671596,-0.1731806514551748,0.44170640330675676,-0.251615136361534,0.14917781569927624,-0.27555101679013316
-0.4243809917883238,-0.14656439154757084,0.38490241437440786,-0.3787287686433779,-1.0235253740303312,0.48235507565661845
-0.36614091263718224,-1.3096127023875457,0.1280678165188254,-0.7938771323364758,0.4815547696524433,0.10991957685668166
-0.28693082661486224,-0.14927838724558068,0.4531587308380698,-0.2007268086906197,-0.48978032114973596,0.8069272576020725
-0.524486440271854,-1.1505344803204975,-0.35092641785740053,-0.0794947262560477,0.3324918381841693,0.9562384644932465
0.7220551320681377,-0.23367943428846205,0.10653298319171109,-0.0243251582507642,0.5431161195217156,-0.21107562383980927
0.619368988415695,-0.032315353392413315,-0.653839221423087,-0.12974249546694852,0.21102678855032447,-0.10797954558296896
0.07250154558209526,-0.00318981677517291,0.14342947119862728,-0.2627284836253567,0.7797172561401788,-0.1533832931085891
0.09489755449034015,0.42729805410704935,0.12799681821706865,0.5651592524267905,0.23033451143499256,-0.2246476042342052
1.2255037199299104,-0.6997845096008677,0.05603755745442526,0.017987035704183668,0.20085299651022048,0.2705289128838562
1.1895722001755333,-0.051424503078131706,-0.8215357285103634,0.5189735025313891,-0.051909388651826385,-0.3962239324847994
-0.009383385902777042,-0.4082287055613662,-0.4152586700376726,0.6686465123037822,0.9774913493911361,-0.7580997285984097
0.00775820840243735,0.941709722112929,0.049997550539198576,0.8240647736781785,-0.35271688213281926,0.06894665405133005
-0.2606833359110554,0.2619400218842519,0.31355998200906154,-0.18687380297032954,-1.0574079324729706,-0.6056990696547868
-0.9726968684165294,0.32997819707699894,0.09199107336355061,0.4491385177996188,0.07540647171407558,0.4979811119727542
-1.0832395296695505,0.3295024772908644,0.5882973768400679,-0.21856154489245222,-0.022089633519056906,0.7952369093814355
-0.20654652945634652,0.09120844431930664,0.19230132697886979,0.4008120114450689,-1.2131655252148998,0.2011409615284019
-0.0912541862986593,-1.0078095252355521,0.40722978825754913,0.17480979944803204,-0.046952523834110416,0.5447819762596229
