Gx,Gy,Gz,Ax,Ay,Az
-11.288259999999998,9.024425999999998,0.255679,11.348,-528.8199999999999,11.162
-7.736375022161866,5.798943413252275,3.9561591761492014,-0.46677222538695085,-0.8340323521918611,-2.0406509587163804
-3.2507376208360164,4.784646201947572,9.342743042610362,-0.7669660749105077,-0.7927560938759424,1.4657463716063786
-4.241913858555863,-11.714494599464063,7.230523498010825,2.237174110629311,-0.03544579674960441,-0.8777599117831556
-1.7241151391461096,9.339980724838671,20.870801040722093,3.9401333077197283,-1.294680509052881,2.049560493558171
-1.6146384478014506,46.59988255753301,-27.27499826851629,-5.6215797330212265,-0.277152042702538,-3.8705349157479785
1.0265102231714813,26.554801319332682,-2.275198694826334,-2.858922779120974,-1.8732966946437575,0.15945405130588589
-3.4297308035978245,-16.868364854634155,-0.9547517481371173,0.3040191543359137,3.463634406148217,1.6809668163822244
1.4795078951904506,14.401350803343707,-1.9700489681394586,-1.566465510002368,2.3972094263343777,-2.5146520988701937
14.179797291550543,12.814769323291282,-4.396947158577214,-0.13478377528115815,72.17386515016196,-2.4076353125621246
6.542050699645624,12.33233072665541,-16.66734574776013,1.6308693359572806,-13.764977324147322,-5.755511101625017
3.089838406239834,-11.374325787524828,-11.510543707444532,-1.0797009519140712,0.011084510372382228,-0.17209671102304497
-2.0891895877645705,-2.1577586539891755,-18.554965349543515,3.132622125912272,5.368690570195852,2.961143443102281
6.911602265010016,-27.776900139276076,-24.86183358146418,1.2280799961633693,2.180592026985302,1.068792923828986
-5.5210328353502485,112.77031188631743,45.532220422244436,-10.56259753985405,-3.695743559027092,5.648676131578231
-5.690104262901661,12.424232045568829,6.543396247592385,-4.552245985633906,-1.0928889504086152,0.6353341344237181
2.6641290865320064,17.583320085558395,0.9249622084771885,-5.880274644187588,3.355423799749044,-1.7543430535359383
8.926088944541302,19.347914821705615,2.474950992472099,-7.747893663697582,-0.7592694958570309,3.426945671476527
20.061683629977047,32.76391314384091,14.269135927583854,-5.870750000771845,-11.457412230566998,-1.1562508073049171
-8.301659750173744,-18.46269891133042,5.84788011806335,0.7664733515626972,0.868487448075582,4.0198728628414315
4.4311665511926215,9.810151920525957,1.9817577879054835,-2.277817425953311,-0.25943579890196905,-1.5305095687776364
3.7528352668672396,18.652209454680683,14.515808484638065,-2.307182399448404,1.7929498612117358,5.295756825583572
-3.9827828767428786,20.00964126724496,13.01544353143752,12.205431488548356,-2.7051055836278444,1.5654078258772413
2.1597484554544555,-67.65277999118877,-22.356825570208812,-0.7856171432356629,-6.548424244700135,-6.3822218059313975
2.865781690374019,2.0888939145616563,7.655205574215404,11.60938805139067,0.3089645365161453,3.8785668161318787
-0.8352171696221795,-2.0301902958099913,2.7729423924252727,-1.192456692590502,0.8926778955113843,3.6570068143259653
5.076779648808191,-6.636602284769604,-0.6222834735939219,3.2720972771030636,3.185937559968182,1.584401044373685
-11.12007473499305,-5.83076719633854,-3.4327113958811246,-6.178174858899659,27.801892455012936,7.144299915244499
-4.272584808461187,-14.36248584877504,2.5908493285794596,4.947034182452229,-12.588011710384686,-8.017946550163929
-6.205102168402579,-20.870981371291336,-3.4969871690501813,-3.4978109711322394,-0.6380828747838412,-1.3275145530417918
3.23423437532339,-22.349003502516467,-9.923232912994054,-9.934820897250788,-0.025665840795375483,-2.2545934974100454
-3.567564610512626,-9.98991830059008,-2.735444986270796,-10.027616242685834,5.452771090308401,-3.130521731349206
5.3041670706063915,76.00365703353557,2.079256912387777,33.99033179692108,2.3601155274923538,2.5440751952500325
-5.373458107552703,-8.087522472816735,-2.9028787200857105,-8.406091295656488,1.916360421489962,-2.9320771247437216
1.8721632431392488,-8.191585576803119,7.5005987425535166,-1.6096790087248471,-6.598747704728693,-3.0453049419401133
2.3414866405077235,-0.7971762237795788,-1.7894272697478857,-2.458728240752907,-5.8712419344427484,0.18437934504324166
11.893524846770685,-7.132888404290769,12.737773201390695,6.217739590267362,-20.256823112579077,-0.9609882205514796
-1.4566446268355921,7.925745155472377,-3.778507861949606,5.063448699193364,6.577296125909536,6.339956197219209
1.8830770598318947,-0.008326021999782163,10.907576037499592,5.176802986771676,-2.434339754681748,-1.7792280513498975
-1.8016885304872214,-6.751219550304102,5.8168579622613645,-0.10783936436899139,-4.958816650672317,1.2908962293517756
2.110602629889975,-7.064650311494237,4.070068018448344,-2.192679483162478,-9.497084152834603,1.0166758455406935
-11.098798904958585,-10.385018267422742,-7.5835936931544445,-14.36918089915012,9.59376277252315,0.14954714888416593
2.7026811421909445,0.7188735180045153,0.1898876186406071,2.899344385929367,1.4708329250495278,-0.39068928908853273
-6.261090843479986,4.80042934055086,-2.16364477975907,4.6483183622003255,4.564394379613139,1.5311999210387306
-5.956668033747238,-8.171266299712666,-0.9086367687402825,-8.765311065097036,6.156149730001799,-0.5323575513662705
-2.6263139506881563,0.15487420566809174,-7.877977968241079,-2.438236592615124,7.56666549036288,0.5263440883368375
4.1029008530234785,-2.313020858179998,2.025031000978637,-1.4987323401480646,-6.313938799925541,-3.0651556401857167
3.758568937217758,2.0350883015107057,-1.9381847740213556,2.4198974765107852,1.1046424622609667,2.9231473004667086
3.9283114039602545,6.810881590663385,-2.615318279517997,2.274513427656907,1.820118946898666,-1.117107165452582
0.8944352224461647,0.3539635952556702,1.452301339646806,3.1069197179841113,3.5677052465131567,-0.27872378307796386
0.7101853880857438,1.9371225746453533,4.119259406804048,-3.198286223841235,-6.0317862998291805,-0.1394100522708432
-0.931585167294052,-3.116548553454613,-0.3866133873789077,1.5958617640975326,-1.4713881103769872,0.40577508772485915
4.518448896624124,0.02818900903479926,-1.8663031602518134,-1.645206295696061,-1.1576379489094388,0.16901480520343054
7.4338630807290915,1.1912407319670013,0.9719360557209051,0.9423347419816686,-6.540572994114577,1.2739059720119568
3.9030065644209726,-0.7320973606294902,4.419484630415999,-0.4047761598509087,-3.926654636090552,0.7893008874863714
-10.105831472243898,-1.4252369247416299,-5.310303475364338,1.6836099430143614,2.3711600810419657,-2.389909531289833
-2.5399778508808235,-1.975147660384066,3.2086730976146045,-5.123960507751813,2.121090328799042,-0.5336880984877146
-0.9468735178842753,-1.9920848347083764,3.0172658685701546,-0.10179869581154066,-2.348853869706005,0.27134520039249366
-2.4317533236484556,-4.41708063173421,-1.5149007324247121,-3.241317913466073,-0.8767204453053554,2.0545643919444365
0.16132729768676313,-7.390916673044053,-0.9354724167260208,6.035457598501274,-3.8251786279670936,2.5816423059106732
-0.6588291287617811,2.331091901367138,4.629480670145593,-5.168617046332992,-0.5869373441596257,-2.0476474107818756
-5.528468297710458,-2.4954112860183395,2.8129349291461256,0.7626465873632322,3.4980028520342854,0.8532395932006359
0.26010341991923314,-0.4483530035874843,-0.5124405923525027,1.3153035805297886,4.022769938168476,-0.736069445232004
-3.746261152501824,-3.203861832041202,0.11869491520304365,0.3016022534614078,3.609426674784194,-1.2341216969741597
12.895718511995014,0.7084737820020759,1.4888169099469195,-1.0754356415871829,-4.974641194733561,3.507185350610848
-1.161683629859975,-3.1117304060291473,-4.116908168487408,1.8439381661584817,-2.121238039041624,-0.11298056261851264
0.994859200871823,-1.3795668593236936,-2.2492988462153027,1.0047309949740661,2.5796058367262145,-1.0020253248838191
4.783603814558422,2.947910075597456,-0.029682930330039548,2.657931794010607,-0.6962457969884117,-1.7214243773669577
3.467807816149834,6.236571857274857,1.0431905233689194,-1.1759713691382212,1.5787402956650545,-4.167849084963032
1.0289095015027865,-2.9780329120624307,-4.641048761707387,4.798803779702036,1.8995924459245965,2.1871676888892386
-1.6599260627823018,-3.473830221770345,0.9517504308284735,-0.20877304915310857,-4.51536715847376,-0.04194229562505028
-4.9877922649726845,-1.1362822476102459,0.7754766864822198,-1.336499430293624,-1.2729878788059867,0.06624313174818547
-2.491235862471995,-2.198192162960492,0.3165847305287717,-0.2618959199652931,-1.5778321752236628,2.795993986139712
-5.171319065529227,-0.4717102150928489,-0.48978349327821813,2.062689932031108,2.803481461338459,-4.268406682359217
-2.2169198008027076,-1.328528268760223,5.630756101947819,-2.7414039381325632,0.16301483545640583,1.754020650537017
-4.808586812983139,-2.9314803946040606,4.396023594340296,-0.5459888023094401,-1.6263421493787011,1.943397627299476
-1.6838524304377096,-1.6014056956675062,0.2662891762897982,-1.4820237293907337,1.2908377311550097,-0.8722984194764932
-2.2999501395573096,-3.9362064020232106,0.8360063720198204,-0.5579954808572561,1.362226791912844,3.6367199092566875
-2.4703507344431377,2.5406755771800915,0.18525268294141783,-1.9558146994316497,-1.363800714554989,-2.728569499087217
1.9242205605466962,0.9653238238946114,-1.2953974227324796,0.5048873280786097,2.5272663600529968,-0.41981198132213665
8.164040898910969,0.040569961219179385,-0.7331451540723883,2.3357580086566823,-0.2887881780587781,-0.2568704110058365
0.256687729923339,0.14784012501886656,1.362475045848622,-1.5817445110185324,0.7677292928172854,-2.082519055122971
4.805213501720164,-0.9521086370101481,0.38432527122155286,-0.1742508538451713,-1.693714846447839,3.01542722855899
3.0595307965404235,0.30977317808083493,-0.7505950933396981,0.15782725585454027,-1.4039189260531795,-1.7069893920007466
1.8772547800829964,-0.62289198173148,-2.6374706289461134,0.5616298135313692,0.8343070087491014,-1.0298232927802338
-0.4184932362731326,-0.5190625680228489,0.043213650589792985,1.79579460224347,-2.2527335076067536,1.3642369780076635
1.2453116695725357,0.07753334118370814,-1.1060929845681267,0.07297354873669804,-0.19168135768360506,-1.5971267895833674
0.6324897316562643,-3.199909114965055,2.697195456960315,1.5381278742750317,0.5136032073312782,1.3832874164014197
-4.785871049627605,-2.898104215485458,0.3197889014391515,-1.5300322612043336,-0.08181122147009345,0.7633484000271473
-8.510614912712418,-1.4703632682193672,-0.37843809505791004,-0.3507126479755179,0.3478346319713572,0.39218244385333123
-0.961319064421898,-0.9032298954960876,-0.992848273673093,0.28371201219327324,-1.3477706623822514,1.0391619400668266
-3.0764188920561413,-1.9807086291437603,0.08242966826059639,0.7595556336164205,0.7250988451646742,-1.2626978219944667
-1.337044468018818,-1.574813890794789,0.3801961382835348,-0.07922907884926467,0.3078685312166203,0.28350309812372854
-2.284680024677779,-2.9359767197034077,-0.11451774783880653,0.31988558141330836,-0.41038932123703487,1.4627764314180616
-0.4290082189885773,-1.6639088166630867,0.5496627303445079,-1.1519015621259303,0.22167316232367118,-0.5820905771907097
-0.7841683890841395,-1.2979422966765877,0.37440045418029533,0.1527212856108664,-0.7781250640402868,0.5780876962123678
-0.6893684696815028,0.810330224340353,-0.1216307780662037,-0.5813008395314156,-0.595265168175754,-0.8358906152763782
4.868446489642984,0.5454494636344669,0.7928594955862889,0.2661451679527441,-0.417984080961457,-0.39503720306962176
4.558511247275789,-2.2863596899316567,1.7328498893270683,-0.24227759566145268,0.23758491911198765,0.28013124159540337
-0.6782965960350349,-0.5896572657773165,0.653310321541481,-0.38600526180916395,0.38909101481046876,-0.30008072486664983
0.9054050637435607,-0.40112192664981094,-0.34177066995676564,-0.7860199517643292,-0.43090674526545847,0.32450864718374073
2.1827700934078083,0.7909737642748602,-0.8505717252150686,-0.9322450253335871,0.32088068099045763,-0.07706022956348635
1.0961391413244548,-1.2126440541562062,2.5726904436177103,-0.8566910841807804,-0.14937563715220747,-1.005329807102424
0.18437529109279405,-1.3406905629566752,1.0947493917883504,1.1000644068754513,-0.27839548339137776,-0.43392102269362937
-1.544503105697916,-2.617875319484519,0.056020403110580874,-0.25220383714096295,0.7657060944979337,0.08034307956069742
2.9581379139181703,-1.1616018364231593,-1.3866318590042004,0.13937591969879448,-0.3020357069810182,-0.12597255816379893
-7.881993861521298,-2.9312564796837757,0.692299171603636,-0.5771242966186225,0.736123775376753,0.9513247093624326
-2.5493673784927577,-0.3858295174958837,-1.2768912576436542,0.15499298101784564,-0.14652638182859112,0.36286086012899266
0.12652316911471262,-1.6230495806574923,1.202391421014641,-0.42702894379025824,-0.22271356061297914,0.6372504524263779
-0.9218977255141982,-0.9661162860214769,0.6049098122195278,0.37378784391363873,0.6432563390665844,0.27978325946440963
-2.5392628666583006,-1.7401269320621005,2.3462901249770676,-0.6930117602283163,-0.7143520259722433,-0.1047485850021661
-1.3326806641916087,-1.3196472486008934,-1.418664149642099,0.06856345178582157,0.6154009638277913,0.6171964017777076
-0.4636307336431257,0.18934160760510466,-1.155491275124032,0.30381113384325165,-0.4877987798478022,0.8472987053454293
2.3153143637858635,-0.5387547450120969,0.8089075947479527,-0.29681393869014805,-1.1581809258510118,0.01570832614670159
-3.925390358212826,-1.178551881761475,2.5379229109731583,-0.6673143403397677,0.5073307260150692,0.4800304196717835
9.24880511537365,1.0070794701191974,0.024844782465204496,-0.44783632208908364,-1.9336069599724341,-0.9697918502732906
1.8814987502759393,-1.8102694407734155,0.966398851763218,0.17104644435780625,0.35231280489735317,-0.6208995074208903
-1.4650901267802214,-0.5730932862479574,-0.09804461397051512,0.5780022981034874,-0.07848717056863436,-0.07248376842496329
0.33600776932152066,-1.2674816545444347,-0.643622388649514,0.21458950950116917,-0.3415508591028513,0.15244865516155848
1.6839849752154934,-0.41461979859520026,-1.7544294564555376,-0.18538015781804082,1.4671510596788009,0.21901910056560303
-1.313346302287178,-1.167933659619763,2.2685603915595296,-0.8445955200752903,-0.2665679561084801,0.42253616188987475
-1.6352380948322303,-2.1787942237153626,1.3231741611583492,-0.2959690038800129,1.3432896746760714,-0.6605575155783429
-1.924420488523016,-1.4766271008621006,-0.6454382895554387,0.049212055381721354,0.4294039711721725,-0.15363296207193194
4.972324241480731,-1.2808268399101976,-1.5784167476182773,0.5777382645693601,-1.1342116098142452,-0.678972326900853
-10.060969429900368,-1.4194778355649524,0.5917146284365034,-0.14865219357346504,0.9824649535746356,0.39906395206886836
-2.0607071331854385,-1.4547429143860602,0.7798274777004306,-0.9730557245747873,-0.16308251654562989,0.7368379186105265
0.9136526509596269,-1.4469776577318059,-0.3746078070918766,-0.39928293747895094,-0.2340826983799965,-0.4419020927229523
-1.783762242773994,-0.898110166473342,0.21937095893745195,-0.023313083775236887,0.38706785216569944,0.47532290577148384
