Gx,Gy,Gz,Ax,Ay,Az
5.284824999999996,14.110559000000007,1.352629000000003,16.984,-556.586,-78.45400000000001
-0.9351498491392416,16.046076511751462,0.057133816444614016,-0.4230030940578158,-1.6843251623859299,-3.044766109347183
-9.84522054969893,-2.236219701677496,-2.1032058761769425,3.6347840696334166,-3.2710091996061603,8.233639969775512
2.826301117087884,16.93986724684395,1.557746533622093,-0.05914116576064776,-1.8116690345228192,2.101524562692295
-2.020087496244501,35.45492261489289,-1.5705506309221842,2.2959197146550405,-1.1872627471550325,2.462863049290681
3.6119577619313037,-2.4969112007968906,-10.77210812639855,0.588049419236496,-3.1861612683659923,-0.5929822241841092
48.898575021101465,-181.10678370641665,44.22682637365195,10.629701629260147,-3.86838561922297,4.798378870690666
-18.25867415954487,-16.214537414872837,-8.18376099917675,-0.007145944273498461,-1.0309395306998361,2.6150590037262273
-0.494014120290972,-59.93725375954308,5.459424607988208,-1.223523243726595,-3.306021996850545,4.395700174210483
24.26103015091901,46.56780203123816,-1.540421884029637,-1.7245534165831795,-4.584838573129793,10.02753487712651
30.874823608851028,8.232318352713888,-1.098718952293753,-1.0238174539237674,-14.696531246830833,10.712880407571765
18.745532375336808,-15.094844866334293,-14.317310498960968,-3.171544229614251,-4.209685633757845,15.312270491174031
-56.07274340709734,47.9575588284179,1.166472106276416,-1.5974600120511164,32.909862844225685,-58.900330523148334
19.53585572142803,-0.18717556833184723,11.201490633810403,4.252626397383003,-2.6812853032206583,-6.644990208309275
-1.2385594079551296,13.021981279057517,18.17835627443078,0.8181937406502843,-7.395990243276041,-9.778903068416568
-4.684863902837764,16.121495211207332,29.617988546098818,6.071991868732206,1.7550718340440523,-4.101363758158124
2.6940528524607483,-8.126741238373974,47.54358063592699,-0.08975838146298087,-1.6811164452978917,-6.346284449439561
17.770525719500046,-18.68675896952974,46.12888762398472,0.3735777311474998,1.1716827797645057,2.4657002527593224
-3.6748158333992684,-12.424491756045668,-112.31052253751879,4.761687488668449,6.786540986264799,-4.475275918976847
-11.925868300426096,23.879219494626348,4.0888511254448385,2.9884400276363063,-5.636705400478692,-3.2117229377647347
8.11056984821784,6.550025465022392,-5.075441860948093,5.76951320914639,0.4292600405133272,2.271800944879544
10.592322616443075,-25.89720652338871,-10.50629587195701,5.832910899924709,-4.363617613621444,3.1909436628280803
-1.0647703163973157,-25.899299496367092,-20.135044513113172,1.282653337281319,-5.829941354161106,-7.620449362027397
-3.528866085933204,-65.60681845085635,-9.777343491524126,-3.519194340536118,-17.550635572200182,3.7685676700774127
-18.643370153126178,6.559004270534626,-4.217495275577454,-6.238504807945514,14.11894538041554,-3.554526171033828
-5.69907520794723,-20.46189621134672,-7.997361750142087,-12.731141084244781,0.4853999531100772,-5.426837168582585
-8.601249340364088,10.28107232381635,-4.734988763937908,3.1521364006123207,-1.772061957450906,-3.9112034448075503
-9.875398483072095,-20.370530904564607,-18.046648167403763,6.020574467618051,-0.4532369683688653,0.6565924721354495
2.5495062592686613,10.713313779252136,-13.086402404540205,18.299201076586446,1.6717386392304794,-0.3694297701803736
5.02375187309339,35.11127250019019,-2.6272256003284533,35.306538826658226,-11.180113205317317,1.3365068824525108
0.8774582879728214,2.678994856740964,23.0626108834048,-20.575140136853065,0.5102443927248421,-1.5863664355821674
-1.0365338232878933,6.82308722419884,1.366628337597291,-1.2031533967745798,8.069317752859936,4.545595904214392
1.986486143903602,8.697230568177185,16.44184693262668,0.11103571308894214,-3.635363611456393,4.973279081811587
-1.470403729439614,-10.064141510737663,-5.872946143815168,-4.924814716146018,-3.346487929151226,-2.408520951415305
-12.687947746651844,-24.153702653540194,-3.614949971193834,-20.68278442851277,-6.330199792035981,-7.3541454289195265
9.457491765262152,-36.31112155442966,-12.29527274200463,-10.459652410603242,-3.8674702944011616,-5.437056017279923
-13.9723335286545,13.248823822576952,8.161224718843549,7.60895042958787,2.8933499827589344,-0.45433924215726273
5.1834611065446,15.8721817647223,1.6692271225074204,1.609357806208462,-3.870870234117229,0.7759170182450399
3.761714431965091,2.763932302819782,1.0837315580647628,3.421487586528036,-5.811979808988131,0.8551183957812483
-1.5874387587715812,2.284652581667144,0.8215462965164626,-13.135170278978952,8.320399018242156,-4.328868757622899
-5.6271368335897485,4.031504881193716,3.8135762802995936,-7.093696165710943,9.315804513178891,-2.391118743165275
-8.784472360865923,-0.940471652786059,-8.789791266627773,-9.32333035596012,4.064806233820882,-3.172438835306629
0.348821045307883,-2.359590922638735,-4.629687219774349,4.236442004540125,-1.4843961433151915,0.2709912100798473
-4.59486903532312,-3.7482615422034,0.04642884796117408,0.9954001256901108,-1.7252779175961415,-0.4763451559270675
4.181569683202034,-11.849636798404987,-1.5060370406189838,0.6936030056567954,-5.585893146034735,-0.9764227347415787
-0.928317133472528,7.730181379015706,3.536108029691146,4.606477504834663,5.123858134148577,-4.177474598880238
3.697495566324344,5.30466805072148,7.57217387590833,0.9452207543670483,-0.4512287699972144,3.333398235888546
-2.2398446136719334,10.946153323512053,1.5914272555699074,4.8944211120916155,10.77012287526788,2.947605943840207
-3.358742613192847,4.026505369216165,-0.5787746945664937,-1.6255720029566525,2.831936206038449,0.2862769638522418
8.001709575255859,-3.580365339270576,-0.22782394783408444,3.2437136099826906,-3.9904889256671057,-0.009659615141287992
0.3185375387034226,-10.413659654186615,-6.978576812962664,-10.448243107642131,1.0100600407807776,-1.7766274459060667
-6.40525264652975,-0.5590165204061259,-1.0869794225815732,7.191128104821997,0.9489678611906229,-2.5285226161046026
0.4967557913503329,-3.5962486464697703,6.058308733336146,3.4693884949638774,-14.751158071286724,-1.2341790088047855
2.1422767722991516,8.184409500078281,4.613509278677084,-0.412152597160924,-7.926404973121512,5.8839784804574204
1.1646588830180549,-0.07323532845867242,-1.2011779982965867,2.870946007018713,6.262774459078453,0.5180184388837454
0.8006159155850776,3.476502913920697,-2.3770107093642854,-1.3279821738184157,3.184305473255734,-0.07103276610207865
-7.395497158595992,6.599938292547705,-4.460161779196797,-1.3713975025991405,18.365138338458973,-7.790785584236996
-2.319920185459905,5.462894787481005,1.4448610865573563,-4.689409652551267,1.5386514268728528,1.9558836969649644
-3.001141063955575,0.16184196425549202,-2.027319349874027,3.8976111799294086,2.1012081242728167,-2.248023044924289
5.785154224594942,-6.553176679072707,7.674402507925969,3.3344929219816195,-18.380128984997175,2.257253772435809
-2.856358835051057,6.291860002095335,-5.627097052394073,9.35643466274869,-1.6412991914202877,-0.5674138597370313
-0.06510338461148857,2.866276037557233,-3.1824478653100456,-4.700573075864433,1.22384524964097,0.1162962116115398
-2.8091508886832406,10.770023922999929,-0.8279795048970062,7.0919112171343475,5.922039351480334,0.8515957929401087
-3.541511653146366,4.245932359074375,-1.285571556849729,4.9293434976308355,-4.0815478023437315,2.335300204426687
-0.020735530389835777,-0.6815180413890118,-8.687352114998314,-3.7751516046038405,1.4363360619128525,1.9962005138215204
5.3177924478668235,-5.817005064311278,6.021423608145814,-0.17164477278392554,4.987862200407808,-3.946931347967691
12.398851708462587,2.653757067007009,-0.38397069135003536,-1.7716948216526491,-16.96174205676617,10.512847603978948
-6.024589304896393,-1.8145149172843937,-3.2464875789434853,0.15142235413266425,9.35940987810814,-3.8655384121615946
-4.852231747379394,2.4253337049684394,0.48586965257105774,4.619717940867775,-5.709489549236053,-0.4216904292764693
0.5935547139046422,-1.700310528015259,3.0546328615000564,2.4212954092539243,-2.070520694190916,0.40420276264961763
-0.3693994120608951,1.1666769096577498,0.44249304092126085,1.372391800060086,6.426985882775599,-2.209614315695676
3.231248534840624,1.2957875038091946,-6.2496829145298465,-1.9001754711324117,1.193413497830437,0.9953862123810377
-0.19301918913742622,-0.25107132025392875,-0.6319784087204233,-3.8186224541780973,4.221576876896339,-0.3104037293198425
-1.249984567633657,3.1152548945974305,-0.9547558762444104,-0.20981081167377147,0.011054176874783606,2.5641079808181715
3.977950873967875,-2.8547173017854375,3.9026942357071372,0.37338100441339805,-4.1178035690998,1.2212988460730139
4.170391471449026,-0.3093859627665462,0.8890110106104718,-2.0635326084586065,-7.5580075336581665,2.419982185070821
-1.4032952458896266,4.402744831641525,-0.2818704366033215,1.928662257977217,0.5333409228918167,0.05149085554184432
0.1726604170416497,3.6825639023848553,-3.6698337769286247,0.5120823183811289,3.9393517875395276,-1.3216700169249531
3.1165647072391884,-1.0275173413054013,1.7883035509648586,1.5005411425390724,9.76317970423417,-0.8484475816683155
-1.103964378823751,3.8363153353512907,1.8970413771338555,0.13771714703625734,-4.491009249486852,1.5358990854009122
1.8317114151936775,-1.7981607212246988,-1.2299292313450878,-0.8342911170979332,-1.9589378518479348,5.085273998570941
3.28839657790866,-2.0369548077760737,0.3938890159333145,-2.8260221770464735,-2.5001021755999586,0.19797184302502435
-4.296794143822126,0.810983903965008,-3.566015765166589,0.535855194717973,-2.061543741921495,-0.33745749752036086
-0.19988233629603636,0.4431316693783718,1.646567133545814,1.9903216011156817,2.1562293824403476,0.48276179446679235
-1.5310518064953311,2.730048143565975,-5.977400266978431,-1.4818100463553647,-4.147182149877711,-0.5002705464480913
1.0751162315754312,3.116017590787454,2.5165849580591373,1.218426109998807,-2.9745667864365477,-0.010106029203947153
4.280361101606839,2.266690430895335,-4.619259174339909,-0.1496885014592806,-0.9141144054630775,0.48816336188391796
3.928075961564005,3.1042989492400763,-2.6410961192798714,0.9631274153617497,5.238924890405295,-0.4263682331063995
-1.3401598806769088,-0.08714231500834346,-0.09262964451787314,-0.4165140627748549,1.119120766804454,2.9156228383046887
-0.033159961237063884,-0.7924901211247724,-0.23012338193387127,-2.283202696758866,-3.2798982157129446,-1.1364794061802923
-1.798232101388392,-0.8402280802825599,1.7851201975737276,0.8901193304964374,1.5540030412615193,-5.725752225507554
0.8878361647989395,-0.2289185371765139,0.72843546156692,-2.0127254528489953,-1.535268761919379,1.7467152211775745
3.021579635795712,-1.2356244130941532,1.7834051511034765,-0.08139659740657745,1.6271384837021488,-0.5827423607916573
0.5503944495913775,2.619841699048749,-2.7958492441654546,-1.0781682253871463,0.7541048877504011,-1.9187534081243407
1.3209310000000005,2.0319785000000006,-2.724413499999998,1.5629999999999993,-1.1070000000000002,1.8160000000000005
-0.9252205661449974,-1.0086240102175843,1.1795224120610746,-1.6873563726366514,-2.459953425250271,1.2917036598664788
-3.377015070534578,-2.861160514996147,1.0639086529918733,0.6804594046308037,-0.9773567355384642,0.8738718644974341
-0.3250217990721912,-1.176229763360867,0.347762320438161,-2.0077773980880282,0.25728446009401074,0.6671587882539753
-1.8032362325076732,0.787063096350898,-1.0684269638858006,-0.16136505664468648,0.6340452611661599,0.26639949016646824
-3.2968054150631962,-0.1871458131214192,2.244834560139364,-0.5152360861783516,2.3052860049205215,-2.0603509754059712
1.7363046678938916,0.33231602215396194,0.850691313394766,0.7095763809334468,-0.7280012234796298,0.7319190102947902
0.4021165014944665,1.3112285791970437,-0.7409362571995916,-0.710928703650634,2.849816561535481,-0.2110116708152422
-1.940381808672555,2.090254804004534,-2.120316306229004,0.6608657474948079,-1.0257740922142298,-2.3226776092621986
0.886933390646921,-0.07892857542703258,1.1047524327158351,-0.9000029902077906,-0.993877445469356,-0.39651853145493565
-1.657182640468305,1.7852003033788204,-1.3644125195038161,0.21547693779149624,-0.3602610018222161,-1.4554286770258065
-4.025120154947924,-2.546857689695678,2.598147478938121,-0.31420229466005556,-0.1787079208414517,0.5490700515193516
-0.7279081385586634,-0.8918475252912506,0.80520933886439,-0.4962518546658936,-1.1790947644507395,-1.1414164790400088
1.3696457841314509,1.5851929137829561,-1.002245511563388,-0.38502150855728323,0.43004839874970635,-2.0526171446266686
0.9179666103169812,-0.9925108356500529,-0.8596710112630452,-1.1540277437656785,-0.2598115834544572,3.7510174641664813
0.46526606929499115,-1.4866393667462972,-0.005059637714373455,0.7375218789644271,1.0324949351720707,0.8004489960466892
-1.111794852707183,-1.4935127573884124,-1.1077478455061982,-0.3801725807036757,0.6454592886114076,0.7465305790339418
-2.115948605283811,0.46131283871081274,0.2613822250638369,-0.4178171242431731,-1.6670567739227753,0.6707369659826333
2.2755665334881545,-2.3171352550486883,-0.18883524769967108,0.9762448062955535,-0.9835684668360087,-1.284148007578767
-2.5375308300121526,-0.4626028579103412,0.17291261174587158,-0.015816348646229383,1.7203345392214433,0.16086435526725992
-0.22784780114220482,0.24264800757833282,-0.13286087700008742,-1.6512081360525042,0.02301072623762679,1.0690206199899346
-2.1723603220992915,-0.8116483018165297,0.0921720997406924,-1.0569759215776238,-0.46164466560955875,1.4291626732263796
-2.1964776245167803,0.030010427613239077,1.0977142162414255,-0.5025579477747563,-0.7864556103839331,0.9587709264514458
-0.9390887324899644,-0.07025260566497432,-0.2762090494039915,0.1523223935075635,0.0005907036451895387,0.9752624245224654
-2.233444883210252,-1.3113913500656822,-1.768384495854006,0.589192496074944,0.42321546573879254,-0.37331864435162754
-3.286362872150667,-1.2891517391173155,-1.5752401941218355,1.1245262790980664,-0.6100325908332289,-0.17620614818724797
1.456884479003663,0.8627025247673648,0.4282430713046651,-1.4664790165655628,-0.8023547702128049,-0.30364492692904044
-0.7137351049561573,-0.18447059345261219,1.4986829288233583,0.9434294224741416,-0.16999069457711288,-0.9909731409215636
0.3999136739832181,0.17681354661780635,2.375015631211688,-0.42292289222714047,-0.31940785139786687,0.5532705953326751
1.0080663831434886,-0.03244580796429122,-0.31489900722420744,-1.3878493769245612,0.11662961658780746,0.4287211928109458
1.2545043423116025,1.1789516480343059,-1.2562039765690713,-0.42162684856144067,1.0290975014996324,-2.8288967501855664
-0.08995829729068205,1.0493969167752626,0.2298921925874795,-0.4265298006129453,-0.558143085765646,-1.0108631082472503
-0.3427645249336184,-0.7800146020642995,-0.15705731961231803,0.7378421207537633,-0.4260854823868316,-0.4257983872478699
-0.651983909689075,-0.4960899597255394,0.28462192458980873,-0.5904680321294572,-0.7273497992288733,0.6914227084888316
-1.4738116797616683,-2.023769874278546,0.8590761064926986,-0.20143682506517757,-0.24414255382103417,0.5682269508589841
2.0364894933130278,0.9313535202846923,0.22787256063152364,-0.5569074127702128,-1.9721341584166512,0.5890739824569152
-0.5587246631320202,-0.4400181352052517,-1.2342097132831662,0.5178006218940205,-0.031275623746130854,1.6785927156014653
-1.0160872784255126,-0.061953979790346225,-0.8357922011893394,0.41230278619845967,0.08588741405258987,2.8909164310741913
1.1587439313665384,-0.16820225355458174,-0.15117561280526928,-0.29767677549843463,-1.2691006313816153,-0.9758356703437117
0.3908234050510002,0.6879416471989122,-1.641659827725642,1.6755294775190062,0.7498703749950644,-1.0903966829017189
1.5045180695825116,1.0198963653485258,-0.13799531989912261,0.007550579470371521,-1.6167228920859293,-1.0435097155466433
0.0873286282450263,-0.07302992554493859,0.32021562355034344,1.2262464749739062,0.4544923495242381,0.14981728517826098
-1.2220634767813703,-0.06694103718683142,0.5508193176139866,-0.5610529315010945,0.037061373721038265,0.7179856539417389
-3.1687784982409175,-1.3769762166460633,-0.02204549106392728,-0.34635401526160037,-0.60526180052282,-0.35713383117346337
-2.5701167888993366,0.30213892005052545,-0.2479806307600272,-0.1334240727056505,-0.2908697331058979,0.5810191184660216
-0.1157134422197649,0.2946822924494772,-0.8768631154149092,-1.09878869975524,0.18529962567437652,0.2510165687330906
1.080177045660863,-0.7401924909115416,-1.4421944768009904,0.15489653463700892,0.50146400382015,0.7423951866351901
