Gx,Gy,Gz,Ax,Ay,Az
-17.805881,-1.0666199999999986,-12.813541999999998,14.736,-709.7280000000001,-14.566
-15.649426088526358,8.022210828349234,-7.034316233915331,1.7094720002186197,1.1294591391375368,-14.122098954354179
-8.00993067707487,17.48719641300992,-9.940348439938237,-0.4171541868619424,0.7250100358907283,-3.9732267890814965
-9.50432665690894,15.414351656742395,-8.008875425902938,0.21024140475831193,0.6995999112666222,5.020755741889174
-16.201874397494542,9.187865445934104,0.656239676914262,1.9675830799683691,0.261769900881188,6.044857298382821
15.52074080835833,8.85807483206047,-11.735129875276549,-2.7070556574238767,-0.3882779297612901,-2.649998678944258
-2.6173092590120426,-22.762436140120435,-12.291161883534588,-5.668710846951708,0.31615138100046913,1.2375566736276196
5.9890235908034715,-163.2795554222159,9.579165834599703,-18.81013460530294,-2.6354277532429293,-0.32983664659744877
-17.681238450793,16.891964620153885,12.169359291541982,3.436736764240977,2.2362432253006523,-0.21595263390149871
-3.1777477918849346,14.425678197129502,2.460175379928931,1.9602449762483984,0.5266684302268165,0.943170671877991
-11.049368787143015,14.489993526790823,2.9282659734695224,2.551665215144717,0.7619381756662065,-1.8868306190652049
-0.7857917707129429,-29.071898172045913,-3.503781079137156,-0.6149975655780213,-0.022304598777298068,-9.70878622136502
6.850989976078505,-7.228797112251635,7.295055646718571,-2.6487211858864965,2.6513120230412968,-11.148545523604374
18.724738069277116,-14.8916192310893,5.507055206715423,-1.5078738345600575,19.569415172130675,-7.220981483424182
62.162287231421054,0.14171565765886962,-0.2790694366090737,-3.4509104256212693,51.322936906821006,15.72764999347113
-29.548418936557027,-16.90053320748111,-7.429308457279159,-1.6222776208317173,0.031663459798677795,-30.81823472670078
-13.307000502111036,-28.434969551774216,10.810235438579788,4.868161415514284,-6.049540956044624,-4.66986472322843
-3.8212655297659386,-11.694619199632223,-9.899135735445995,0.0004092794460515137,-4.123618717442452,-3.4293392037837016
-4.007395729356701,2.636149317090897,-18.57493148130214,-6.862647442699151,0.3608485650061857,-2.072577288509964
2.921754453689785,28.50317694146523,-4.423346686979576,2.1351293232631683,5.578038268801858,-3.297767275920215
-2.000049643252451,-13.882462018326938,10.34716658992628,4.113987035571339,2.9204352789146117,-4.564918189898246
3.6399405905269306,-22.36325794573412,51.152893877186486,8.77112047734296,-0.4260533365266699,-1.2817558229679835
0.8539286475367667,1.8912191981400097,-84.55223753160952,-13.855205167861183,-3.95067615823917,-9.854448266978098
-9.092066518258154,25.4607700134083,-10.681042455394476,0.6970889112100034,6.201981741942477,0.7379981353650038
3.266511696966538,1.8991795168660217,-11.40161775858213,-4.465583262890197,1.3126100217086658,7.296312583910616
-2.7112049437425907,11.084246182427764,2.0895226776912077,3.820459625036781,-4.897586398075224,1.7024056953788484
10.641669958708906,3.504214946544176,4.754677174257731,-2.3146154836796256,-4.403926827193028,6.670796017049144
2.1082693336564846,5.348954741713936,6.388257810325584,3.206912400316219,-3.6776166141132713,-2.331457738185144
-11.21958585893253,-6.143499553805654,-3.5545030382750427,-2.5814497927439835,7.3544001648314135,-10.672339115670137
23.00590929570623,14.575244188312375,-13.284983123485777,-5.873963580615156,-13.254619213019216,31.86378043435919
-13.912162317899343,-14.51489755828108,1.6196531257186026,-7.519458591191671,-0.6793892952934827,-6.272252322887735
-4.361169322417586,10.409234332116469,3.5356513591491043,4.4622895554049995,-2.6807696676694266,-1.9550540597508461
2.210083560369648,-2.933014276550172,-2.6618655130921347,-2.841131840762595,-0.129000928107611,1.0359324458902734
3.2099588089709163,-4.980261053989679,-9.648347832422347,-7.910401114165812,0.7545180544665144,1.6532395244432145
4.917134931292747,5.800398798598275,7.6156982035881615,-5.031930991869693,0.14932255399612043,-2.382826452390654
7.136850703572515,17.08211594184436,1.9755093928353706,10.032560276970898,1.8310000525725592,2.7942990763874356
1.3957307651963853,-10.551105026629738,-0.721770824275044,6.94902863465174,-3.210141608673732,1.0646605788190324
-13.59313932574172,5.034689254704229,7.423542251944317,14.872324029694463,-0.9170255882134632,-2.8621948478684422
-9.412744408874925,2.604867890222518,1.534687571173341,0.3093908364348127,-1.6038047448201205,-5.573785580974731
0.31285937369686945,-3.23948683863374,1.348042297102552,5.591598545965849,5.657119677049534,1.0775717991027287
4.794483873578622,10.53327588325195,0.5017670894955545,-2.9615551729899945,2.055583696652432,4.802374839887614
12.049744332422565,3.148627625184967,4.417597634363499,-1.902670061698897,-1.6600266957746523,6.713198963036696
1.5173875446739493,-3.7855135882364697,-0.6000091748266194,3.587031835743049,-9.323228643081329,-6.758729743524586
-8.539804919145551,8.960380828969203,1.5772036280452286,0.5864982466699538,5.316810522871094,-9.037579276969009
7.795316579593166,0.6088870517306175,4.420437056120647,-0.24428706764201252,-17.624607305770905,-6.172276450912619
-3.251841840209198,4.240337971555647,-1.838512205337383,10.193140376969918,-0.656766420743184,3.93711385818469
-1.9971679122785666,-0.7694904916471756,4.928549359920474,7.690636077770515,1.8211341880398615,0.9573015108293726
3.2743787049643194,-9.159603638934843,0.9212943702222636,-2.813155132975347,-5.57592347108617,1.4472363452789678
6.4799006823996095,10.401889644567396,5.237606417038601,-2.304558626819608,-0.18271837972674476,3.1289318203079333
-0.3998170176631737,7.586782438096097,5.329902214249026,4.652039890099932,0.3265113415109242,-0.9091110247031767
8.084927779480152,-5.376771600389089,-0.10376941006667195,-0.013369511670257461,-4.089651402466338,2.9914593710716906
8.938511820813691,15.582809662675317,7.87791102965576,8.226292845889153,-8.568338384689806,4.233021889242311
-2.299962759577788,-10.260384793107633,1.683066323193898,-11.013045186459907,-6.925420501331084,0.21731341259429238
-1.9289501931521111,-5.508849929531105,2.4669007833381946,-2.859437352697748,-2.719566493999175,-2.1457382266591276
-6.365368897747469,-8.924886594814833,-2.523992143185024,-3.6339625896176315,2.971419094155266,-2.3781824035929677
-3.3508415966761587,-3.26939098187361,2.1453455622472335,0.1138242225048336,-0.251561025761607,0.18409238582812804
1.0961514609759775,-3.613828464081031,-1.409692722061114,-2.9366036798924577,-2.383005860155184,3.030812505434393
5.100022745812121,0.37215628007226,-0.37382558947048583,-7.436535835637513,0.4173408735478725,-1.1365952851110148
-5.583334703330278,2.067794162689586,2.596042073095709,-4.899875129075042,8.019141981730785,8.835098166905006
3.0621531313359167,1.1875112770595035,1.6087443430321393,0.9489163535423262,-1.2604315845408869,-8.990890766721115
-2.19263884820575,-1.8277667614566555,-0.43425547511380946,-1.0204183213105946,3.817490906792292,-3.0690599640675975
0.01054642554695251,-1.773391282944873,-3.3063537292192464,-3.548945680122579,3.506927894006235,-0.6146112569167032
-0.9111450844209285,-8.098831409130307,0.13682515688016883,-8.820570846362445,4.537772539447044,-0.6851476885174663
3.4913640328332116,2.31816150404305,-1.1124824569488154,0.20218559740724285,-3.0157361770782134,-3.124680553225348
-9.336856394475062,10.487947958854523,-6.551915820718885,0.5741772825007514,9.597174482332107,-4.340709546302676
-7.105506453325036,-4.236195444741258,9.030303692889058,-14.611862489991012,8.353849667503972,-1.0286647493712548
10.626579511302314,9.974707336370987,-7.774923811814283,12.823490822257586,-4.833590550521752,-1.9261000171390883
-0.9655596167040557,5.717443613097285,-1.6110091399597497,3.8377629847737147,4.067823041865587,-0.013129654400223956
5.942074541167373,-4.5707277320493125,-2.611095350522535,3.102890149891131,0.31260704477875123,0.7626100263648419
-2.7093725770953023,-0.5278149422353482,-0.7991108501087723,0.5520882933741404,3.95031458932847,-0.42473870238154554
3.619229353741767,-0.6111698327321735,-0.39216440106256434,0.3721425697579426,-1.0994049736425802,1.5964936174243736
-1.6632831876861909,-2.7907400605529658,-3.1461587257150305,0.6098578883711898,-7.3389320833385066,0.13840706129198743
-3.8670754130840854,1.692685165301537,-3.221414078591966,-2.9083035835144093,8.841155762528016,-7.574902830075682
5.103231156536875,-6.948479916950768,2.7249182757252695,1.0329622897902988,-13.392362479297246,14.283996258267855
-2.1070182998288978,3.7715827780943125,-1.7780302888422614,2.452673170972746,-0.8190319682079383,0.8410712296021883
-5.048002657173471,2.338836687933247,-2.283918226110733,3.001795556491822,4.838191344031526,-1.1888548505608334
-4.1719222850646345,-3.403123151409739,-3.331857729424732,-2.282004170648718,-0.6117463820597158,-1.0806472439493062
-1.1203468310951858,-3.9331678178909666,-2.1983372595567183,0.3676866347643415,-1.6222384499930307,3.8026814847577226
0.8144477679846309,-4.3346738204583,0.21865575492368772,2.670810412903419,-5.1659996117701095,2.0355807994349435
-1.2167488622367646,0.34713530336880094,0.5730840288747459,1.6089043261953502,-1.4650959600209283,-1.1538872919661873
-4.318193393654164,-0.6377171106458026,-2.4701208025959263,-3.2276355692100855,-1.126616437777876,3.3502839283384933
-0.47441244518981684,-5.5531421745540746,7.678752751423682,-2.3254441731124564,-5.860727838885243,0.8899747166907469
-4.768262733233243,4.018114958525731,3.109935832739933,-0.7345498224281102,0.7375948930247971,-1.4685859586141947
1.2489653282848048,-1.583775744638384,-0.67427818864339,0.3036492035415985,-0.4718136506148354,-2.857793895692299
-2.079831987398606,2.5670492565771736,1.0259489108231357,-0.34934279146304625,3.848093219160971,-1.880013661789695
0.05318728746125867,-1.6391236507894131,3.010097610571831,0.8950837811246035,1.9061194391067957,-0.29142631429141364
3.1883928318675716,-0.8339106911014589,-0.7453444435213896,0.24261259949660907,-4.970244731941284,0.7012246351587512
-9.327711195016434,3.6465069143224174,1.3351204975925839,-2.117681974037179,11.746312675067896,-4.586196185273414
5.759363599257034,-0.7912439077323903,-0.29284301371051846,-0.4834567587084626,-5.805387076194822,0.928627701400595
3.2444907104705836,1.1163040782672446,-0.1611480109529566,-0.12917255030742458,-2.9885422264313037,0.7017852550869399
5.736020449699114,-1.3766995811742362,0.6664100054047903,2.3040459179915658,-4.939798732232351,0.7240968021063344
1.4324053548108906,3.258792001539015,0.34893945751262656,0.1713788357842729,2.0362755299332127,0.11099456960894405
3.9773703656901933,0.17049985233331277,0.5339759620360667,1.2772551474677825,-0.6890277507714915,0.18378974037187001
3.1367272540891094,-1.9103061215098363,-0.7936975365064116,-0.24802780081658393,0.3191133797481448,0.7108318969685801
0.4325170889210632,4.219807121441024,0.8836781237449937,-0.6697496306787745,2.663987707052378,-1.4047256893968019
3.3208261080754458,-3.2958145245569037,2.8331402848285605,-1.106503222578373,-2.1912253038711196,0.29688335875119076
1.6666969955960198,-1.6114930060603374,-0.9172799752833503,0.7988967600643762,-3.574929209256995,3.6500100289931687
-3.20556992703816,-1.1745816091768102,-0.07376773323054575,-0.2519073802125473,-2.7431889773787876,2.0167432582006444
-3.0207108541678416,0.9157360313594616,-2.3486566480451216,0.09089883357116069,0.20091707494924038,0.2793849090424565
2.116885154840622,1.5278570634017354,1.358661251928875,-1.9072032791746043,-0.6919248330838111,0.47659817941759536
-2.230336928327511,-0.8824670012411939,2.6238259028857422,-0.22416772618948988,1.3417168211315782,0.3722038099417162
5.135174429794611,2.2766914141042207,-2.777613948241539,0.5743078031490274,-0.7540770354491251,-0.15678463656637262
-6.961975875725101,3.0183555717090584,1.5052108162587983,-0.5310166194093884,1.6851809669574997,-0.8085515663646444
-0.4243590581984886,1.2285398686162097,0.5607604895739318,-0.9341465868927449,0.030721842417409245,-0.28411511651094434
-4.049329429198234,0.7874133847892555,-1.4387027408212008,-1.1845359065565122,2.8572043851376208,-0.9097062704903567
-2.12878987713707,-1.579036171030368,-1.2015918957138814,-0.1711040890221922,-0.024697918695523235,-0.8649207912262495
-2.2946980996027815,2.129970129130239,0.4784813864573483,-1.012267289814611,-1.1805768411180169,-0.6403084997178143
-1.097366996368602,-1.0127016865138563,-0.2418282029933616,0.14993614411309375,2.138537287804841,-0.080328157650853
2.7769530175524184,-4.415023323077657,-4.035461514944497,0.5959209634258014,-2.892768055223925,0.09134304982754538
-3.773382695910553,4.2048826521975124,-2.2100165510133616,-1.3272840120804408,2.8757157277765177,-0.37315655331046593
1.0362029977133307,-3.1517664301223487,0.4221061857809115,0.8621653806466663,2.360186868198645,-2.507040091409145
3.2967851474265997,-0.799954485687191,-0.6362297826503721,0.2647570979129751,0.6004790165101426,-0.4274988838158076
3.104607175573324,-2.237682029633942,-0.38493269914084816,-0.2172629741417943,-2.0327952286723043,0.7845739473052481
-3.044361479571811,-1.7267097668266091,-2.8955954127686576,-0.0694657285948106,0.5934532649008541,0.21378142360539543
2.2115099302251657,0.15893600333848257,0.22894019706109558,0.20974369144504423,-0.8879005943717759,0.28834114239967834
-1.9325460803987753,-0.9356260425258474,0.7220662572122767,0.090808303042478,0.04425619695363453,0.3810313284117953
1.6925032816532615,-0.7371720295656112,-1.0073648498281602,1.0870216731910876,-0.0831388850897723,0.36870072617988664
-2.1438520000000008,-2.0053635000000005,2.916189,-1.2140000000000002,1.841000000000001,-0.19900000000000015
1.2555849843089324,-2.7975963175280403,1.107820886000657,-0.20713140814211167,-0.36408283784803963,0.836090600461791
0.555438766022448,-0.6450839755389057,-0.6278560922450055,0.3122410901787702,-0.5631135708187911,0.4885572020956457
-2.3920085944423186,0.6525923023738278,-0.6851755011059121,-0.5527147805022046,1.3054519219406604,0.2209039327107447
2.46876072494058,0.9624405689547486,0.8261071483420341,-0.8121237278564757,0.594784840601176,-0.09914344043831913
-2.8935779103545745,1.0589459741981426,0.6960512864241557,0.2808582366945548,1.2176362900813364,0.8832423159985896
3.0653907039757495,-1.4145054883775101,0.03438827081407908,-0.4393636448577818,-1.678032451766451,-0.1860258654396611
-2.4245729265293443,3.822986657194427,-0.1342898278567563,0.6257105381242097,1.7955677931709437,-0.14151510253998145
0.2287832758147439,0.1320605783190525,-0.8165778402384275,-0.4665522137309255,0.8783757529168046,-0.2914436260501697
-1.5898680026093035,0.8202854830167545,0.08782496583630711,-0.04206700266598795,0.8573083925000136,0.549734444292846
1.646875737107452,-0.014024652694724526,0.4610406993073138,-0.5203592622059721,-0.7175489068455443,0.41772151740945684
-0.72917000264703,-0.912524060536829,-2.1687581018183124,0.2723022814244226,-0.8586408017047069,0.33253723153760173
1.3983464478382777,-1.2416185132512987,-1.2738230122857703,-0.25075515375065904,1.4278749192002902,-0.15330209216580126
-0.19097099464587308,-0.6342577697890077,-0.3300761111235261,0.049713728172991314,-1.2949708460497578,-0.64620162316926
2.7727249242032173,0.6343888447315003,-1.7032579875789051,-0.6551509583562614,-2.038109664003173,1.9924830722807636
-2.484128867242946,1.195575525361416,-0.4311571159421066,-0.14413192850392814,-1.2721551227669847,0.0193048870633572
-1.0743513271816925,-0.37568480776240143,1.767075506399152,-0.3257603367513769,-0.34656929719660123,-0.8425473381287474
2.4318313082058634,-2.745718752282678,-1.1145181853728063,0.7438293224520689,-1.1073220439969766,-0.2166366528049426
-1.453496399116682,1.722993945394029,0.7493972289431996,-0.6467771109192619,-0.8884794191394119,-0.44428294716499706
-1.194346677320791,-0.7169305677160291,-1.6603525260025864,0.10842097957471197,1.2778138281259899,-1.385736567379562
-1.9672704524469844,-0.6058565949518745,-0.5322078462920012,0.921960036278668,0.056299066211082716,-0.4190389356943288
0.8138130971630558,-1.0404327383936987,1.9445786335642794,-1.232394774501778,-1.0228180155860094,0.6918126976937305
-1.0577802517748023,0.3675609884528015,-1.0714864762190053,1.038422076016991,0.974660587104706,-1.0780744367204604
1.5768208580199978,-1.117299667896373,-0.10334265948044319,0.7932277080358461,1.1516299993035266,-1.4305918981601253
2.7826455919706516,-0.4141195057550018,0.25182965009604263,-0.23022324111936565,-0.5344517201322248,-1.3132616404179691
-1.968006015249779,0.47153808943415365,0.8388093842648479,-0.4931451130813709,0.8549079609599451,0.34128311523941857
1.6507785390951608,-0.2638030249997594,-0.5314632525916532,0.4888532945877486,-1.409311691830192,0.2641132643551467
0.9239491210936392,0.5220165063031588,0.1549216807563234,-0.7710310235527753,1.231399176792026,-0.4595530921675772
-2.030882382152238,-0.19143892540139107,-0.08448312370449518,0.26953187972232123,0.42245855506995955,-0.2067799940684273
3.170976240706598,-0.35911954273559843,0.766190255307367,-0.26679619991432646,1.453379719678809,0.13810385468844888
1.300553903934139,-0.35489561581688545,-0.30117446625431454,-0.07074399695169026,-1.6807969400731724,0.20723417792705634
-0.20709000238086972,1.5355412564162179,-0.055744635798469444,0.11753691740470784,-0.10258385536095105,0.48925123042704866
-1.5497401104381008,-0.999604061144046,-1.0468753091882164,0.1992873161614126,0.8809668485513029,-0.5197792453918462
2.048291031920199,0.6086311590478868,0.21230359592847847,0.17638255875189301,-1.0235317312996388,1.2067384589669858
0.2462084761564629,-1.5220606093553148,-1.2327194606991716,-0.10933047029333665,-0.2169878564135299,0.29992215824862817
-0.5154571287053864,0.8958193251840729,0.8867110697252194,-0.4901339547375989,-0.10822786094617687,-0.4387615700554317
0.5997190091493441,-2.1380037762421793,-0.7165126805146814,-0.0865812196649775,-1.3227456762740721,0.45653532064571545
-0.2622709162210308,1.920580844941993,-0.5421293651040777,-0.967998341756751,-0.5024620299130635,1.1201145634309646
-1.832239851635635,-0.3366550519432927,-0.7327600195780843,-0.2527631431626527,0.10366030967645568,0.3801559470662836
0.8963754857704096,0.15111705518566287,0.8062151721284188,0.3521666739679425,0.6451362132531613,-0.40508865465776966
-1.3784318189819178,-0.07473867101383846,-0.11731761577918709,0.2241684115507519,0.15865429301706613,-0.20185197062955407
0.7025757390010163,-1.6331926304087223,0.059087345885876275,-0.028563437305417327,-0.5258342539379317,0.2592923255312902
-0.4056244376456446,0.6631007302427411,-0.6823104084290432,-0.1468724885239583,1.1261626953186725,-1.5414317316823296
-2.093509226753478,-0.6953923569558256,-0.6476366265963187,-0.41395046402629676,-0.6740820464785493,1.191192366287278
-0.7337541503294411,0.08900196455581644,-0.22794356264300975,0.3795133097210669,2.407080004818317,-1.1549124613721113
0.6148947068987405,-1.0841644824506496,0.7083145731215492,-0.9750144017380975,-0.02403801489869295,-0.5830311664079766
2.162056142016682,-2.234118557361943,-0.721108733726999,-0.29812354507688277,-1.401722054622565,-0.11309096817510311
-0.9897260390890323,1.8739092483481732,0.3754616599366237,-0.2773665766589267,0.17532996155855574,-0.23233493470448496
1.440911182982178,-1.686028645037826,-0.45482078079598964,0.10949496527480515,-0.02973733639935272,-0.9853769562847517
-0.1677426215477229,-0.7346460842133766,-0.7534064994211557,0.25648374339670227,-0.6980111782922225,0.8069628082474194
0.5491317362158628,0.7974745591649022,0.8041948195458932,-0.3923127366242613,1.3724681371045178,-0.3742167028599973
-1.7193484501132943,-2.304942249138243,0.06569476715625178,0.19144790052170912,0.06951484732374325,-0.19958146442053215
0.964786091591098,-0.38672313890659793,0.3569241320951617,-0.3426198164528701,-0.23097428257834884,-0.13957126650964108
-0.6360075191085753,0.10566690187199113,-0.28172821554407457,-0.31824424250400574,-1.5604232587863254,0.5479821713228415
-0.519930124822135,0.9194200517745245,0.06196507656427086,-0.3781463089690227,1.4329970429005865,0.046790996006128405
0.29765314580404145,-0.6746635769094731,0.09994704506759844,0.20737651318166433,-1.7275914431653576,-0.11374451335706051
0.05979686586621846,-0.4759452784242877,-0.28091116780905745,0.11259847248858212,-0.10610789623152475,0.7940254290664139
-0.4214379292749395,-0.7395794750509901,-0.07559370259178089,-0.25231952069507324,0.514062082938499,-0.46221730543628875
