Gx,Gy,Gz,Ax,Ay,Az
-5.937600999999998,0.388462999999998,-5.301824,5.3039999999999985,-484.534,34.95
4.268849536173658,5.440436275107141,0.8646706641595912,-0.1642727084140587,1.3523313922610631,-2.9205446214906345
-3.4153437760548337,10.960018924992251,-3.19734741436042,0.881115102306395,1.8868000349768037,-1.886314692771598
-4.2669341948582975,24.631986903710384,-1.6373901800083126,-0.9563143498349758,1.0324534111970605,3.1593771342951062
3.138367491035141,73.2183979353983,2.8149270158409956,5.8062872147053195,-0.45125324971307706,5.117029942556933
-4.940370860817487,-40.51486994867726,-9.757037317628164,-2.6216623765558724,5.635566691640578,3.9730879492421245
7.564071809032661,-10.486222429791642,-3.34988583822964,-1.1374248452995919,4.1220238437744054,4.525961636841646
17.13807435604109,-18.534081786048436,-3.8237746620281348,-0.06037524527084781,5.320736594877742,8.088090183357085
33.46202632172515,-9.995235133302705,-4.90702181895036,-3.035900263158215,8.591929886518354,17.337857426931244
-35.566498347013166,-0.5760309340231338,-8.212854685627917,-3.171003057678466,-3.4131110109090734,-23.864851392668697
-5.844306215017662,-6.956894944516297,-6.16585458958751,-1.9726354784084728,0.4403770992965774,-4.093214433445552
4.868774495519343,-5.838816746524184,-13.406513527552761,-0.3602528541943155,-0.7082021300355306,-2.244811591646308
-5.236521073563228,-25.044420855406734,-7.275438025571573,-7.609185258622747,0.39756789944357873,-3.324361967766763
-2.297803318571046,67.63296041144747,27.501387851843177,9.954720101200827,5.154848480087647,-3.4885646194875206
-1.4035812996238308,-4.213613541290103,1.1158313649874867,-2.50067346878847,2.178531265572735,-0.6733884197954787
-2.320204103829128,5.7291060565985505,0.895213012101123,-3.1481648900639825,-0.37566156541653944,-0.11297167070770979
-3.242281033990274,2.743722434722197,3.8058007656087254,-1.8663780627560642,1.8472046361885943,2.7268545429889826
3.240620247983014,15.424400571142248,0.494334935381779,5.119160920687203,-19.329416646071433,23.0658847115578
-0.46340873262519877,0.38948539630751,4.708657872227718,-8.59147035415246,3.9019070682992285,-7.938412823008571
-2.795485700582007,4.169697390634313,5.371477376896051,-6.298009364260621,0.03490217256167227,-2.494315694709529
-2.0134148586026632,-11.419071927560648,4.4109550509881625,-9.169461570441841,-3.7690626715523567,0.9621485033722588
1.2434660165976452,-7.901557005923887,7.3644675730235685,-10.141836782863278,-5.398076988407831,0.04901643091224456
-0.3879176134848516,14.952860101077686,-6.708389172610019,7.342209939244043,5.894738053525432,-1.2878506563571819
-1.4108789754927424,3.8056941047317197,-0.12982457145428383,-0.48910754232650466,-1.8251995390946867,-0.22376245216152602
0.8995225450709057,-9.659844588849861,0.9200817242101863,-4.558550627231877,-2.553758725818314,1.5432996897666291
-5.300263636219446,0.29578730075093107,1.740474406915276,-4.962103781210018,3.124703163842349,1.5361613948694433
5.443825600846954,-12.988893078945216,-2.263458449979966,-5.184747258917023,-6.004936705405112,-3.223902016105369
1.0585055684863198,-3.095650998369799,0.5038341236960845,-4.7970552228499415,2.739581562151301,-1.2508079118838564
-1.6248623876159667,0.3559130709116074,1.3969848895125012,-3.127173952378218,4.012845812893047,-2.032996593924992
-1.9212197569133824,8.302989263314164,2.0546065518387775,-1.711182449990764,-0.2170276698890501,-0.55937500831754
3.8687222725832875,8.248447458767092,1.1290302012375708,17.88223207793098,-9.859808260524574,-0.112040893677121
-2.710438419570502,2.1762451516087022,4.644466895424544,-1.8500842320613382,9.434203967251099,-2.054824091414296
-2.903030258693058,7.379352821505492,1.124557370461854,2.7161779544059614,3.0476597887429184,0.392486756375459
-2.1267704384352943,7.120694727261687,0.4417651319117233,6.108570528936815,-2.617147140255402,2.2536440363603414
2.452222961163978,4.67787354962107,2.980952554011898,3.4019750984727093,-11.052494673680457,13.574124256429899
-1.333343227964501,-1.1526848801992018,0.17315891650920023,-6.912389597373143,9.011463432270583,-6.6922642308735325
-1.5049681745400088,0.9340887506024647,1.776535594301663,2.1877455260172125,0.6635527137539768,-0.5138393969411725
-3.594496534298086,3.889953523449793,-1.5561842550593918,6.129875836496069,1.6940413101026788,0.9034053557372821
-2.664013496710093,6.915125529431223,3.942780720854667,13.862903031291726,5.504987499786566,-3.569722168388068
1.1999726727801205,-10.635589834983737,-2.1598602226492063,-17.395707124956026,8.761138429111282,-0.44567332818966165
-3.4967305460835063,2.3925248068371356,-0.8086776863744048,2.5697964592158065,7.640206048449777,-2.7789366122484944
-3.571775664920271,0.47668262420387236,-0.42933377655492433,1.6248848317926348,4.414026170228667,-3.0728830358241384
-1.8973583505125524,1.7263017014604642,2.127517085532646,-6.62107715479901,6.0293323561959555,-2.865032170379537
7.051478399025431,-3.4857698109756137,-2.271335494823113,-5.944045542104123,-14.94680516061316,8.774528864772623
-1.7733818950865778,-0.5748734007978216,1.9369786988162814,-1.0007099673571882,5.302958628120827,-1.7822334506964113
-0.43924847113040316,-0.9291053419224151,1.3634712275021648,1.4342501517999795,1.4404787748957664,-0.9198121746154628
1.7618026202004065,1.469476746593075,4.037350366454757,0.018319223803981988,-5.826170157672232,4.063808650768083
-1.7593997965605994,6.319408857250215,4.540199402147829,1.667811357470582,-4.946128425946473,1.22608721307732
1.4149641450120418,-3.1336018151511458,0.19546324916919977,2.2486604830784387,0.41334081933877753,-1.5783364007939533
-0.04282155720167513,-0.3987924470922247,1.570308925849484,0.5663267938392453,-0.10722968437101657,0.33104438341959275
-1.716021956594688,1.0349814623284375,-0.4276015035836216,0.6148816389393383,1.8864680698559364,0.519507631788786
-0.8934755346117532,-1.121396096849952,1.3900170347272847,-0.4737981060456511,-2.233485465608244,-1.0080132789839054
-1.2513389156675054,0.5977881904050704,1.2648222945672085,0.540619283052918,6.359586931126985,-0.30702429031050604
-1.074135474587107,-0.8869758540330268,0.27068447545713026,2.1105491473302878,-2.2980498133213385,-0.6483988796158482
-0.5306419660614594,-1.2195651473021034,-3.449999727643944,1.0426313706790602,-0.6570080193860113,-1.5234159327242769
0.6587323364162729,-0.5963091795033797,-1.815927727187437,1.6467106086620587,-0.1012982993633158,-0.5018887934658686
-0.5411174718273459,1.92920583916875,5.209510686359128,-1.3105851859028594,8.371134840170638,0.9845884980078895
-1.7292260022263286,-1.6249819871878728,-2.5045094037803874,1.5952474380393837,0.29904622392843805,-0.289600651296676
-0.46756077254420375,-0.8917693387785237,-2.2259923926580027,0.835865611516823,-0.4530063496647435,0.6855259099285828
0.11974407474279758,0.20035175884780065,1.354716566187554,-0.38666484786273936,3.071327946226453,0.9554314441104077
0.7350256134886666,-0.3683639804068685,2.7896151699059786,-1.3899108895412065,-5.50290850372126,3.4830019856101906
-0.18074470692360045,-0.24802286529504225,0.24570183167940265,1.5767745156869295,4.759106231794889,-2.3039181394523225
-0.16967532223885318,0.7309374091744717,2.005112978059256,0.31218160432732855,0.2916030002277019,0.5545666045589281
-0.04076611083779688,0.5649516299582891,2.5935490237583023,0.26659542025030397,-3.6014314524396074,1.242833569711005
-0.9500886198369957,-0.17315761801717364,0.9802482018588417,0.5318070533813097,-3.1848699455053384,0.9093152680251088
0.47856429794292454,-1.09541600426326,-0.7831495573242875,-0.28718575918200595,2.0151159337631865,-2.925327700664269
-0.2749460758852701,0.6610320666964266,1.0421023912193377,1.1022418561373122,-1.7166077611607284,0.3398382868640007
0.05018970504686879,-0.686619388111115,-0.66319726718453,0.3275802980457072,-1.0672154432256988,0.610022155627206
0.2650312291721386,-0.6417894789999807,0.40524823097554197,0.3952539153329118,0.23043215577246823,-0.8115182670388916
0.4728424949640577,0.27177065958279145,-1.697710042878291,-1.3437503440271021,0.5036414107476169,0.1968149475009516
-1.2678891762671627,0.806128838341413,1.2930508197324682,0.39522609622655985,-0.5512435007987965,-0.5180113986946592
-0.0954667184989503,0.3699888309552541,0.27074616135031215,-0.44130534666623744,0.12447006638569061,0.6547625805860416
0.30098416075503626,-0.5115253038667391,-0.04617158816823996,0.3351605628131556,-0.15696708207890792,0.052772419348428745
-1.4772711830238745,-0.44607625848019367,1.4636390727129676,-1.5652206367835075,1.1807542034698997,1.374615857048221
-0.7978782949620461,-1.1781436311587947,-0.8830355297940654,0.4912386943543435,-0.4737845891409368,-1.9309161291910542
0.24693336621588724,-0.89846038241917,-0.22309631905922317,0.1380237254732472,-0.18764904388698525,0.6099960763127575
0.05377529016716832,-0.1296037168515629,0.11085145808128925,-0.5374437698698185,-0.47565775851998543,0.9372529591825887
0.5220879468216068,-0.4770408829851929,0.5533099143292466,-1.0835415586176036,-2.0398216541156575,0.3731495852030916
0.032045817554465617,-0.5358813308481878,-1.3078987402114157,0.2546416368598987,1.1419678194676441,-1.3699730777452985
0.07224985106403517,1.4856410481367506,0.23824987547923365,0.4559215889349385,-0.8599726314014039,0.37428571587970927
0.2077605705793773,0.150038063974753,0.4480878111764798,0.29953568946545794,-1.3781723481104724,0.8728043030349653
1.1238039335476229,-0.6151462023949682,-0.06818318277003242,0.5886757753731673,-0.7611208868171033,0.4658215023934322
0.4363906417809388,0.3031921088063629,0.4013602947556986,-0.09152550959486669,0.5220567898136415,-0.7265623870017222
-1.3347689095322979,0.9426016253510684,0.9526294502261108,0.0825262189540515,-0.8471387568628483,-0.23506435285051677
-0.044228261301434035,-0.48834704247522015,0.19439742885571193,0.07051826441667307,-0.15901775136905955,-0.24996442113455408
-0.24210952069676295,-0.6128747669511095,0.820277988012745,-0.5130363410616533,0.34402163132345753,-0.4653448441721621
-0.7778935980096833,-0.6622609666627727,0.7052921645194721,-0.186688554707804,-0.5071061923430377,1.874410730624673
-0.7508570227142041,0.056036453458488955,0.8703409693047452,0.2485441405417615,-0.20482902598986713,0.45792001747862954
0.48759409719543134,0.34507045577920903,0.04883711648033451,-0.22195389014360034,0.7191775222671606,0.3000415896801901
0.9747613050154859,-0.3784420107173989,0.8661853923663914,0.4136745178337864,1.0740413218405989,-0.14467770889849668
1.067379944182361,0.2568894942152622,0.2257662433413944,0.10172246333256804,0.35398559794032974,0.8092379616016061
-0.6173084859982264,-0.7811176306902553,0.30533245044410423,0.21577932374138822,-0.0687706017103471,0.3449232041740713
0.6278325744423285,0.8027599345537801,0.33803962292823303,0.07556646366107302,-0.28653427319489966,-0.16579295024644616
-0.7260690360254143,0.7605111648532041,0.5201274846095482,-0.24828264880651962,-0.32170370975490503,-0.11907728740328537
-0.5913938143043848,0.6103932607920537,1.2803673161761753,-0.5282171410909744,-0.8776186939306964,-0.29398473685145965
-1.3356290066722685,-1.0663604425792987,-1.0894546912323553,0.3889152298471972,0.6411674200394784,0.7208339071409472
-1.5641144323691787,0.6096279058146081,0.1636105314842381,0.1664443539556569,0.10210623577991193,0.8476274803129927
-1.1051483288421333,-1.5240166832627282,-0.9174729109601192,-0.3282889419441997,-0.13444050371902772,1.1834981078004478
-0.37904041995533055,0.19685107519366327,0.3476683921552683,0.14029360444201178,0.10757614601684018,0.15396253523924866
0.6624455239553032,-0.09789392517255843,0.6439332123502192,0.2962953939666908,0.49859738672786974,-1.0054891620859456
-1.7331051110968092,-0.8714462441493817,0.3385221076636208,0.19969109235552956,-0.08109758621936868,0.7751855505619416
0.9727913068455699,-0.27009627067326136,0.892240386484348,0.378402457305823,-0.04923912077569527,-0.0987765136510464
0.5056246987503981,0.5023243685035901,0.5249556647425005,0.20608990500872068,-0.2644316000016807,0.24947480835424235
1.4058030444545373,0.3266236465567407,-0.3130079492475457,0.10757824322753294,-0.26963169997109293,0.5944760644718015
-1.1396955875667496,0.8148153157333987,0.31906004198568405,0.09220667812971912,-0.20470574879926767,0.3913941584508182
0.10272324271423246,0.5189623729794797,0.11347905137703901,-0.016844240940921792,0.030156339678802754,-0.147498635491335
0.3866307919926997,-0.5101027871027439,0.48791417160594136,0.10494616397804911,-0.1662704095727065,0.7551939183247924
0.2398768799458193,1.2372850965482318,0.4336041547767509,-0.2113202386841463,0.06376503989406362,0.32703104620683116
-1.4970639892799111,-0.43698681096299147,-0.1250372538677028,0.1997848625648458,-0.0190716110296566,1.1861005842552612
-0.19070754181661823,0.02863464504980636,0.3606131375643548,-0.23561573023784976,-0.0459652629605137,-0.19788135588859257
0.3896468783909347,0.9574475180455999,0.8344178822929986,0.34227650924038,-0.29891354299189177,-1.173285343933239
-0.38843120372533047,1.662549214764859,0.7278949103203012,0.0616042658563903,-0.08507131285240355,0.6761021438339117
0.750726469934642,-1.30549475217031,0.07588821925827831,-0.19659532337969698,0.14966336717405848,0.1840339801759063
-1.4507819572151046,0.09213949615847498,0.2758901853902106,-0.21762902100953868,0.28613866597196946,0.4020432577512162
-1.1994502382258607,-0.4572424071205159,0.13064732527568196,-0.13597427960516065,-0.08386998547883663,0.23317230851535098
-0.06951147585396336,-0.5452892765811755,0.5195551260667636,0.13688391635849406,0.09792386284539566,0.42408247184401443
1.1479999074896228,0.31011589852865146,0.553539234875997,-0.06657132898550784,0.047250885187542564,-0.32497714266777356
0.17807026960500388,-1.4984510094882448,0.2985084546079918,-0.08759657679216669,-0.5626591978125076,0.418255633553836
0.14043948984953647,-0.5012703435815004,0.4896837807240611,-0.003255733434210789,-0.175047088425494,0.40744862077186766
0.3175044691097191,0.4804110784735126,0.4789773650115321,0.17273127213422376,-0.15231956111421935,-0.12029845317353624
