Gx,Gy,Gz,Ax,Ay,Az
-19.045230999999998,3.4449979999999973,-12.090080999999998,13.826000000000002,-559.232,95.69599999999998
-6.67045783992759,21.139203487803005,-9.591791371174928,0.16996752534171744,0.919417505395117,-0.06620156099028135
6.202621871832426,12.404423387670107,-0.30378913585542255,0.6759898644498652,0.8545509045102172,-0.8795403266444234
0.41798093469583,4.370247681344027,-3.208023868738403,3.307200850766578,1.4982768153155117,-1.4769361974062616
-6.117236760332648,1.9616528284653383,-11.93223798313048,1.1870893668591362,0.7707908349794765,-1.2096565321675217
-2.743279024348694,13.09540691468598,-1.231878508537988,2.3490791704175726,0.5608098355973169,-2.5869274286183477
-7.257174453679578,57.60987376718314,-38.54592289280354,-2.7749384889402298,2.6167407242160503,-5.226993752807403
3.6991380891496397,11.104144358275569,-6.683326661229531,-1.2916480783610091,2.398290665443641,-0.028028237370802844
2.4933575105349393,-13.669254662625114,-3.106919594122324,-0.5125348438020858,1.2260287013108353,-1.6024417467120176
9.603199915159507,1.4194812414739029,-2.9736587810593615,-0.1369611886076559,5.978743813361063,-8.79537104566757
9.72597422581742,2.991284502049524,-4.6139749444447595,1.6663364642374936,15.668853939475351,-0.6352342681141467
11.873492407675675,11.823783453786607,-0.9793982498899871,-0.13945428062344734,5.095423045910001,2.715474509989461
36.988609399627556,27.359048987332983,-9.216319578687603,0.835806447399233,39.501436973218425,6.2157304716388655
-31.48483484522457,-21.005300841753513,3.384525226119754,4.2627405911268,-5.467203470526222,-12.14128878491185
-16.97789837675718,-0.3254050597057834,2.657569393424607,1.1578086534817214,-0.03528502787897736,-1.2682733343336383
1.1593541414113195,17.284019659891914,-5.5873365482955215,8.999479272926358,-0.3462397639727346,-0.7560159865414037
-8.278241713399337,-32.30051128774355,-18.569167647002473,5.891539975948633,-2.733430091573986,-0.027249334064262998
-1.2557787178073978,-6.903379777589634,-5.088931917677988,-2.526942362286108,1.0489643642237758,2.8804677752375345
7.116833914188129,-42.583282377041556,-41.50041627858349,6.1894872561011365,4.511577106580839,-2.5076784432783303
0.5317640006101725,72.14470201559124,46.827034196524146,2.9161925470571974,-7.290559586784516,7.145573924785586
2.5278604168746965,7.51426482704785,23.44502237397205,-8.420210064068922,3.3348871463000713,5.287708570411638
7.309390497075046,-20.355280507136882,-0.8802175493549798,-4.715401950950346,6.632081661191505,7.068395726383833
1.3879290850827353,-8.207705084448676,6.381685906794151,-3.4241296891661195,-8.79867529749647,-4.384810422532182
-0.36079526918895893,-7.402496965565566,9.582105115972375,-4.171120214472431,-2.8898785210681535,-0.371498202398705
-5.609215295117223,-13.545974848657394,-6.157396379135852,0.7387766179185304,-2.8325291930238263,-3.916423954444751
14.019729544033606,-11.079595094854387,11.0923094448601,-14.62892728857307,-0.06604069627226944,15.510807214558184
-4.919383870006538,-9.798458907048785,5.0707442790818105,-2.3276691318710423,-9.616953613469285,-5.2799057065184645
-12.653783565428283,-13.758348690438606,0.04906871896709841,-2.6192064611016495,-1.3086458954313605,-3.8873099336757955
1.2182092431084914,12.83783039316986,-0.5041678842815522,3.3334295938656417,-3.5498088467633764,-2.3617793961369165
2.2696984353535,4.97416231480611,6.6712379278500356,0.45836704847604914,-4.4682820480319165,-3.5103845591285054
-1.4658655687085154,7.928046646777528,0.06160307305332147,1.1503420083435734,0.9466882125332989,1.7136026122746606
-2.004479078875709,-26.28597346160012,-3.37449133270671,-23.165153481111314,0.08292492573065768,-6.898693105901759
3.529467032985149,12.704503650798069,-3.378669516430728,5.112691573212512,-2.5091900800723383,-1.6764103350422586
-2.384709937537333,12.493410244645581,-2.115332267232475,13.245994644892333,2.602916772575586,0.9737003874501613
-5.651322962565982,7.9677122498390816,-3.256241246922915,5.881647107248779,6.094925654190051,3.1737042181333743
1.653219037527223,-0.36916010181187087,2.351269281144495,-2.4985715401129562,-9.514900086796978,-2.3898665820375804
-5.698216873937363,-3.8389612422936263,1.8585046229574775,4.2785143327002055,3.9995412367420218,-1.657860254337251
8.80165195188364,0.4206298364192733,-4.8814059090850455,-3.597033898624135,-14.900223106659883,-5.411674818354794
-4.604525207378153,-1.7176355274656263,3.0685792155763507,-3.417858364333149,5.410529619102425,4.517518015042961
-9.603486697768101,-11.663035030439017,2.654822656703062,-3.14660087184453,12.001259220593369,0.807816125713563
-7.9188905272832955,-11.244342003955854,5.031130129845035,-1.990494809019588,5.073584010632767,2.1843074268090987
-5.932440183923395,2.9904102162165835,-1.098892548428827,2.868282653130179,3.4166364243609832,-0.18039959441827014
-1.6138240850632068,-7.666444265024034,4.110627106502013,-2.9851933254425456,0.035201945963672765,-0.5332763116584368
-4.952832646582864,5.289207659729726,-1.3953900468633922,3.5758396303849045,-1.446156125077402,0.29792329612022317
2.0767782436615003,-4.711138485345647,7.107400448321076,1.7168790536228506,1.0342939191757523,0.8176982119407075
9.249211184868635,-0.19973392936445844,-3.3232710110359007,-3.2027770230426498,-3.983185477499354,-0.11081381156313064
5.136414887769059,4.04559027630945,-2.6908981933275453,-0.00849942511479096,6.505963470429176,-0.22684157625301327
1.6546877742054376,7.32922378347698,-1.5217159345693143,1.581749204893942,-4.88810052888344,2.8775301482606084
1.629368923455036,0.22987846514393562,-0.4520376559454075,-0.29945983874972504,-2.291426403556255,1.4478171398415556
-2.454823659253169,2.1087204804410167,1.4853560095568326,2.1815102611969763,1.4362203020856272,1.4747593737493614
7.861679850451305,-2.1423994946097267,-3.219496810654574,-0.08513592400183745,7.773753019687371,-3.152642311711465
2.2461067046056824,-1.0890908421055263,0.6940160984804769,-0.7644364498171479,-3.673834033937471,0.3096346416264828
0.24046462960234938,-0.3774327830731554,-2.9470090277551977,1.8968972636146153,-7.282530900105904,-1.6815935491226348
-1.4626922784044611,-2.518817413579151,5.905004072377267,0.7637885127087235,-1.9720508142834596,0.7815461780993944
-3.7439605792738826,-0.3418106003858995,-1.4656515467823477,-0.306548156671114,1.975550448861389,-1.0683134514328478
-3.461903673883172,-2.0463294885401546,2.2525944083449247,-1.7457370084518813,-0.026023916639814293,-1.2877564584392815
-3.9457970926124775,3.8443633368219663,-8.519908612867752,-2.4689212712856614,-4.3435646733493956,0.3623985905253164
-8.715391894859625,1.796860102080874,-1.3715309407487055,0.5915790339314091,3.754523412371764,-1.0953692904732888
-0.4226861960775614,-4.264112128718605,3.8800390554234734,0.6426479913672754,0.07080214173069388,-0.1521722395539001
0.5525802145821439,-2.610649284438453,2.0283596843549425,0.008922922872272032,4.714601675504526,-3.606436461124297
-2.813818670586456,-0.6029113096199787,0.028680366814186176,-0.11886637548790668,-8.76795799333222,1.6906505819764952
0.0328782376618717,-2.195159586187024,3.4167443434946407,-0.7656501907446678,1.6676460725500415,0.7448276559457744
-5.412575439552352,2.560320061342459,1.6258944518376242,0.7617479672613146,-5.513237780461357,4.973776060343669
-1.7198078621810362,0.05479709220922557,-4.762605772240029,-1.5259412535070207,-5.9983357475626855,0.27782486481272983
2.347362573710238,0.6821712832203906,-1.9274710495012193,-1.8240440166063938,8.00337027496097,-1.099062344289087
4.010421642621835,-0.22408077896320355,-3.3586154521855134,0.5014250415724398,-0.16351964594280588,-0.05263288212901873
4.5205275510921075,-2.4772822610544334,3.3426473223147353,1.2167833346606418,0.9334665513234359,0.9506364546278407
2.250953140894202,-2.5821774734191605,0.4145474039981125,1.4412584760607827,2.6715226663165526,-0.9395452195079286
1.4082164194570685,-3.573750159760234,1.9016199470943216,2.389454199484994,-2.616984537917059,0.6865860247068767
1.2025978983414352,-3.5739303661276334,0.2709822396493393,1.5731753354499156,-1.6046545604598261,2.859366672883824
-2.871243722030085,3.5447359000148655,-0.8804513519595886,-0.8478676729467924,0.5032390089007182,-0.16282435296882403
-0.00030437354325141275,3.376695443189106,-2.1450081513826023,-0.7447976111701495,2.0969591192260557,2.2666896470056384
0.9531115363111415,0.37413203396777117,0.3349779168820646,-0.6201963185160161,1.2231940812686988,-6.1582800749309605
-0.49717079949745013,-0.7121320292305657,-0.5646487461193113,-0.33261434739063567,-0.24679913663136888,-0.9099758520914673
1.42690324794312,-2.6423312641148247,0.08196028948405143,-0.4321109568942747,1.7794420922365963,-2.1883337656777684
2.0570450267629274,1.4317695195373346,2.3641645577812107,0.48500527158984796,5.087422856625551,-0.09453789918719957
-6.011854850885268,-0.18642221870365974,0.08760756025873173,-0.4328099019712424,-4.872604931554964,6.182187332260554
-5.3601621138472675,3.1045818201927067,-0.19017103586348405,0.19821482196897056,-2.0546618903937044,-0.07905163902102197
-2.5342949386990146,-1.808460520582648,-1.1879783114878704,-1.072615006205073,0.20242902174472377,0.06125608810484451
0.27502010642145436,0.20899235459259247,0.7802267466304882,-0.5232171389237722,-0.9967309079702152,0.02170113107868387
-1.3898411319006332,0.11252891882779209,-0.9164095350922653,-1.0891529552865893,1.4027851530222435,-2.451223031775063
-2.778722665984038,2.012500292863466,0.6569565484749672,-0.04393351120927097,-1.4386764981222346,-1.3870143327497964
4.460617123133798,-2.446477519496238,0.7723883766057549,1.0242074872263225,-4.088362648290292,1.3544920751300675
-0.11160931450218403,-3.9980435807104957,-0.059327235790408606,0.3744961272911196,0.6878119073762227,1.8928190829256566
0.33362404582043564,-1.2407069402085673,-0.7917592116764434,0.29820968225553246,-0.28693318943065815,2.771453749073962
0.6567137759678173,-0.20054750732138982,-0.17122986842292987,0.397757369735909,-1.3771883068034338,-0.18587849383980393
-2.023596785132947,-0.3135655136251112,-1.5470112503167983,0.23316263627395528,1.2753909027020676,-0.7026758672105372
0.2833233957794338,-3.00008219623859,-0.4400551378454125,-0.04990396713796841,-1.5302181371689305,2.418444359521257
4.747287297718644,-0.20407054355458176,-0.1100108552949195,0.7002005250164728,2.8158154770918378,-6.48127142199608
1.4379145140174638,-0.9158033610257991,0.22995557914101683,-1.316996157330502,1.1677498372371695,-0.5011898905961248
-2.678341052127371,0.9881298800779967,0.4663586288418926,0.6410275898473181,-0.15835353251334772,2.4216323255995773
0.5423223629502323,-0.8593536019106993,0.08214724918065308,-0.2765693672618983,-0.550931047610181,1.6675309893726773
0.15632668852335296,-1.4579317496381852,-0.48868484625740116,0.3200539610244738,0.4635436535087325,0.25110574833346777
2.5420563361678656,-0.8918363452688942,0.11364042222769832,-0.22530260843923078,0.6575639605717445,-1.1659937680405625
-6.312094469367599,-0.8274377655335793,-1.1343847698347993,-0.6891555686300386,0.8793204753964984,-1.2951125554058476
0.5532460041876819,1.778010441143121,0.8124113291750379,0.34116853409852205,-0.15777836197210393,-0.9167189625921878
0.5869328315333985,0.3220641170139249,1.1513827564234744,0.21582446590897583,-0.08376519863410359,-0.5468219594922008
-0.9461486638930685,-0.21125938192725674,-0.15419048911012842,-0.08374524726696264,0.28581061240807937,0.8128231309560321
-0.39965119782287123,-1.3121233545784012,0.6076146177303383,-0.4705072026466961,-0.7597263903112295,0.6467249806491013
-0.9854299598171742,-0.37253568420253513,-0.6945321916981404,-0.29927289872124446,0.673176343315095,-1.1704259087235565
-2.8811017547381415,-0.8573390487583259,-0.06768647187265481,-0.45155281047685153,-1.9532954881125788,3.3968991509858313
-1.5737431316914758,-2.1321602812521725,-0.43333477064652626,0.4406479320973994,-0.43022207533853585,-1.4155854087438904
1.1233884314071605,-2.201246893108337,-0.9802415485917222,-0.37114914139171906,0.023262617116966644,-2.2499545388566338
-1.344769685195812,-0.1441593278724503,-0.34398860637820106,0.4607537517021504,0.010100301610012408,0.38847430211842554
0.2615896236015369,0.16454983048417304,-0.27144700856850973,-0.20880050198675215,-0.3640173670227469,1.3628343469919781
-2.1259926236661713,0.12869834392509277,-0.40070271976155447,-0.026735675699467693,-1.0967981948046641,1.6004107096683797
5.933052479401501,-0.189946646318208,0.1850183151763784,0.3416649786386483,0.47683398158164836,0.377756019273466
-1.0571975739359414,-1.5177765391199376,-1.03015105054056,-0.5532903261755044,-1.96959745254197,0.42317097198806564
-0.7510360694593645,-1.4236617094974562,-0.3396348443142646,-0.639741390564417,-0.1606510022939731,0.2917590442535225
-0.1252146277346386,-0.20235834258184993,0.04320381967522263,1.0754692382350761,0.6361933703257385,0.003098731671097754
-0.5168100363802843,1.0401186129759727,0.0531158701948517,0.9489547454411138,0.6099403555459082,0.30231057903493197
-0.65522054344471,0.10220957623936552,-0.36415571813366404,0.7164721376444466,0.1756293459914438,0.9051853254359788
-0.6198685984607619,-0.1298077853409625,0.16378351338973113,-0.00037664665211763204,1.2306914445507036,-1.2811730438705402
2.5497702247630634,0.5152865949042842,0.05636090766321744,-0.1348761123696533,0.1126351696138895,1.2619849672971115
-0.8130355269331102,1.0327107396987971,0.4518859882636138,0.44811438326590175,-0.7064073447397342,0.9513661144677603
-0.7023237281009732,-1.1582735524423122,-0.0037513512657567014,-0.30108597774498147,0.30189573799213704,-1.7808037065086113
-1.4562577499685663,-0.6960157168988819,0.09143646221667404,-0.12866504854492714,0.08241455538276127,-0.46893375608055177
-0.5067032889235232,-1.8896761278934562,0.4283324313373852,-0.12470956420894291,0.8247970985021205,-0.9681471235803034
-2.731588181262247,-0.5739598252570308,-0.7062692926879528,-0.24409599052069406,-0.22776256482288995,0.349349327439393
-1.039868690976723,-0.5677645756573569,0.4964050235458619,0.07544314798150256,1.7610561578404709,-0.6128184364726661
1.676788807301949,0.28066233481484676,0.1387388820980241,-0.02357600266745352,-1.0644138384096156,-0.6349612850661808
1.6051018948539153,-1.0882946781277814,0.5260713033830547,-1.1795548157327476,-2.1659573729306754,0.49381596973037223
-0.8061907111567724,-1.2022529410613614,-0.0755042522058241,-0.4461463027840744,-0.5859465495720562,0.8553962351976916
0.6472883766934807,-0.394104653516553,0.6812247611270227,0.0693746392767442,-0.6491214173680604,-0.20966995581534792
-1.5855859497000582,-0.2769193010551365,-0.35103055781824144,0.35140945720024896,0.5023090636730707,0.39570541529547476
-2.746633416899712,-0.534128935267498,-0.29409887081396924,-0.03904501143762529,-1.1897556492640344,0.6395260703715253
-0.7693886941880439,-0.5382257076331451,-1.0401942720409911,-0.29133310837284576,0.8432771744179378,0.11169872392109456
2.0063527586870067,-0.466061004467035,0.5502059014673105,0.24496256488873142,-0.01244287165249125,1.0037583630176852
-0.6879951092971219,-0.617272532746718,-0.06852608466310436,0.36504611430616946,-0.7590688558440384,0.09298274450143973
1.1333343594710232,0.48598008139132426,-0.26514411907609636,0.5881887555380276,-1.0422362574611508,0.5760964402998139
0.168336301729479,-0.37728424416207185,0.6686599926771899,0.10980727210255825,0.9372441772769982,0.4276127973293651
1.6078418863236197,-0.9214564115272376,-0.36002520450795716,-0.22763034073050098,-0.59606865526372,0.3533760907815843
-2.821490641939378,-0.5386705413846191,-0.03645933942531049,-0.09516582465722706,0.7175843776336012,0.09294215525175137
-1.095573232684556,-0.5279830149367698,-0.5989596893559803,0.3402394028594086,1.0751820468185773,-1.4351063041455998
2.1997005798088485,-0.6007617790057806,-0.3105484490335425,0.04902416331804994,-0.162851050096526,-0.44305324958325054
0.5803277494436225,-0.33815851752244735,0.06527941194703299,-0.03205927574785767,-0.0018303268243961002,-0.1510431010976178
0.9256044882809041,-1.2849149950266978,0.28285503431811976,-0.20760437676994725,-0.3647347609145361,0.11822134928164485
1.4816692554465738,-1.0751456922535587,0.04745813983534436,-0.07054967203086546,0.6375950283555618,-0.4988577308538033
-0.2204203828721324,-0.43276805354796277,0.41060162212569273,-0.02222119344981538,-0.9188923777872036,0.39691059871052065
