Gx,Gy,Gz,Ax,Ay,Az
-20.354381000000004,5.497225,-11.395917,31.354,-686.7959999999999,214.642
-0.21122725153022115,24.763661505487374,-9.729752189597058,5.89284652197088,2.536862658117696,5.624984020006993
2.2212520842651484,31.336186759081517,-15.936363377080209,5.733234651693759,0.39624373776353927,-1.5721808434557187
13.236063240565642,35.54826486431879,-15.818855498152576,4.039313875254052,0.7363163734558291,0.5347667277337306
-2.275803718918829,27.517244720291657,-20.27500683912261,4.043378712629028,1.0980894423251508,0.01275529873764647
1.7644663162091971,39.282138947594056,-29.212109499170207,3.7374190700627383,0.4060514947574809,-2.528052620961796
-14.747451244015904,56.29261191213162,-53.01159659807486,11.267937886403425,4.615121557851171,1.7459225261529674
15.686970966219626,-3.899347477705607,-4.129769436079041,-5.784940543325391,-1.8831414666787984,-1.8701446882495365
10.996938327129689,11.873403982895887,-23.502448096607793,-5.644408719457283,2.3016150192284806,3.297833104577358
-5.451567032300006,11.270649193490037,-12.93586090606592,-1.9981333470307079,4.697082416382986,2.3189269221083535
2.6421343461586093,0.38141629456028325,-8.071162358503905,-1.2600127546743893,7.136512299184663,1.6735072480102762
6.576522016878528,-7.3137942692052915,-9.584500287489274,0.7020593891971135,12.337285722979564,-4.305632852264371
2.729448056491897,-8.320771466612882,-10.432618698634114,-1.9780182613012354,29.43823144509172,4.488518591623333
-5.763543404228491,-3.876679327177193,-13.694734730976545,1.0519638874061266,-31.31032419019815,-18.541876806060934
1.0044683850345693,-3.92716857043797,-15.73645863169218,1.3061065044659381,-9.64400020572552,-4.594483870138723
3.855612845988595,-0.4286926507045863,-25.3720875347968,0.7985822791980527,-0.5986870045851143,-6.686149144327423
2.176287265020542,-13.394583062110414,-22.6825199811056,-1.7188600570515966,-1.4809796270552162,-5.790818604940455
-1.5531822604401089,-0.41567045977751604,-25.766783001952312,4.5156878664505244,-2.661776809867947,-3.286302275737965
4.94202780746005,-21.05135255161745,-54.36099613468643,2.3743320423277448,-6.584730382568745,-3.7305029348728302
12.93642348065119,65.53277214360311,130.64607730578842,-12.853393657640455,-0.823284338825925,-1.5589943613062274
2.272512296791379,10.262387659104753,4.141584764649879,0.1701906736278217,-9.866377532408706,-5.098188103762388
-1.6902832081927799,-9.692065575147286,0.31677872635977655,4.175125052732087,-7.803521985690189,-4.087593136389121
-0.3451468868679895,7.598700994446689,-6.324571481878278,2.2114126774648817,-3.402933443966988,-2.0754126650054223
1.5607005843681332,5.902820261574999,7.424451783408891,1.5404967852393445,-6.10564109518116,-1.3732330833095028
8.286106879139014,8.728467787066887,6.917964397128239,1.4016052335347076,-0.7638867735040893,-4.004199896554307
24.176920894834975,11.259063854797816,-13.232514863351676,-4.989719495013209,33.21733259160489,29.41023823003834
-5.937653667156494,6.51747640688892,9.597068612824437,-0.5876941447497668,-2.0320021827744346,-5.279424567277724
-6.537595829557108,6.725653937439338,12.20723583574749,0.41046074671773813,-4.072508705825734,-2.457542660966272
-3.7906742981338635,1.0710916841909044,5.663342964605455,-1.4433330955594137,1.1703990800446211,-0.25706348497800846
-12.285566934387472,-15.517187220452431,2.6967808368559933,-4.364991520027444,2.974841721159315,1.6744600598494856
2.937422659135415,-29.318465970712886,-4.554559525268839,-2.9064293816918054,1.9981390265405843,0.360144777640772
-17.658793303517463,-81.5927354412004,-6.269333105969315,-25.238259932416035,1.6423761721509287,-2.3371137399359743
0.16147365997580507,32.78949132622527,-5.00069792785523,7.0054602995118636,3.1302422954559352,-0.2089290590117397
-1.0324901268346078,17.21998760078499,-7.92456791846567,0.6192116815007549,3.3116083687010636,0.20000085167075163
-6.595236977716491,-6.568596596842244,0.9617685629869457,-5.554458432113943,-0.5635271361457166,-5.030218884835733
-0.47123904875764966,-13.367889454096314,-9.308542763459783,-2.4446275908555117,2.35145096555965,-3.8956266123296808
-4.515747757340678,-11.315648384656756,5.947533237554242,0.42165333591497944,0.3020977522182611,-7.251507212430884
5.847314848585497,1.3578311011914723,-5.076969385947466,-3.4624318376743277,-2.87556691057327,-13.051857884208163
-10.74024906935253,0.909900849294367,-5.706262574083743,-1.6537596423723326,5.454994243687369,1.5551552760658893
-1.6236531821770175,-2.8798996811005484,1.8498851000568441,2.102649817257928,6.333960853188826,-0.05355651151836138
5.454907771807159,-7.456658004975495,14.549030355115171,2.71863535233196,-3.9659591113188464,-3.989436603158906
6.464160054639219,9.897795076589208,5.6903729545819886,12.318146933215134,-1.3575196078955658,-2.965339624241577
3.87638256758578,10.994587035069015,11.368876145189425,18.095189099949437,-4.881425530353618,1.2577024253223283
5.024862351341602,-9.690287970694751,7.475414685008021,8.857672558523486,-6.020965526897731,-1.6964383838855923
-5.7612971150997385,9.262635537829354,-14.169116835863576,-1.5348321296287148,-3.845396752975116,-1.5521503969351482
-5.614000424116275,-2.63813534711829,4.286390614319426,-0.8099850322748476,-8.402662177856753,0.3000188811166062
0.21709101473261927,5.171780041833923,4.260915157376193,4.076599636932901,-7.644255685378553,6.101301405592556
-2.8227146658542788,7.225659090918059,4.311093325437471,3.763414526196309,-3.087855490406691,2.5636266215913324
-2.215937815886043,8.406087771953485,1.077366961176772,5.701226268665786,-3.4765102536714854,3.876628858452993
0.06220836067692126,2.9451109628704724,-9.422618899932461,1.33568924182462,-4.81134309839044,3.302182029135969
14.802876794264808,3.7379729497756076,0.5441154091961886,-4.504520015428788,36.87835461714466,-2.2868733915263535
-9.915742409375238,16.23945793930204,-4.497854828706995,9.341358564183537,-3.7719734539130334,-4.303310853183412
-11.917595137497868,10.294720691273257,1.8081712798968153,11.39979954007767,0.43368483360649,0.33525765905897265
-4.245505130444683,-4.394600471106508,-3.356860863208256,-4.2392105625346606,4.371046649046076,-3.475724725267686
-0.16326693464069597,-8.744804696253706,-1.895148835524381,-1.1727241114925695,10.001702069076137,-4.9858793428551
2.451685176490508,-8.633775227181186,11.072084157669845,3.182265701713182,3.288595310807349,-1.4278445606307901
-0.43783368216312946,-49.58622537591602,-3.906276119145402,-38.691483440463124,-4.294919338395502,-3.5723316937723286
2.3044948927566695,16.8617509405348,0.9447920797719296,12.768908232853146,12.94877063745902,-4.787200559362553
-1.7298736068340355,4.104599402706862,-4.500648374168119,-0.5105902300597911,7.63986488442377,-4.928139989464555
1.093169882113315,-8.141628516715148,-5.5285421730520445,-11.546645206415956,-1.0939103318892966,0.19267832196141554
3.446440251348948,-8.043514361415985,-4.9254731537076015,-14.40109843082756,-2.8013010969058096,1.8089385096005843
-1.1236097499161526,-6.363230671860442,-2.7290722029458885,-3.6156826319707163,-10.785472031839822,4.230275500056039
5.489601072625305,13.277174094503374,-12.550238989234945,-10.219577896075887,-7.625362787634262,7.541850134131892
3.9692264713525516,-12.247186252295496,6.249010426884527,-5.824022024939243,-2.8534525057844986,-1.9203242419220257
6.298178992819328,2.4273906477283265,6.3182936946539385,-1.1228316664234592,8.670478043716116,-3.686695555615117
-0.20053132422918107,9.265678840974083,10.500381111402998,11.601378283808577,-7.533678440725185,3.4467952130690116
-0.25884426960391194,7.67470734972859,7.484468170845358,7.01648557867523,-2.414432557055637,1.7591200767298307
-0.731822693618873,7.02109870105186,7.226162662057899,13.95224862601519,1.9496111276251593,-2.665283622289055
4.939914659976994,-0.7377749650490979,20.785163870744512,6.637271554688306,-9.094221370427645,-0.7152919330811527
-6.2127281313139235,-4.891900243590879,-32.61556011884295,-9.50119017985046,2.142487942129862,2.841913540051853
-1.215060079819008,-3.926297873480003,2.076665412632025,-0.08400002588272035,-4.043895934511164,-2.279513353818885
-5.3901854885176546,-2.177535035833209,11.236981247726801,9.498049145321426,-3.641574686489924,-4.105540153706112
-0.8768814669782399,-1.1941721557863403,6.11810671113853,2.249665259237183,2.07067727136773,-3.290361922874185
-4.674477332966129,-7.1574017096150575,-1.4906519857418372,-2.117396060720644,0.9427807594220348,-1.8375905424885035
-2.6340546934909073,-0.7522940493281385,-10.882604679418824,-4.67980583398907,-5.70950967405041,3.6133066000528724
9.345856715366004,1.6617548453813265,10.908991003996867,1.9669793396385313,13.830574223006302,1.7062747941890741
-6.210889958869851,-0.5073580941679632,-9.41953346961912,-1.5565397079757828,-6.376017950501374,3.722984285927362
-2.3153273516431896,-5.672396342220294,-9.050678348084924,-1.7686439489959378,1.9167638622156327,-6.268383880645379
-0.23619467566312569,-0.4596968499195113,-2.5337068894078962,-3.1428544880770524,-2.543576423705723,0.23886005364866025
3.23914471538399,-0.42453607619174916,0.43059637817063834,-1.6153487745710982,-1.166166185925854,1.5946755821015195
-1.283782632644691,-1.6299685821931207,8.020378671012631,6.06475688662261,3.474114750489168,-0.47099134606663595
6.701333015742431,5.389487540351811,8.658593173198621,-6.272373227306222,-0.37853436449937483,-3.993858271446771
1.7873954332798856,-4.849218660613303,-5.904515899223179,2.872660418207711,1.193473473540977,2.8682503988068317
0.8714887339473232,4.810875438831786,-7.593440425477488,-5.273359548744494,3.4083859015159144,-0.30313260408717213
-2.953001744088003,1.887673203314053,1.5613035741817525,1.2116315565328697,0.5617158619860383,1.9498948296924525
2.538386082280458,6.34353541358475,5.285543886406449,0.4810876258691428,-0.04887547353898514,-1.8575162100059721
-2.4461944949293595,-2.8448509843962198,-0.019193756496141745,-1.182856401587257,0.6268037433734999,-3.0197913354337524
-3.282523527807432,4.630849861607802,-4.123538042483105,-4.148975610141693,-2.4731172601900364,6.312020810362965
5.186350041074584,-0.5065367126750648,7.526932987392982,2.2494541110191615,-0.5074112549695393,-3.1208035328928267
0.2988148198754488,-1.3468924331027012,5.674717725952338,2.547128670624871,-4.118985874990314,6.385581803333801
-4.960596857397212,-6.540771040492433,-0.20335882099189773,3.9857532482896856,-2.590771070515395,-1.5232981034512423
-4.880564472607391,-2.932120043592597,-4.141578202588622,-1.11522464018749,-4.808544037332323,1.4947275502340558
-0.2021634422064067,-2.795524344102745,-0.28120532610890026,2.4120538803969556,-1.9800972971572612,0.3764571070184375
-2.4595528909956643,-7.267514020764041,4.259687025919252,5.814004812926164,-1.9238521474852062,1.125568487673915
1.2265966018196757,13.440162360710447,0.7243902817517467,-5.080350757054665,-1.068507033507375,-2.167610258006154
3.0603468047392024,-7.3030029293050465,1.6973593250543257,3.8174208581698057,1.6284628160467438,0.01815704214853324
1.0613672495624311,-10.176436278808271,-2.3308765976557346,-0.9892842270359781,3.5157499837959265,-4.5292411494044895
-3.1528506143422126,-6.507498058937692,0.1330005005679804,3.3560240147404006,3.1986196754939846,1.668940377960633
0.6592490104664688,2.1278258437095765,2.2890935639140197,0.3278910443234313,3.18748664904903,-2.0127669798739705
1.464760350805574,0.029792737626736177,-1.0038677644118423,-1.2942149599790977,2.625039408733081,-4.775570562763818
-7.583856277155044,0.866533759585695,0.6198119640967734,-0.343083305457457,-5.540434720987449,6.665583425136898
6.379824521878817,1.9095891279114094,-1.3045527066364615,-3.411639896113526,3.3403160518826365,-5.013713629145031
7.238817831670022,0.9210713501856356,-1.492166337698393,-2.1223705148969647,4.272624970376682,0.22458999098856225
4.152875910652666,-2.9935316830467347,1.6459759864722727,-0.06696735812754451,0.7559715298893934,-1.6699228276140339
-4.581760793820893,1.2533803332545363,-0.06674297478972768,-3.264864235774748,-1.0409005094824786,2.575232504374484
-2.1992329709844065,-3.974110069151989,-2.4770690952227135,-3.3061464612632783,-0.6203552810450974,-0.8328583137811433
-0.8256040925619101,-5.6392898207006645,2.5972442392050805,4.117226818928269,2.3465878946063174,2.227758228853104
-3.3554028758495176,8.109776405171395,-0.7851077265534936,-4.0038187676389,-3.7127364389052535,1.9675921475926956
-1.3429000795135404,4.235837904817957,3.3087277445014722,-0.381937266341544,-3.803753374729591,3.662521379868247
-0.31720771049525265,-1.7311077969040838,0.6821729828514123,-1.3361287345503685,0.5249167190700366,-0.40652399206666556
-0.49408512186305975,-6.126994968032481,1.2993085831267202,3.584259106429881,0.19550846747728912,1.8835439170416497
1.2975518289370613,0.9764725434986374,1.5977666159510946,1.3748779405199174,2.9172847624588094,0.06643248071473007
-0.41199079095963875,-0.6208451597524514,1.9155410511884803,0.216718839820083,-5.06830693334234,-3.797645639739632
-6.345545159370756,-2.053663561624471,2.34908878451205,5.9532991704139775,1.009272729355562,6.759890701609495
-6.584930521669245,0.09421092882732296,0.24120668132485434,2.217719452020114,-2.801246138954126,2.6588733714395154
3.6636090208182934,0.19424337889363308,-2.858234147726601,-2.5760393983675134,0.8041388254394093,-2.528800432511039
4.648382714536497,-2.1507920173845925,0.8913396435388412,-0.1256897210386525,-1.9397275799268137,-3.4692699889896845
0.48941911090289825,0.012156110563886102,2.454712031761259,-0.8437033776541693,-2.36551236789077,0.984878185600127
-1.737567429541566,-2.3012717597006516,-4.604621233612585,-0.5960242582240525,1.7766990279633137,-1.372641751099251
6.048672419924786,-4.206337019173295,3.0517673465093225,1.1662973775932166,-0.8604365939118419,-3.4826936249600458
-2.6885085842244507,-1.86693925226586,-1.0479760140089098,0.8431248123290138,0.46961746324104126,0.403210652425386
-0.15254926315297368,4.913726834616546,-3.1883398422779035,-4.122201402400815,-1.5075802932989866,0.6113100188838192
-0.9544686086483747,1.3888267061253359,-2.7539811539509174,-1.4626787468218927,0.5962063538751963,2.0398203601769014
0.07009341236503053,-0.26394479283481687,-1.9652996344171285,1.0421276397839816,1.6580432225564965,0.8301572462558084
7.663723847709777,-0.9730455601391306,-1.1386805256812966,-1.1969132453366051,3.512506340706334,-2.0547273125809182
-4.86776560291396,1.4404640805083524,-0.7342388687212029,-4.0340779795222454,-0.802156532267979,-0.676500054827031
4.612472735553859,-1.5099723283169126,1.933303027114925,3.278053647101316,0.39644828672162274,-0.3112083989030874
-3.3209035878633744,0.9397872972310122,2.0424037223255356,3.202423861050745,0.2648901020002601,4.994323837432468
-0.700710437602754,0.9420360892251005,-0.4656234432073534,1.5187048467918212,0.8586322512897624,0.3145681010202708
-1.738113803051548,-0.46603418021018816,0.6443132872866968,-1.6504999392136854,1.8811991627703528,-0.8324181406152511
-0.6928031280739022,1.9798012627402257,-0.8872394655482045,-2.643353683234304,0.1694411377402112,0.44452499240355736
-2.6970897933399787,-4.137188160488857,-0.41847450319375257,2.153582726548584,0.9907535921665211,1.6189149457965275
0.7945736619074459,-4.708431847316499,1.2730653590747139,-0.666549895809539,-0.7790455212048646,-2.139181950550831
-3.0736751587556324,-8.840001963149327,3.493524293437564,3.1073244055314237,-0.35223717770899987,-0.2505094331449139
0.721408681491026,1.1053563747735358,0.8517835876243254,-1.2156837262442408,-0.3375598824591288,-0.6638960154497893
-2.184691124365668,0.07317848426049745,-1.2248610498582226,0.07495083650937229,-1.3861478057896472,2.1577713531373686
-3.783330796974605,-1.6225129398025364,2.2772317961431483,1.2256423207407081,-0.27579394943174,1.2104436000831607
5.569964602775624,-2.9549399888025594,0.0743681627238133,1.2415983430981659,-0.756999167651905,-1.8655937832767415
-4.6098164532120265,2.156060884176118,-1.2616610666044255,-2.452285117044201,0.13779802125570273,1.205787242723936
0.19244227576451467,-2.801181000454565,-0.7529748724967829,-0.10267518733027758,-1.1235475740242733,-1.804963627894329
0.9983643464560483,-1.2653546813662104,1.4148513419952622,1.1832426425521192,0.32852806299150084,2.1281306289380213
1.9674858941097346,-2.629827452958573,1.2996963197959777,3.651216867980113,-1.5092617283265763,-0.08300879935797845
-1.0993103781627398,-3.308005210478279,0.6847269109503971,0.37262609189918927,0.186697547966596,-0.04895247391431523
3.203417236116276,6.11803157025766,-3.7596624417436972,-3.759380202535124,-0.18055632676844802,-0.7811732588906639
0.05814038236531738,-2.5697542484076172,0.37782514444498805,2.030006731923227,-0.9266249312359647,1.094305541909201
4.074381651115021,3.3372738164993976,0.38943951236010155,-2.266258940235627,-0.4757719469843926,-0.7091048765440648
-0.8233263217821798,-4.520021989995039,0.49224796361498785,1.0330405811897467,1.5491614641227767,-1.1420287255930546
1.5477181364881079,0.9190422657025199,0.5189918865220035,-2.1750498339413746,-0.45832707857606697,-1.2826165995398795
2.337767886992382,1.4153139904673298,0.08772160066906509,-0.7071569550650088,-1.2458514686863191,0.5757731294921282
-3.8117082101976663,-0.07448753061562474,1.7584504433823551,-0.2472735984091159,0.017974207777485374,1.4453192076667933
2.620646713220616,-2.6271595978375917,0.9773373631377684,-0.25770180792887953,0.37269623181443956,-1.8429718081217736
-3.9025785398126276,0.8479052216686456,-0.3120467829712896,0.07599640083706083,1.3494220829403385,0.43590275008438983
-2.9600271630767043,-2.883503633343995,-0.6528576694634997,-0.17540732554766603,0.21943830433570555,-1.4845821827417203
-1.2147731370269645,-1.3218847827030964,0.002189506399896457,-0.7942073713953824,1.039132779655627,1.5218713013541534
-0.053683771674478464,-2.6620338552021288,1.1274364079359478,1.6827202787870266,0.8033384787569651,0.36467356378716925
-3.132325085926559,-6.314852044117165,1.2665774882062417,1.9129137544452197,0.76821776493411,0.6088809890510181
-0.6076696509301791,2.448824901038013,-1.1328235181714001,-2.0569072114850724,0.12642318562677834,0.3475927827989618
-0.15191905748371615,-4.008355388065838,0.04513578016502984,2.4136775386871037,-0.8196802871736942,0.8850784189108236
0.4494662341453565,1.1962993997483675,0.7162973801735292,0.3464773969583262,-0.13992206397319729,0.3215725784498049
-0.013440688501501041,-2.7136425439853458,1.0703032326930797,0.9853346691192679,-0.6657018967777781,-0.7462957895929102
-0.2510252843726611,0.9244976022498648,0.9696386587860588,-1.2993991429790437,-1.0718458225394571,-0.2876399086861663
2.140736905761471,0.664430669554104,1.237543406345214,0.14257174016332974,-0.5344189883563175,-0.5225273428723582
-1.1339778621914194,1.2935901529230387,0.5162103744800165,0.5816533855607227,-0.8007009914611695,1.4190076165462173
4.278215011575115,-0.05003570257253198,0.1722927032041599,-1.6695758154364735,-1.3508688469420802,-1.429909904078044
2.4494767819516925,-0.5497203053813975,-0.03180079063231597,-0.23619202389351668,-0.6843195521462098,-0.880748213224831
-2.9384563716719225,-0.14483143427764444,-0.2633329062144014,0.3189671614847779,0.1186056010041403,-1.3410053875419836
-2.482273975137745,0.6166412359919851,-0.8210779937291995,0.17476784411083757,0.5760238601966778,0.29669481175719625
-0.12304048214319518,1.115353566357066,0.16638411511229423,0.04353875580610422,1.4082067389355277,0.020594437307491553
1.4020664403645189,-3.4250580957176924,0.5323549346199385,-0.5312826143322743,-0.7755603213478427,-0.7325329625700896
-3.5944902612758285,1.7415465510007144,-0.23433683793402293,-0.9002208852353508,1.97559748691805,0.2876973532013962
0.9560248560495346,-0.5565366604299187,0.5282156126336262,-1.093972065917182,-0.9437304075411769,0.06367145358775761
1.7895075857349512,-2.136757122863809,0.4219791835677782,2.0330668670097873,0.5239493144612101,0.5669682080977809
-0.7789789696846019,-2.9129543572846566,-0.07508815435550165,1.4246634039753823,-0.0933009346363648,-0.7477861142388933
-0.7416208107865164,-2.453501883779607,0.4117177375510739,-0.5243266728925575,-0.34788029595058223,-0.14404994815433436
-2.957842326253735,-1.4849435367084838,0.7317784630410373,0.16829179733875965,1.691175054113569,-0.1591478716787944
-1.0817415489160314,-2.658813607742764,0.7588967977487222,1.5310628129430817,0.25545282556454757,-0.00942510121290252
