Gx,Gy,Gz,Ax,Ay,Az
-9.812094999999998,5.368155000000007,-6.971476000000001,-19.859999999999992,-606.1980000000001,-29.849999999999994
-2.0857495573242435,6.849968152972696,-6.379197765070429,-1.7632172117464333,-1.0457550386118806,1.4521240447660777
0.5251533922227404,10.920443719350118,-0.7680908606800884,-1.4060120386068546,-0.9483445237862789,0.015607536510264364
-3.6349119822732217,1.1861274564284234,-9.47950177396243,-1.5965734144833148,-1.4293871022959603,3.1136086057534893
1.5538378284439172,17.059723271274173,-4.553101667751736,-2.7726680717558687,-1.8029823712745636,-0.6585005039935417
1.3415098182767187,-33.36304788936787,8.302724946256387,-1.8872748532357804,-2.69620787376189,-1.012422239414889
2.4568581531019538,-151.83725977396378,58.59458446984883,-7.743863853752302,-2.1272303675620927,-1.806566379719035
6.819950622278546,-0.9554367419380734,-13.695857291061884,2.2253251199441193,-4.33119793177956,-3.628811226674255
-0.8377275374169739,-2.68166242319438,-0.10981111480740546,-4.850793292891936,-1.6491792616409522,-3.85280740677911
-1.7502841217648992,7.3886102868576575,5.303480550428224,-1.8852711626373049,-2.237147458285296,-5.861931517620998
2.9634628679409607,4.877022357019332,2.206800645183032,2.1444682342220736,4.60327572979095,-8.819261979809582
7.1855630967319195,18.61883480791417,0.008988019021895277,-0.661023875013341,14.75642249772759,-9.172934305317312
9.89364644030271,-8.379069124067083,-0.7595036874825148,9.454988712526273,76.9667224188361,-3.154471376042544
-4.491359764588184,32.50063766001189,3.2135434573785946,-4.147276192082471,-25.625077119155854,-7.884429751160506
-7.586523335237818,8.578648260284133,-4.596868615964905,-2.371761316241067,-1.2807035501446151,0.16262645767538664
-7.722263462600889,-1.6872933502449943,0.5292991949217585,-1.970937179370254,4.284112190385375,-2.0924804135762867
0.04905371339911557,-3.844378186868763,0.418223798991443,2.307909887339513,1.8529157393724573,0.4859471241379065
1.5894383757637127,-23.807441789561775,12.421237353998473,-9.075009543438362,1.3100697200882137,-0.7048804376916227
3.766617696626536,-21.033508016363562,61.37588702040793,-11.756323904767292,-10.318490028952077,-2.25931536160686
-13.459445192778713,-13.978872066208888,-50.27231710516266,8.389049079669528,5.785685010369886,4.294507641858065
3.539496414702064,9.358935669812794,-10.952810894415009,-1.5444053094640533,-0.7703849541158937,3.61669744728816
0.7485219383343129,4.160639110890029,1.3236397936557607,0.09285951909557955,-1.1369688993725926,6.550238667179583
0.3306342302888037,14.712088122741338,0.49935400785602546,1.9560682158234586,2.8206359887148875,6.643398704176223
-3.9870924960631284,-5.541967752503052,-5.357605069970541,3.577926547365669,3.160744787362016,4.351236283419475
-2.091670648274335,-0.18240084637154386,-5.704182668843588,3.2738134796008627,1.8384780187748495,2.6025200526448486
16.59619722275063,8.31837092376994,1.3936548585099926,5.904444261284236,0.3341766561083357,11.859245989230438
-0.3077075814702783,0.31574912219818785,-1.4956295470086352,1.0344536483810214,3.404190738594192,2.633450759970454
0.586374051591461,0.8006927709397922,-6.773464280561598,-2.652586553500331,0.06181349121571342,2.007405887289001
1.681252359634517,5.34233407326418,-1.6478618822685993,3.871448285887625,-1.181706722071525,0.534378511971251
1.8757763547647117,14.84852763824882,-8.003573696533795,6.986771120195527,1.3951430582574762,-1.7574782296504263
-0.7692826112414284,4.9251963608512,-7.263740751727541,-4.019874072765318,0.6168055699070609,-1.448699923708138
2.6780225374716817,26.616135999987833,12.377034949526719,12.951820173667674,-5.866285531053453,-5.155450103198915
-2.846786028841009,0.34824891274232606,0.08703788604628393,2.6552459598523903,-1.8503082810925136,-4.280403101395168
2.933996242663725,-9.466572432021593,-3.8176963959037735,-3.4607315574265396,-1.8038351536738129,-4.230652927113543
1.4631500525530408,-0.9278875811368597,-0.24570989792408326,-4.426714974304493,-0.44171881715988537,-3.000681761908159
3.9552383896690846,-1.839106630368537,-3.021935280356532,-0.8054430244269817,-4.307454032165537,-0.27283339486814684
1.0078708289227842,-6.922687577392927,-0.350481848761224,-1.6559365980046834,1.0800266236315057,1.032278945665543
-11.754728470168644,-3.2502690854738394,-1.1349412032739294,-8.741906605958647,-13.7361813126306,-13.537452904040599
6.994871179260965,-2.518092813123976,4.776491825956406,2.9387632965693538,0.46728765725384813,4.583154450873565
-2.848093970141731,3.0171709006774936,0.0567124761657567,6.169159555468751,1.16160595218156,-2.311780010187917
0.673634652228372,5.914729040095966,-0.8328582177203252,6.001037412463308,0.148784054316782,0.6216807868429342
0.3896842492194441,0.2624809407497315,4.8118036584538135,-0.6049498252032448,-3.3083840559407633,0.08460614529966826
1.4846747005100598,-6.369807501567707,2.430227094358073,-0.7009010744569267,2.6843630959625004,1.0374395700920906
-1.4310055445536667,16.044473045922302,-3.2600516518176805,7.154975615043067,2.104686460834275,1.2594942715670323
1.6697430472178358,-3.3820097801740867,-4.795210315887687,-10.461587951187692,1.8582037960975042,0.8022313377434116
2.904083738189624,4.80029100153626,-2.105650212296826,1.2482372485248674,-3.0944560585948198,3.3280341003359855
1.2851266160135528,0.11614784835296815,-1.843030045396199,-2.10969298482282,-5.133750990649627,1.2969575172702859
-3.562853369088649,-0.29597913882111015,-6.824210755026603,-2.6660556599814056,3.6863744798339964,-1.2773785972547003
-1.988467809471363,0.8190023154176918,-4.61609690785193,1.3882204738965525,10.267098086286463,-2.1347031118145012
-5.17236531999785,-5.196091043498136,-2.4152932823198365,-3.1969893018943045,18.157139830191916,4.646264205150049
4.797837056208241,2.5875751571529655,2.447465031939398,-1.5202605158653082,-8.140781139267254,-2.588527450997984
0.8660079511954611,0.38481517652784447,-0.1354525641497042,-3.3167762276783717,0.1094857986839778,3.0836181281838946
-3.834137596481374,-5.708376585674477,-2.445042150670249,-1.4482106933447891,3.7068039325230266,-2.775501369600829
1.2150676592684584,2.9723942024750594,-3.0990801884038914,-0.743723460423646,-1.4609129444484719,1.4833796978821314
0.21174130808563651,4.835036200973914,0.7859320334492119,-1.9947435435318446,-3.276767367941798,0.4894763493713383
3.9266193438829338,5.961440525658097,3.716215843241426,1.2764310134747934,4.338841964636207,3.150221154461298
-4.681932272287028,-2.8203724738074185,-2.852956062036406,6.620354475260326,-2.470491550810118,-4.617910904244633
-0.572280736925876,-0.3608561513648749,4.53051914358666,0.22886454335547501,4.585811287890576,-1.4207083608096218
-1.235760221195482,2.132300042320715,3.397434699315025,1.2920834435892212,-1.009614868853518,-0.9704366110788613
4.101300933112614,0.5712285096152376,5.233086565644486,0.8439604556602266,-7.180789360369301,0.5037507952076508
3.1081663637524906,1.6842703865945043,-2.423793014699348,-2.534179543071099,-12.824744517675159,4.089418067368108
1.3386599456023336,-1.3927524296813374,-2.7485505864312048,1.8505887255119546,-2.131591987479391,-0.3194451800578373
-12.662231376371484,-6.4931337367631565,-4.266655351697471,-3.5320390652648443,-1.6681895936832247,-3.7673994570429126
4.138577759920777,-1.07713834788932,-0.22680167878368662,1.5907057351301863,-0.41355305294871836,-0.19108355221797532
1.4176956769747953,-0.07228980143055752,-0.14964803743579685,-0.9575540293194003,-2.7573901663594436,1.5237633860914204
0.5323131857658693,0.07148102906139409,-1.6687535120596535,-1.7150633849761565,2.347996404744272,-0.13542455924455218
-1.1728742719556489,0.5989893722149855,-2.508242878476537,-2.335647412970925,1.1421073687873466,-0.23645947932896905
-0.9498127144833521,0.3898603087099415,0.3975376583942643,-3.8293259548239207,-2.117397016367976,-0.8358208841018291
-1.0177442890199053,6.762179683198239,5.956557035832301,2.990454853043922,2.497018309039948,1.552061709219136
0.3854270761884758,-4.655853859893827,-1.2265082881370226,-1.198013425113169,-1.5178080420587878,-0.08072086952525695
0.2206795319993562,0.2237323014994571,-1.056248746695232,-0.3567716747859533,1.9947319633458092,0.3516442880142141
0.4874953094387471,2.5619276858722664,0.16718511751944032,0.9417155402095434,5.155568102312998,-0.5127033332629248
-0.35208623724466453,0.9617293773133762,0.6911316102189793,2.2303444459004287,6.544739485661686,-2.723479145161887
1.3479290949288236,3.226764760837587,1.716372354451333,-0.8979541423897618,-0.5963967585879957,0.6791072930117059
5.391163954334989,5.0714890438511,-1.3205472683085597,1.84267478690241,8.933366810133464,3.447000393477526
-5.125524185411409,-0.1024026090009511,0.679971891086413,-0.4034625379836205,-3.901737400103005,-2.446427285018922
-0.10977349980332982,0.08343758642654686,0.49572812662453036,0.9658016388290379,-0.6849832771622293,-0.5177563317839385
-0.7024072597534734,-3.6296059780343644,1.084092749577538,1.090423017448376,-0.6718394680876084,0.08367848360540064
1.4628930278162244,-0.41963311123185454,-2.7420715261482993,1.437985966669789,-1.993911693131075,1.9952398179766475
1.5334625547114684,-1.6687768452074156,-2.804780677952668,0.16906037319938644,-0.2185194077693156,1.3033973943480865
3.005127954777426,1.51768834666807,-4.011132173700946,-2.3925971554193186,-0.5230066363439398,-0.1249893399103455
-0.8043545851140901,2.396015734799195,0.3624953867427432,-0.4823259849847684,-1.0651427615017888,-0.10688622699399519
0.6028043449764597,0.079050461127677,-0.15279318544092013,-0.10899695211955818,-1.1350954043721493,-0.3206864815516033
-0.6846465343268181,-0.5893669699831061,-1.9472975429925303,-1.7597396607140325,-1.9395130312391353,-0.9534733067339762
-0.8574387661687797,0.8082238797975458,0.4286379832539425,-0.6831331572326425,-2.8469968540556785,0.8150558501858062
-0.5091049164283106,-3.7077712130938596,-1.0877704080761808,-0.4385352419369257,-2.579233946142185,-0.9982327226960952
-2.7145533539403783,-2.689321028398518,-0.7473481316940028,-0.9765008855723668,-3.8126692708768526,-2.9808259075452845
4.0986755033406475,1.9249103222088082,-1.6103544169229511,0.035822140690949134,2.673113913618286,1.8378448216525312
-0.17132464731391683,0.25857267083387825,-0.3023494514967071,0.03339212709058459,0.38821102185343626,-0.24426338707961825
-0.017139429992825916,2.8302272458411393,2.079870750729678,-0.2157965130001449,-0.2264737237633303,0.26026522541475583
-0.5510910021203382,-0.24639026649579943,2.92362457705418,-0.6867747833813197,2.183174950033128,-1.4088021965396182
-0.9335268980777458,2.7563058979447965,1.4536840841388796,0.7616207149919534,-1.301700330128746,-0.6406834944551136
-0.25853683150057416,2.467621034324016,1.3332663739413178,-0.10151453461634402,-1.3391916792289562,2.319456576676785
-0.7103061252547488,-3.765144784047652,-0.5133038805534893,-1.0817182954723705,-0.45429385065898853,-2.3525453502161184
-0.04961363216068462,-1.480520026742988,-0.39301910850134986,-0.11037855232626437,0.6288018619805164,0.2317112478300208
0.3551303253554847,-0.4711053831790608,-0.3401778738672657,0.4491928041866609,0.3512783418026797,0.35660455180697903
-0.0032909549455324427,0.5477710877326887,-0.46674939339467286,0.09400731580955468,0.2731628108209605,-0.5512042206967083
-1.0198225535628525,1.4791793878736672,0.4985435229137247,0.08974986676021884,-0.5439355150315557,1.6365984439174612
1.3724572054823172,0.024029159605362116,-0.426502162974764,-0.03033965974739289,-0.7513908792225716,2.8660580646655385
-3.9829744158246925,-0.2631913176140341,0.6209511255736853,-0.9181151236502068,1.275677511046394,-3.632637974477869
0.9111366374364123,0.06627223325766549,-0.7330950829494637,0.028399988975409296,-0.5011038057746862,-0.8679370773421637
0.08753971915728587,-2.9516026650563045,0.19051127307284849,-0.10469229985983569,-1.0143688406373144,-0.5831448800569394
-0.815009098256382,-0.5309964089827867,-0.9027656998463323,-0.44887783704268314,0.19101202572574588,0.8553660331927293
1.1849104077561887,-1.0880628176722886,-0.8349381872573315,-0.29348535911448714,0.5404167085585997,0.8212965488448106
-0.6749134996228059,-3.13610106691446,-1.2107827337559494,0.5035771150798272,0.9908130183335686,-2.597822052838189
1.2251128968466514,5.686906983319255,0.8054090971136747,1.1730075574282919,0.30338822439255747,3.8435821301084987
-0.7273239554235933,1.6692384425905824,0.813465549956044,-1.168848616191839,-1.0006325536895693,-1.1735532711783463
0.2645457668063782,0.7556167797481694,-0.09332334540216658,0.15984116733428141,0.9824670588539266,-0.3016707368936008
1.2475703781681577,0.8732722822267177,-0.1575421842679786,0.26479032823172344,0.8335367902890787,1.1155380754513877
0.8628878353342075,-0.5531401471245394,0.16581297916122734,-0.20501864215190901,1.1145004080439602,-1.9854934578496173
-0.7226183577329951,-0.41545454215474564,-0.8343865844037748,-0.683614279301435,-1.1579818468799354,0.31586394551399266
2.229362579831322,0.8062604347336145,-0.4033741855313646,0.17595963790631203,-1.3151571704698999,3.7585714611071324
-2.0440514189498016,1.5876019845026195,-0.5585798357363265,0.2404950181875093,0.2181831486246244,-0.34634799527775983
0.20479679305065296,-1.1387573393135733,-0.037999583704381,-0.3104760118933665,1.0525600425333814,-1.688799827315587
0.2838599957539235,-1.0961029643573879,-1.0837158535323028,-0.10552789412611784,-0.8134535223274632,-0.9159380069354042
-1.056664261343002,-0.563158464227516,0.1632922160744381,-0.6409795102302124,0.2544763441528198,-0.7056995241701818
0.7623027206040212,1.4551820994837263,0.8141295402312134,-0.21184752858341283,-1.349511019180469,1.459936297688609
0.2646842012303567,-2.1557529371291806,-1.3169594413967665,-0.5259733593611038,-0.39851578515616026,-2.3106119174659288
1.8727588831540647,0.7413678680181748,-0.4500540083178597,0.014778564311123232,-0.007088802270114547,0.06746766736407717
-0.09325414602155013,-0.4024260497266713,-0.17417309751272683,-0.4482088879668975,-0.9482618579597359,0.22689281658599886
-0.7081101839421049,-0.32213101587458015,-0.09049300114966408,-0.2064262270974421,-0.024318336716704914,-1.799039661608641
-0.7854842232782387,-0.5255422129915055,-0.46287831826793124,-0.2937033025452982,-0.26225498160027505,0.3633231921419299
0.14767710827166536,0.07428329657714561,0.3376685094495582,-0.22457212141869254,0.054132923174014136,-1.0900331577476727
-1.765689352292882,-1.2508830375605398,-0.6136457309568766,-0.4045055827495556,-0.016566534658652987,-1.1929232987434228
1.0630463445385456,-0.561570670960984,0.034887405932470195,-0.4665567908994578,-1.286741332236206,1.9906289876806635
-1.1515433249667144,0.8582368227083903,-0.03435733374267798,-0.3850587163275109,-0.6898892589215996,1.7050320850490923
-0.06690092182727969,0.14316913515040203,0.20977240286870105,0.014162743529962663,0.11953841770236284,-0.21624722288719106
0.6999600928181684,-0.040334329168066674,-0.10262740438611995,0.09107852094670855,0.11335025060609544,-0.17835828937029183
-0.12251055402892225,-0.7448373284463947,-0.3080691786909467,-0.08233006555538824,0.07024283264423392,-0.5373403382795594
-0.9072042187850448,-0.11494143277952817,-0.6630137902202901,-0.17312474815687479,-0.25011815518970615,0.4731441749494807
-1.586914719816799,1.289115035757178,1.087979943527761,0.7799354624565766,0.4880539760969569,0.024265635936682198
-0.4131090195528363,0.5341024167230191,-0.8517742086823856,0.0834364538925885,-0.6076982307585859,0.7230272987028497
0.8013922095389896,-1.1602554899897242,-0.27919207038419386,-0.4351799178505449,-1.351353114963549,2.1080126706758353
1.2286202170432179,0.45430489455979317,-0.8697159624736128,-0.006424002174469479,-0.044186077341612534,0.06568917043169076
0.3144389019903548,-0.5640694109715485,-0.2589592787184496,0.2112154851388735,-0.0421986396245867,-0.6347484199946367
0.7371823021514174,1.0408217547109453,0.06408648865098591,-0.06745288379703057,-0.35516842471810267,-0.6273711441723648
1.0377438076119843,0.31893369225504004,0.11720037387717,0.32108311477095247,1.1672327456134208,-2.443453738789647
0.6844222038354689,-0.13572516040861682,0.6482402394592729,-0.1470730501113378,-0.602373885699618,0.13866158719691124
-0.8444304082861641,0.6331521018681092,0.1011064294582871,0.32961594020344054,-0.0982158485040176,-0.04998945038506242
-0.4313449618177626,0.0770555563867677,-0.29923344237764243,-0.029130328911068565,-0.2730453114372572,0.02304985667307602
0.8526972201709615,-0.5287787175607472,-0.17537753125573127,-0.5178375691917614,0.036518846150841264,-0.12769829460197013
0.12992197035095066,0.5716393463960043,-0.45460776933684266,-0.2418998946053579,-0.4568429867843103,0.7570187420738712
0.17021375256664484,-0.7393844472741449,-1.5141149402203313,-0.9114526371312908,0.013384310190326175,-0.5477091590785297
0.6809689842814903,-0.1138542779381484,0.7349642759488315,0.34884356138219785,0.6503924433396975,-1.704713277850468
0.34785234974991897,1.1152201715791976,-0.05104717121154567,0.0008304598901898719,1.0192443197305407,-1.2541419851914353
-1.1236989082623712,-0.09880350218560008,-0.393611893755757,-0.5663967265026801,0.39299104998839096,0.2807302306311259
-0.561391608788702,-0.526082490779842,-0.7290802931076089,-0.8740072102908368,0.5344299144369522,0.33101498794224704
-0.6648357204098765,0.12009461855471973,-0.12855303210459978,0.26165536654820815,0.11060347568795004,0.2099525258950923
-0.44462033075850355,-1.0935674268368545,-0.4654682981069849,-0.47722216888033375,-1.1242298027348565,1.5824517277464114
1.1566331731745096,-0.7061885026497385,-0.016268562872563508,-0.4279682038267304,0.9246430788152921,-1.163125259322467
0.4324370273838942,-2.029538343075405,-0.3391079610736938,-0.8094894183271288,0.1280085090415033,-0.16938923172658416
-0.29125822973210314,-0.8968428818592835,-0.7486135977186086,-0.19784864493748414,-0.5106262370762238,-0.4258374597994463
0.05016563360497803,0.43038362280437265,0.17414773707725123,-0.16643030366862976,-0.6037898224759985,0.4166048562485791
