Gx,Gy,Gz,Ax,Ay,Az
-14.886026999999999,0.6838539999999999,-7.289762999999999,6.548000000000001,-516.968,47.102000000000004
-3.238502599634865,4.914398503799269,-1.9376004914359426,1.0909154665302196,0.543014152635648,3.1679828697713672
-13.53038352620911,6.815352727536084,-1.7276557060597149,-0.516810468425098,0.2752533840158282,-3.0032190258888694
0.5797532792726945,6.000598312580343,-2.486841854359545,-2.2773545836038482,0.7070191315534984,-3.9720082835964208
8.851217885841672,4.0208077700465585,5.734511473473381,-1.5969958852713682,0.3497168096775902,-2.443627116913053
9.926939589686365,-6.976064265989873,13.654508234284245,-7.85862500405949,5.046047508269316,1.5929775091295502
7.761463667281982,3.3726748389054975,2.8753947202724595,0.849528522218369,1.6846447452974118,0.6950506897017723
-4.307312640577975,11.633838701265713,1.995018350540513,1.3251777559216942,0.9969997493647074,-2.426638191281004
-1.2758222514712305,-5.9226474056027625,1.2932723724505304,-0.2058237533831151,3.1738695991912946,-1.4606979825575843
12.9953775671962,4.021334985263766,5.892075417558417,4.107681269175365,11.75376025190998,-1.7162874171067592
51.369422022403775,-5.048697818507176,0.7264547403260915,-0.7493970420332852,54.97865655821841,8.5025547479751
-9.1916598771771,0.4121158652084924,-0.6144270299046761,0.7951324953550307,-13.196792795927859,-8.38392541872788
-7.228321465735001,-4.733018274882207,5.506844828751978,-2.332123622829969,-2.640678782402113,-2.7416507998395367
-6.537297786728162,4.882051298022696,3.692614654744424,1.805932972555897,-2.1359781408953795,1.5576919214865848
-4.274491685438452,-20.413514905236717,15.576646710016622,-10.18793701187699,-3.0913348199327855,-0.9618117531079164
-2.6681306949948875,23.63293940962176,57.24003595190587,-13.794832205431955,-4.707614472441643,-1.8610030855233124
-2.545887611931697,-38.27846170076355,-37.6298790165876,4.380706058091848,-0.35814930560710834,4.331797085490081
-2.4794655165435247,6.187984608120917,-4.816647014356587,5.289492059375766,-0.6178862614545668,2.6849159271278475
-7.1189806155259525,4.394595218213363,-2.958648101932882,3.1466390210882427,-4.495626833451428,-0.03307571715165697
1.941860690525155,1.9245217593191666,-1.5475533822868706,1.4663739317361215,-6.859203975370649,0.871039538253594
-11.146416322006582,6.851727961867552,-5.543350853496264,3.306037706954613,-3.312254916565556,-10.997010468478368
12.110190333629937,-13.162737178561823,-5.0491314101560585,-2.4858862243910536,-1.3544670209846872,15.091566881986827
-2.769297510703033,-4.468095954867515,-5.866188983069406,-2.277999722632451,0.44547728390980745,-0.41065151184532395
-6.313319098760277,-2.762459997103327,-9.584527240396573,5.583848827773784,1.194942315763699,-1.3056201715149793
-2.8343431050181818,-14.43381808782259,-3.192114592997004,-7.543217502713739,-0.42530211356011904,-2.0015930758453746
-3.849291472021958,-8.520849767233381,-10.370125125469757,-9.808179981239533,1.2221736481508716,0.4768558188040225
0.31852704974756096,18.50724488095681,14.057039163342212,20.768342364417602,0.03054234868773506,-2.8162826253651834
1.2908906500765212,-4.143225442871116,5.289749008926272,-3.160543116566566,-0.3562318062616612,0.7242872761605552
-0.12958480379313309,3.2308535413948896,1.7334134793494487,5.9686056996211745,3.87625643163713,2.6056021498693513
0.6201935280479822,-0.34079331584275074,1.3516752555755014,-2.988627210388705,5.713820339282231,1.351175677673673
-3.38011331952823,-2.9111353690451454,0.6182083479182301,-1.1586538274923002,6.691835498269752,4.3072612881054715
9.532626693373011,3.3515160420421095,6.093095721023534,1.7864353559737338,-17.49798610203473,-9.337549675929154
-1.3531549674122958,3.550182174547591,1.5830818619384583,4.114713174703051,-3.071078401528376,3.4223990327291567
0.6856605490615308,-4.905996383549293,3.471778880312288,-1.4625043286843928,-3.5814284572555994,1.6243527875671875
-3.841528746036807,4.643724121670239,5.1377299371144085,3.753391661398573,-1.0360966867631134,1.2646370404382372
-0.30428365412653946,1.6631163314375814,-2.2651262271372303,4.413971618175053,-2.872240693503787,0.48827955235594445
4.169096698539358,-12.10650952848636,-6.415908744176682,-18.121206595186713,-4.389388038517219,0.7731190049849999
-1.2367258191690125,-1.8590003250024236,-4.434276627621197,-0.733001798725597,-2.532472917969987,-0.8201988037492219
-1.285949382394987,0.5789555548900722,0.15945704499550928,-1.2631614214214684,-3.063654555585236,0.20058317667045866
5.101148453675041,1.0436718016320867,1.4844044637236706,0.12570767327966692,-3.8607480722340597,-2.7641561638862515
-1.5435742962192556,-1.0642180253099838,-3.113962325846223,1.1900210946032308,10.164842469157811,-3.7832218022897575
-13.374344010735896,-4.521576769197175,3.5842380683981925,-4.1643165902529535,1.6400366949180716,4.6559475607287375
3.127709088421226,1.78045857903901,-4.792631543252395,1.688693521959654,11.26023041013306,-4.040236789541169
2.389936464311394,2.447963043416167,1.5984815549751696,-1.0843047022756993,2.597492898514643,-3.233623005219318
6.766811070688551,-0.22493832341976816,2.1838305904677524,-1.9529908957501445,-2.148863204134315,-1.6932181500682284
-0.7377283798101129,7.792144698285522,4.2175482177899175,2.1949320259225744,-0.9868908913989491,0.7269980477653522
-7.898518892822425,-2.651055397338255,0.505095450661252,1.2278362422501092,0.6913655249975488,-2.786214614080807
0.01409103547837498,7.033910646879173,5.019558375260924,6.989260237999603,-5.845180725391881,1.6976185387473004
1.6181741661742515,-0.20674326107270602,3.8153518325764115,-0.5635035326672474,-5.095448666627281,0.4906794763991119
-5.846208546417904,0.8727835235066443,3.61973045749167,0.2914734054631527,-6.466732120952603,2.2584066028725776
7.536767962993129,0.8095669143907287,1.6867131554322525,1.1162609669527706,-3.7998410142434538,4.102143696464791
8.693001844050896,-2.0719757411881847,0.7919575322671543,-2.5968167870352383,10.842744863363112,-4.229472748883576
-1.235800008609222,-0.05059577657681702,0.7185013969904748,2.0940365505222713,-11.165419974528533,5.79401471226897
-2.5965865797788568,-3.579693620169341,-0.567034998539822,-1.7371589733613393,-0.43680872803410387,0.20877816297888407
-6.134635852053334,-3.5083484976191346,-2.765802968350625,-4.173330157795051,0.07035985371393139,0.6307538554443806
3.250374440583233,-4.121893602744976,-5.090722674480865,-3.564493703306206,2.0552671045678803,-2.7715431443554888
4.964329179040048,3.45029095874148,5.168356385330789,1.9580884611208242,-1.9432895926467078,-1.6737036348611514
-4.621081383649839,-5.652192594562549,-8.225244642283581,-8.45592299208613,6.594556053856567,-1.2902774766827143
1.7949105830905814,-1.4610289236591376,0.9077917548274435,-0.8818483606194158,3.2301007753964437,-1.4087527611034123
-4.24188526485645,-0.5768726418052259,-2.7701908785514338,-0.354557002831627,4.255034414060045,-0.7546821057674036
-11.31691273803413,1.9180822515039386,4.462227654975216,1.7585399619847744,-6.900682954004036,-1.1052661075726617
-0.23641435482681808,1.848217032998745,1.6152382548098936,2.0862037380488863,-7.729027180355983,2.98739879174964
-6.553553053557598,1.6061506526537275,-0.4774825194699728,0.9921144534396055,11.172505703767953,-3.97980707491357
8.570041388169386,2.0858555727666777,3.1535508804685617,0.5076031161830366,0.997022935190225,0.1628146632536263
0.4095104006438057,2.995205107113663,2.1237311849800315,6.002859720267963,2.568151627729675,1.592619469028771
0.7464000386797709,2.0666905542546834,1.1629772574315278,0.6298925010223145,-1.7015934108018922,2.76263431792884
-1.0427118180278383,-1.975408562857695,-1.8881094030487038,-5.6116595452537785,-3.305579359182169,1.522986562947611
3.362606692650872,7.851267149169724,1.7611378275322043,11.052427941469407,-0.0713236865660728,3.0391634162273293
1.8836987232829878,0.042263942438756086,0.7573905987795879,-2.264769902427357,-4.354263101708928,-0.27939971148512677
9.275337287223229,-0.7715197883074426,-2.9010709004109096,-0.5585993419332185,1.230764711678371,-0.06800862917646455
5.959366412096994,-2.934681928501859,-2.72091490212451,-3.1823062798028428,2.922477035940273,-1.714510588666582
-5.531988790284961,-2.2627869858664527,-0.6024826707619824,-2.073374746833018,-1.157251803920758,-1.9984843258720733
8.352121923292303,-1.2727643628011425,-2.6017435431306994,0.2172955170745663,-1.4283481541525076,4.317058947518598
-13.827562549239213,-2.2804358416994055,-0.2951420460756634,-1.4333781324284784,-4.770035469093347,-1.073898728495017
-1.827155240771353,-0.8069515036417991,-1.3419735945034295,-1.2671141898943619,0.17435661103456612,-0.6520381871310356
-2.2947739488727876,0.12608570616026116,0.17732834753476112,2.4461284162654566,1.5003261463111193,-1.2190016266852297
-1.1811584977538516,1.3052077451185349,0.8980149617991914,1.7230752905276323,1.139121639382331,-1.943993538915826
-1.534113960754829,-3.7528272318354885,-1.7880514711613378,-4.690658919696518,-0.1852177331881748,-0.2764401081965415
-3.296446396884387,0.7888911405686125,0.7171529483163485,1.559373602898264,1.2392268497029773,-0.3851957379260391
-7.209960176789442,3.010973707876876,0.36680457487614626,3.0267308689502634,-0.8709068449883444,1.551396053853054
2.992691721811797,3.0644898490460584,1.816050274077734,2.086336423198671,0.20167051901054345,1.8171687126751126
4.952043899876763,1.3003209178354584,0.2458175282829007,1.8955733683535816,0.9057710179860194,-0.4674622778655255
-4.252633701521914,2.1765103771633583,0.34232094079025055,0.7181581236011209,-1.0702016055626238,-1.2877654847182276
11.48415565651338,1.7032808420909864,0.15695757756095746,0.42559917433034133,1.2879683189735656,-0.24083000793720588
-1.7137779505322597,-0.16668400502249148,-0.16236826169289426,-0.8688246406373265,-1.352960153817482,1.123723850936428
1.3889553889089339,-0.71593435478544,-0.7735696060743456,-0.37676323096321296,0.22951771790154182,0.851421514240824
-0.04947431604322583,0.3156333651419855,0.3179627466163418,1.0426794233461034,-0.3530897855284265,1.1708499931515035
-0.4224997198321474,1.5873559391261156,0.15665129378657777,1.9204250363429507,0.9385790984402436,-0.4819384858196104
2.810601485107444,-0.4925561861815173,-0.8159076704988613,-0.0787529362753735,0.2586046962870635,0.5637222124778571
1.5283662061919774,-0.8695746880735208,-0.8004991248016025,-1.2254420473633925,0.05224609515572043,-0.8738543912541097
-4.1220148812079,-0.9666148133813826,-1.5998670463942875,-0.18647827987781077,0.3597151992851314,-0.4770432684788424
-1.4584681231349292,-0.24692212329252983,-0.48970357679511733,-0.4416482459445523,-1.1412757157679034,0.3904662963381994
2.104394559823556,-0.34600559476287795,-0.4560975452593494,1.509277815232668,0.2414229229225764,0.1443338536002663
-5.848398721793224,-0.17482621947344246,0.5556069637891365,0.10320095367109045,-0.9221690725447063,-0.039501949585115645
3.837920579927265,1.1241084258687697,0.6028713049350517,1.7032753158415237,0.5435856927851848,-0.837826111021581
-1.3047437863398939,-0.28906672586036875,0.5742114570687434,-0.2187458445005781,-0.3514059196075928,-0.15412085783166818
-1.2199245881917862,-0.78191759741701,-0.050290925339239956,-0.5058417422733745,0.009867670844979637,0.06167500679853044
1.8788271266935426,0.23787261116301606,-0.6985141271595423,1.3619097882043025,-1.1482081190452578,-0.5457364866880925
-2.4250443644109625,-1.0614706633666682,0.8137155054973688,-0.9025968610721673,0.5481168207933806,0.1562202034598169
-0.9561417085646413,0.5784554816121764,0.9399556973031271,1.5564790336926186,-0.33734121984880405,0.7532202241427022
1.1966589646390684,-0.10534417816314157,-0.05016522543853452,0.522913592481588,0.5063003235630781,0.6946702628388457
0.31631859002484675,0.26925009488299,0.7190596172819688,0.3877797136492671,0.8007937784754886,-0.3475264422535882
-2.080916161438771,0.3653472162315726,-0.9631951177525737,0.3207536612739478,0.2759959051679042,0.09406303704612351
0.2718747789652416,-0.8103600220082814,-0.1797579190763139,-0.9137093449202076,1.2518106250533285,0.40073242439705936
-3.4156606221132337,0.6961961367968674,-1.1187155706731728,-0.15483588691167244,-1.077307859370429,0.5255292698648729
1.3986381352196235,1.290415190880701,0.229404635018172,1.080338362914293,-0.5078569535383739,-0.19310631104153153
1.7699513478695434,0.06382345994079164,-0.042962940345268485,-0.516531294227437,-0.35251280791124184,-0.22682140268977624
-0.0063278847643821745,0.756075286304648,-0.7178964435075441,0.22084244435497657,-0.616879987694474,-0.0322501895627787
2.5809437682333223,0.11107256782460131,0.2974810788341762,0.8232267296896981,-0.3220055532206487,-0.8418013434784877
1.501679552547794,1.3871745421686756,-0.44294648016218574,0.10066970975051923,-0.2940394805130227,-0.8054145889359479
-0.8937541397465439,-1.1352278999027607,0.039642738972088025,0.41540194641907996,-0.2514907466477492,-0.5405752827522063
-0.682660311993295,-1.0391501279506241,-0.35469477735517924,-0.5446860738469388,0.03946134671039103,0.48316851891678536
2.7322289463423766,0.22397159114906356,0.4576945709994201,0.6916930932943204,-0.9655675874354186,0.20511826428036256
-1.2228793368040578,0.13123339622354274,0.6122422444677584,0.4489860720998333,-0.3344106148571677,0.014732504703988042
2.4216498913482862,-0.8660437581252913,0.5728763032387254,0.906643298384384,0.4162592386880811,-0.4448502184091671
-1.8201347853996985,0.00586190970231687,-0.05660001497656714,-0.4462325001853277,0.02524738790547687,-0.2618987338575268
-1.0725579539951235,0.023270250057827818,0.19015828840360904,-0.03199026125011464,-0.13263403677662639,0.04671160680958214
-0.8763918730973644,-0.8074634668006966,0.34342716826304415,0.42633587655300964,0.5793201350004967,1.270975208824043
-2.9274941380002706,-0.15275878364038642,-0.3171472039425324,-0.46759985765273004,-0.5618674984355057,-0.35373830564555236
-0.5993593768467018,-0.44030712399488303,0.17472330643146888,0.3825876316225846,0.06472818161755067,1.2298703246410208
0.8593350421375993,0.7543067240081087,0.41024776996870127,0.22796931806396292,-0.2872902792717294,-0.4594821545790476
-1.3539159013675504,1.2790699233868323,0.24086809048735627,0.16458364843962403,0.24458691344156147,-0.3772347460204061
-2.1455441396938797,0.2477706917604094,-0.34216355383041086,0.1803011476447366,-0.2585041433936032,0.36170719591930645
0.7397351551342193,-0.12402154468433475,0.5861320984961893,-0.26565530324550757,-0.5937782091174681,-0.31209564846394444
-1.2709586705768263,1.1296240015682497,-0.5953843323409811,0.4304664153439328,0.14390255800078885,0.657091269724575
2.057291604045983,0.4520621938047679,-0.40627267564565694,0.7781135626853918,0.49625661066470406,-0.3439553140967776
1.0159804693438375,0.13993883478309266,-0.08759274880904366,0.14720434859766995,0.07625618071935164,-0.1814660469000379
3.45285771967459,0.013907013124028533,0.6199260112269271,0.2255987436993777,-0.9375406776084232,-0.6370312121058894
