Gx,Gy,Gz,Ax,Ay,Az
-15.168312,2.4243580000000042,-5.558285000000003,-61.331999999999994,-663.0559999999999,3.392
-0.6107760796810304,17.63970117848056,0.8372289912687595,2.2295473352464246,-0.7714720572381003,-2.0353374404327393
-9.073196533208138,12.89522388833443,1.1552379143582743,0.0023408391922993257,-0.8513144469407603,0.1353307411909975
-10.091027614688118,7.604090339158428,6.502476345382012,-0.6523282228058759,-0.31628766015402143,-0.18516878979664594
-3.302759682367949,11.856185192439833,2.4484540243963395,-1.438599645448555,-0.7958659365982182,-1.0500808570200586
0.04171070286506029,13.369585299238157,-5.573054150959366,5.407405382873463,-0.4381608570574921,1.0121361280730756
15.444850616420753,76.08074498483386,-33.026842851188015,26.8419150307025,-3.846784360877805,-5.160143393375146
-5.4299050935305395,0.8438918316419495,9.632332777324905,-5.081142092518944,-1.111660879999176,-2.1748664888943274
-3.3473816785895387,-0.835770482496656,-1.4246234978949273,0.8688226948506581,-2.9294702478965218,1.0868883571335153
7.022719275798934,20.23343133287468,0.2747757422489483,0.12846656163487785,-1.895272675017349,1.1628038232144382
-7.190781461695556,9.441939247203369,-1.8389436872807323,2.3687855709004353,-1.4223469751635405,-1.374179365769287
20.786924129852963,1.0074060824660513,-6.205253495415684,-1.8699203989701951,11.149262221807994,-6.837123516803812
38.237792380874176,-26.548642472242918,-12.356698967697712,5.310581727174184,28.434631536026174,-36.98224558887017
-11.298022063561902,36.51144006441187,0.527890486348527,-0.4820193993438582,-4.5568475292549975,11.052809689948308
-3.269528363173,4.874231548252489,-2.09411695252343,2.120190210032134,-0.8469879778880058,-2.562228096906865
-18.004929669491965,11.260203769285177,-5.742879637292446,3.1037996837665283,-1.2375694890142293,-0.9173312062972134
3.0882407472740443,-9.976634104974552,1.708014873210999,-4.827597151690686,0.3319807012890341,0.8556336890040257
0.4938902851580018,-4.662332035420997,13.46840624065944,-4.3667534290355245,-2.3802722929305995,4.449604013411186
-2.1407082301120655,-45.949629928859814,53.36561435955762,-9.374012177324165,0.7747521325181496,2.240446455534628
8.105391198289766,23.776877300672247,-27.032241365368087,4.025253028159449,6.299952556318207,3.215783343249994
0.5944286376669996,-2.919968776769542,9.166373624523823,-0.778933337397835,0.4412607823671484,1.533327728110192
12.97932129042685,-2.713013095546361,1.9225200002121399,-0.28874019262534956,0.35965060239069263,1.647627769066949
5.007366285720261,-15.696236167747845,1.6293516936578878,0.535354114457532,-1.4937464426167484,4.643092974120832
-2.6734915669384804,-7.153555665990115,5.555460840976096,-0.5858012042608784,-9.681949670282544,17.277038426869673
4.619089789300356,-15.778454677461585,2.472352983454412,-4.3609791457640075,2.718735848442637,14.90206567008875
-4.911226751026499,-17.538737603301197,6.301526222082474,-4.119249802748908,-3.375473968815076,-4.988861937417733
16.211674102460243,-6.925867677646301,-2.822366299739934,-2.29574838134002,1.131221660628219,-1.2899225919380561
-2.5706035485413063,-3.7511306494256944,2.2160301331609205,-4.152647488210315,-1.8217037420589612,0.0934030848987033
-5.895796338408499,0.11927210058520377,-2.5194572435330205,4.50624024595282,3.7355028151979095,-4.695116405333533
-5.399728955276327,-30.477715806701877,-9.019697116280359,-6.649214803388857,3.504592035891177,-4.952022720119256
7.487889395351335,17.531789715451094,-18.774420046016402,13.505736284587762,-5.471373765017671,0.8851818351670133
-4.917327389150967,-11.757179951979774,14.868706480698668,-4.6128724232437825,-0.3852684660164841,1.9711844199532782
12.4842708289623,16.19926591889133,-2.3753796118720283,10.19583169676035,-1.873517306612606,2.669436874692027
-5.00486214394352,-10.168708451141075,-2.462002054930415,-4.875349030966453,0.8800014140124114,0.740366014723596
-0.534773101232648,3.7591785260623136,-2.079054096224953,5.242059352252419,-8.629071692559018,-9.390098453442992
-0.03812361208972703,-0.0040892357324828765,-7.884855734585021,5.095770423872468,-8.317720028754891,-19.68001908634453
-2.0342749321718965,8.998144267584747,-0.00027791344357652736,-1.6506787731053718,-11.34271665146152,-2.614664083969619
-10.099073784949276,-1.992741628497593,-1.2423266919546734,3.4064496010146277,12.286170499204914,-2.0402640242086028
-8.495864072913562,0.6476993311345387,2.14823119403532,2.6471070399353316,-2.9457649767105534,3.398847924745578
8.350401391467905,-1.0521057280607602,1.7389444629110034,0.591498344959849,-3.562719854616079,-1.0422433742899684
3.9344700005142212,4.125780515913705,4.1792446041832205,7.690628650118636,-2.45147244644446,6.568834927256101
-1.1482521540308097,7.6087079212315,10.730720703100468,19.704733415423785,-0.5816627045935332,4.286777886763092
-2.0772922262584705,3.1635168442276913,2.663809384488028,-4.5169803013698315,5.370232116278475,-1.7561701599264303
5.8666854881622506,-0.5691672780185568,-9.616167487047132,-5.363001632589452,-1.3042093485324275,-1.7762997577901192
-9.05204817519478,-13.69225595133594,1.659411168016244,-10.364154869073145,2.4623297231024317,-0.276424904003092
7.631718366053135,14.486894977320423,3.2744014412249713,12.441304428905159,-1.844746688643649,-1.2865361168693472
-5.786676613518313,-0.4567546325092309,-3.2208483370237806,-0.20471199170002374,18.458404634379804,8.459446888030293
-9.663602988228801,-1.545739411367431,-7.170041433975156,0.43669295702964694,17.455309013768442,5.615053099991367
2.908781519384173,1.5864916602650294,1.8287931917612783,8.627620604575245,0.8420795585979601,-4.13173663940237
19.24827732359623,5.837354048425759,-1.0805078673780995,4.009355712095023,-18.15860039301944,8.41021207415142
-2.150113411255246,6.151186056001404,-5.609953809839417,1.8617524808640715,11.493063572868786,-6.637488490700457
-8.606964326509756,-3.1366948470462095,-2.6254181747129746,4.892051443083896,7.858864304118432,2.2610211667503073
8.106375423744575,-8.46144572489505,-2.986443908071382,-19.551067191034683,-6.153320553734174,-7.155443367420641
4.666167793811287,-9.913907028219556,-7.013428653192343,-19.79576232555292,0.3703078399792714,0.3167505998378426
-7.048684883444867,-2.324348811502982,6.4028470033031,2.3987563634740705,3.051961279939486,-1.5962741423683817
-8.562818203246149,0.7479782950625166,1.457324630476168,5.501008462334458,7.831800932790339,-0.6151125081421084
9.670584778194447,-2.6171665403778306,2.154780121349412,-3.185997983820395,-3.5406340747346765,1.4745695856565666
-1.2877346681461763,-9.706640295200023,-2.16072072718681,-11.012090731445763,-5.255521711597961,-0.6325205953984768
14.633007105672208,4.085376475407508,8.20739618066588,9.1945266398758,-22.455051090114683,0.1756271851274387
7.160479668889161,3.9996493782678124,3.4155771900083107,1.5250209377223638,-15.09120039602156,2.86328258955499
-3.209547386454058,-5.107826252614635,-6.785341930969496,-11.25695917581594,5.264003790377794,-1.2894042372285233
-11.00792271163585,-6.39754939234793,6.171014657922546,-4.427436864730023,3.497305584565154,-6.146800491368079
-2.1407363600769447,-8.751518107745401,5.0589000594099724,-1.9536070867089514,-6.253767521894327,4.736118774972854
1.2436585811418037,7.526699347956713,-2.1843839390981383,2.1763643287307946,-9.66529789860173,-0.45193678566991197
-5.999968047384196,1.0798285531085483,1.1505716804631154,7.719397197277491,11.364666714172014,1.2964789236193681
-0.5849446895003064,0.7717793223645855,-0.10089268135350293,4.804600566755535,-0.07782827018322935,-0.9305156820230127
-0.16729806608409215,-5.364302871541359,1.1492471437727358,-2.1214746105894764,-3.200074811514973,1.7594592804848197
2.1330016682323745,6.538142796417194,-3.319918158694951,4.040364037576611,-5.78354450099768,-0.8943141262032832
-7.636426350513558,-0.14612600086967215,-2.497640953151207,-0.004568733240187452,8.427150277763356,0.2829974148735329
0.6255875116572365,2.286280496594884,3.855855716760581,2.872202056141511,5.121538182125907,-0.9980109660802977
-5.550953550355159,-2.8212412612642925,-2.8240553899460092,-5.40348529088205,16.73990095323652,-2.9541653875476346
-2.4518871996967433,3.0723309110205266,-2.4255334869311516,4.581132868540842,5.644125892228116,-1.0099101749685444
-2.210941398309184,3.958288677200268,3.990107943963981,6.896964617937892,-1.8603344718687809,3.1235157086783456
1.1326163546554617,1.694354101764626,-3.9172818330446417,0.01241481141711365,5.458172183640962,-0.8901104660269488
4.680910478816312,6.098363638866527,1.9961610762188582,1.1262263072557843,0.27968719607089265,0.7969152089554743
-8.053715735133757,-4.2718246192651,2.7798053989083087,-3.8691860017838398,8.503748230778106,-0.4695239576588276
5.929975223602054,6.850676744952551,-4.015598918486539,0.24696326312580785,-11.356639276180044,2.9017128392906413
-0.06784046644751462,2.8769489067350293,-0.34539751517434947,0.07350700751749215,5.694188581657238,1.229750587116319
1.6606198867885533,2.3704296929504483,-3.9527216878810387,-1.1355263168544116,3.568191360494418,-0.7187495386601812
-0.9927408432181375,-3.095018011572776,2.9827622580743616,-3.612683406512613,-0.9689891989107398,2.8017427621775557
-1.0638531522405061,0.19935400299188855,1.2090157008665607,1.235585423337985,-2.055965473581313,1.5487969072423233
-0.9249834420818752,2.2948071299296684,0.3449825593180063,-0.2479371174512851,-2.8971987890114077,-0.11965057210188007
1.2838548478359226,1.6302153027070216,-2.98280471373106,1.2964029928478922,-5.2404129902940415,-1.2834377066469616
4.10886778803781,-2.6510050608186653,-0.2565234983421001,-3.6522418377915393,-1.065161606656684,-1.9885478754463797
3.091105478899905,-3.4802401625881108,-0.5489451002679573,-1.3344270543115944,-0.717004673474718,0.31191522470518185
-5.087472983347137,-2.8946615451172093,1.7821412097537426,-0.59756557181044,0.9492860075135624,-1.4198712383824086
2.379000746329338,-1.7999329756572942,0.41252290483656606,0.6413114020809301,-1.1511471312162025,-0.5369067648127689
4.305916471512999,-1.0316474269921132,0.8335499677553436,-1.3791304627718661,-3.7646651832606777,0.6939231568929247
2.0338789380286624,-4.710424914045891,0.6382973110216861,-2.6747236851449667,5.068272776251669,-2.0059496761868045
-2.110944644060831,-1.5496542717810962,-0.31427856313739244,0.8036793757441095,-3.1879767058861446,-1.1005785285630303
-4.113564857952882,-0.4524602645486985,3.058247372663911,0.6859642775109134,-3.7319469965754375,1.4689229184903407
1.2411271686530956,-0.8131869057396272,-0.3070829807648341,-0.7863024552720075,3.4069460496722757,-0.42872701843970373
1.5267169251741606,-0.5922275545763528,-0.07009775896498296,-1.9448652126172945,-1.6497088885554705,0.9537024900203817
-2.9375036687130285,-5.945921672216592,0.346205836660262,-2.7361141562815696,4.900291872010664,1.673648767693171
-9.269338644750245,1.7336823111879154,2.8366156944796437,1.1899470816537265,6.023942086506115,1.225945356806786
-0.5409005314592621,1.5077185041007184,-0.887212007649808,0.7847271481747276,-0.9769545171841866,0.8420841605290544
-0.09762732580587286,1.4649320722601367,-1.273313381413864,-1.931712292098564,1.9672797551923236,-0.046742180270028875
-2.635525117250434,-3.805812654455946,3.582010352016618,-1.004767939737139,-0.2903363397883666,1.5221169282262272
-0.30066848943369484,0.2869362243784611,2.080926323388143,1.0534338475763587,1.0393041975706274,-1.2269926899777606
-3.2078080730921767,1.1892339607002589,1.243183399564262,0.5912371856928889,2.002386144471091,1.3403274207683946
-0.8151508216238393,0.7145538013863427,-0.0118956244814713,0.4623604810166883,2.0345746928558044,-1.7230205737827964
4.441510618168175,0.21300807872144553,-1.2118493297400157,-1.408021508384719,0.21414371237929197,1.757619585259516
3.6595188913931587,-1.447401392855594,-0.8770331934775176,0.5623283454859735,1.567639355062509,-1.4846199849846409
-2.808025225755522,1.7995783985042844,0.7709233032626914,0.6177748444430557,1.5090396516466755,-0.23798789626652578
0.05404205261942968,-0.18950433118956253,-0.6869754837227071,1.479974424656115,1.958605277369737,-1.385577784137991
6.466833294491687,5.238823880789139,-0.09069254366108692,1.3457129513478678,-4.203503111102382,0.18428050569514903
2.790136631220267,-5.241573748371753,0.49248888512874844,-3.6001128852247724,0.45344125892557907,0.040043344818368506
-0.28526559443828703,0.27336782597781195,0.6538939331005408,1.000281800474207,1.237495211976319,0.6136434144818607
-0.3684611472210602,-1.4748387145914892,0.15061663145199383,0.14496816195843898,-1.1148434904229787,-0.1823249340344988
1.9086323283167348,4.466055963784062,-1.0966432242275626,0.617451555571579,0.7928207725887656,0.3586384095724441
-0.30830086102259446,-2.339603599992461,-0.9181984857453842,-0.6099502124443277,-2.4604338993977866,0.3405880096461246
0.5598489017930399,-1.8877494317811925,0.6909939513426437,0.4629670196494594,-0.88369916591253,0.9556621903249212
-0.6992949725223906,-0.33477403521949944,0.9665568921500755,-0.49616538539157196,-0.6136586196634105,0.09444332605030745
-1.6669086765351846,1.7552065909455825,-1.3688914891002946,-0.37680031658216484,1.5759137261186509,-0.7878259081143426
-0.900311198305766,1.5321760110979927,0.4971570554069679,-0.814657945649486,-1.3932876211767335,0.7009723286763802
-0.19676313465484493,-1.9870812727381417,-0.09029340356481635,-0.23968953475854288,-1.8003216106454683,1.0923814014105697
0.3281859035480589,-0.7970817657566716,-1.087380218160606,-1.1747369378433627,0.08351157076031432,0.7851149922778606
-6.007613870169882,-4.940490457124209,1.7851214285113242,-0.3780429960121207,2.3845855760629635,0.48388165933854815
-2.4486909058480975,3.1318312479875554,1.3196133809418298,1.6226850032061813,1.8412276509314085,0.04908114133851442
-1.1793911767876366,-0.2187392394198565,-0.7549993693415905,-0.2361045813959859,-0.31625881546337997,0.7209396307583575
-0.10536891496685757,0.9555965732023923,-0.777598393785644,0.1430291329679042,0.8595920127041283,0.5472939945703462
1.5532021018975886,-3.860191586378547,0.7475929162343045,-0.7584463195047498,0.04283095272353282,-1.4691043196565856
-0.09240643992883421,2.184431157715785,1.1050670483634564,-0.5472616669092442,2.304282239781353,0.044520777371048044
2.1181871764998252,1.1357110875764709,-1.7796854250081777,0.3822992253165313,0.6414566963813986,-1.229904590581296
1.1194226946543215,-1.020528373608983,0.7115308897446077,-0.09397177049868323,-0.17422146268228794,0.5674116819992463
0.5243868534472067,-2.0004354995809397,0.8542294413626826,0.29668944707916295,-1.0835118217445023,-0.17818751055144977
0.6161727202272435,-1.7007193902973359,-0.6495285612810457,-0.69578815114019,1.3927431138580797,0.14478104852552098
0.9667052228050947,1.3444416593294732,-0.1736547782413163,0.06267902531952886,1.2480876727686294,-0.625312297559744
-2.09397970245283,0.8721192316216578,0.4077815065503442,0.6188080510906653,0.4057461635678473,0.4049155288900605
4.529829303559599,0.09711774958406186,-0.9633767958502469,0.08630289726123248,-1.8845714704032603,0.3801513134782033
0.1767233050531663,-4.121723427046447,-0.2427679334876673,-1.5835608599200457,-0.5795256243520092,-0.48200088336071656
0.7096044386226389,-1.2639130043999383,0.6280698816271797,-0.5888081988337918,0.02307281826417018,-0.9527972468493083
-1.983914358116117,-0.23741410584942557,0.9808351662325141,0.25360268187297136,0.3075493310839178,0.9421073894165871
-2.1557868300110874,1.4437557233074472,-0.44079556949592,0.42170236795927923,0.07072773889525952,1.110901552813023
0.6596179103479274,-1.7693723332014306,-0.6817470807176323,-0.8328755976434032,-0.7263096672329772,0.5947042116738979
-0.92434705765553,-3.3278929506768202,1.8154052837959598,-1.4515010897953111,-0.35714005379215596,0.3886611534336506
2.0522244103524185,1.378434098785542,0.14671213058412733,0.01863832572847813,-0.9384034948878041,-0.7231697481278104
-0.9235224670564035,0.3603530879289879,-0.03128590568271728,0.17577751101183045,0.8160508518247028,0.09953441154957868
0.5840617723767187,0.7687217968852248,1.1422146843144152,0.3750371086895295,-0.557017951098143,-0.3481596244491211
-0.36018469669467246,-1.25659628621756,-0.23567175155650255,-0.44847609971003677,-0.6215847825643928,-0.042618289599352197
-0.8319792249168138,-0.5232876548319355,0.6377203860690028,-0.6756973137206796,0.25554203054539576,0.13896754779113646
-2.552129560610158,0.4680650939689393,-0.8354618448644692,-0.034944488750355863,2.602807175820062,-0.02446354594392741
-1.62527294877973,0.7192861626605521,0.7036693346021048,0.5560201569322691,0.9040823799935174,1.2018694067649485
1.6355654382366158,-1.4204728066507215,0.7795321695460149,-0.719694759557296,0.05259455553886766,-0.3513644217199483
1.386663017165061,-1.3512746140163383,0.16868786231527966,-0.3747121841329448,-0.6439704123201133,-1.2108079914938514
-0.5832896600523325,0.5499169971276004,0.7200519595340631,-0.11490111199849176,0.8493632014979596,0.4616048107553531
-1.7380574395973956,1.6815425758423959,0.2210654368969608,1.4134515237307248,0.846051498373329,-0.14450520438587158
-1.1686533188979433,1.2259269137703475,-1.5582952418182936,0.6843793607684211,0.7931070602379299,-0.04533866185891436
-2.5584712519972856,-2.2724530473498854,0.26628439572986384,-0.5308205977229972,1.6853387937037263,-0.7594872032216432
-0.6684874613585488,-1.493501435323559,-0.16477866832769494,-0.422178733945958,0.2970955950462112,0.3641770786535704
0.01446404850691374,0.11001988559609724,-0.7872151304272431,-0.1149358798676454,0.7091509994031997,0.9089547971297707
-0.6766706872070932,0.5512331845628325,0.8003281798234659,0.42759746593150105,0.34443202583942323,-0.05407171839058553
0.45039701117076486,-0.3657277005010223,-0.21582919690742722,0.4344818618353851,0.4365447464496097,-0.5554164103766263
-0.15792727983230415,-0.2774751332894351,0.5100826165756165,-0.4406951097177212,-1.057337510385638,0.5714736743141414
2.1687853080097663,1.7498420564329153,-1.5109212650355133,-0.027880325297937353,-0.28911935091636465,0.05070798801590064
-1.0093173696104163,0.8856130205430327,-0.10037549871239154,-0.1580115225060691,0.9379005279242798,0.4190395126453869
-1.6948569408754686,-1.3640887308784209,-0.42869983589253263,-0.42612049118750567,1.5214219264855458,-0.23770349715156586
2.12639660306039,-1.1547406206969115,0.34307830918376947,-0.8095071409822838,-0.8902383893395658,-0.13380948193296316
0.2432499617193311,-1.389894578223652,0.18967408359108162,-1.187308433546407,0.04902557880306824,0.3249606406041703
-0.6722128048685186,0.32571798160887644,0.03645104496094065,0.4410922993698294,0.012374292694785294,0.7755094442854947
0.14588873110315442,0.6360882259689784,-0.37625251176512003,0.525119792150627,-0.26280153328309086,0.44517159034179765
1.7301449247864173,-0.20745702233870938,-0.8478158717607702,-1.0792833401105897,-0.44020391734973213,-0.8009471223802862
0.6735134473270684,-0.36860813427373074,0.41411343994914884,-0.2593092052228225,-0.3760737416573625,-0.4486121985051603
0.2929121356683187,0.23636041263074753,-0.17371820017902528,-0.5547305494374503,-0.4125744819328352,0.7379913254661812
0.04724762182752493,-0.4170566766501641,0.7313267388768413,-1.221305073678318,-0.07188895338313012,0.211498866947157
