Gx,Gy,Gz,Ax,Ay,Az
-5.126798000000001,25.632465000000003,-0.3513680000000018,-18.652,-797.3540000000002,-39.876000000000005
-3.221313808070752,30.1426433861324,1.5378096090757976,2.7783714830027897,-0.0721530000690993,-0.6293187663528501
-3.8981514853463275,17.18267067917387,-3.613328265823808,0.9619267191415615,-0.39883858630382374,2.8226894320837523
12.244071563377542,28.04817901350823,2.3744268250443588,-1.03565095122232,0.6574374468120185,0.8948345866823798
10.372559696295387,15.577409704240251,12.002245480752936,4.227553016165321,-0.1466202877912198,6.994055012580911
13.190424104194527,25.97337976477779,7.063622105822619,1.8219900347345117,-1.620811868769913,1.141187410532251
-0.2934279715917745,-16.891779726835303,18.105855535965432,-0.35618683778850513,0.0600365162438235,2.898657087256963
23.044148959722406,51.94287494488424,-21.573519738804485,3.7200793210420255,-0.5512138653519486,3.1976583185239043
-1.4583179439068124,4.740796077239016,-2.415372021379317,-0.03902922259033925,-1.7056564912770034,-3.430375146586065
0.6781400375331277,41.58665875282718,-12.628235743802597,0.24084680515099155,1.3961986484681501,-1.6041218651850762
3.1282007472063134,10.97659934795542,0.9201012985443463,-0.12858664474306947,4.627402783588116,-1.754691251660715
5.241738297981818,13.875303316446686,-12.93764114888339,-1.24353091815397,2.8168537378407095,-4.552216789769523
17.488111285444113,26.83819508244592,-9.111096454267223,2.1593546602656066,9.246010835413351,-1.5213993031930875
30.84606432504834,-2.3220649560023148,-17.948389898865425,-2.8531504651914217,25.542263972328815,20.617596858754336
-14.600048323730485,2.2655989729158943,-6.8093208548136985,1.498312923742946,-1.6179045948133504,-15.313618977848156
-6.2175730050356535,-6.848636517470789,-15.538338904595946,-0.12870659198814793,1.9520634776782617,-5.341693066049862
-9.237149952744705,3.5523034888561384,-13.838077637444966,-0.36654459979944676,1.5235699183888065,-5.560632770043634
10.00623968020357,-7.878946047225973,-7.27898573536536,-0.59369162128608,-4.664009842357103,1.335444623873478
4.297676360160093,1.0391689018124461,-1.6619290696439974,2.0280988186431994,0.7146049343287395,-0.8253551086817057
1.809985776791681,-4.746528038785701,9.1266478559176,2.53847904394205,-2.068434772391214,1.301913181189207
3.7771548124617085,36.155835429352045,16.373595356732235,4.128453078583865,-5.361056407162233,-5.146545777005312
2.8993193556951375,-15.669857997093445,26.796851335112105,-5.266936786031629,-5.235385363572633,1.7388116982296935
6.921944668523109,-5.081172340119254,21.684283686976876,2.187239370819923,-1.8571727458866745,0.59854258696541
-3.7277995046719377,-2.368547201151616,16.76317612466392,-3.1555748182224344,-1.1962589509267183,-0.45403015899421206
14.238394250095745,-9.470283814157385,4.387486606486929,-3.9263825086673423,-7.537803411766242,4.5723998371858965
5.125567533222101,0.042931985894990365,1.4931109704045151,-1.2048279571499863,-11.382373345639339,-5.987049421016302
-20.814664180933605,4.791696228881088,4.18927423704708,5.595869580183001,-3.632093226693076,-17.59340186669514
36.22306836225708,-0.7380123382998169,9.076308710959607,-7.533481203301233,-2.1464143044549533,19.020091065994684
-0.4653150946129643,0.6632724714059641,3.169430582740691,3.512058333743407,0.8337520656667987,4.741968908722231
5.313410519723464,4.9654785082849795,-0.9088185092419399,-0.24524970326059004,0.4760568638189217,8.223388010373338
-11.806824176016157,-2.606711109795584,1.8211905877363916,3.9578974099796196,7.499572912566533,-2.887985123905472
-4.492759482612386,7.287296188230829,-7.494092228958574,1.7343598944527292,0.8248275767336224,-0.23939615283223997
-13.025343039037043,-6.994918606282552,-9.210402378854935,-5.5709401326584524,-0.0976383827718279,-3.347507316342744
3.2261656643213303,-6.0774581444292615,7.798432764237832,-12.07287824325302,8.975530526024492,1.896523194444251
-18.765954350904952,7.739583735576775,-7.447092622224288,9.138156826590365,-1.9848443566756224,-7.347773550476768
-15.11663293445683,-6.730285396865465,1.7643724620486996,3.3554418824720473,-0.007625765755733482,0.5446895526091033
-13.214446420583018,-28.555248017492247,-12.078348534853355,-4.915459454461771,4.112368105904985,2.240094724157617
-5.129837045019923,0.4530097321152593,-3.6845604775256677,2.354179950422261,7.681206235779478,-2.1261091001212935
8.627908338374143,6.134932383066484,0.9946575720788609,-0.14499682956500193,1.3736311158468681,4.5491002225538875
-0.7348316512673942,10.665535701336074,3.340666431737162,-2.5580113924803016,0.2570544682093174,7.18456374873292
-3.960060275655526,-13.06987725739367,-4.4875206336683,-7.757050519970449,6.589647564546064,-5.521064058162725
-2.9669902889854143,17.520311182373185,1.5312067425361102,6.636245854422228,-6.372630547878115,-5.589813324046393
4.494873932256098,2.982259937668796,2.511859882366994,0.8999131845173156,-4.659559710691335,-3.818502202148889
-0.8587201320023787,-14.080028294124574,2.431764644112575,-0.3015450111316538,-0.8810552089271263,6.942938646536618
-0.5523373554218569,-13.95149049731213,0.7792650033895343,12.507626856439636,-0.7272139995442191,2.8780185357481773
2.4682346325445854,-20.987647923723397,3.38766337799882,-2.3355798385577833,-5.32744869716959,-0.04059857510417997
1.0627792901782325,-1.8443807720119412,3.1258493503751272,-3.563842355907803,-7.698537378234281,-1.4676487040509243
16.564667200229714,-4.211298174216325,-4.325932374549931,-9.464625100887513,-4.134371277778298,7.821781799272918
7.734492044065514,16.3274381829369,2.827108438436376,10.775241716469536,-4.718772442612039,2.041596022817652
4.069787850973006,-2.8592605942463836,2.504406786186399,13.997670789915961,-7.342204601139246,-1.3310289889394535
-0.12252078091290275,-4.694891577731282,-3.949795174944663,-4.4473005228321725,-6.84558467462706,0.47791224647888475
-12.326866184692742,-8.968584291787959,-0.8987885423112569,-2.406190788006583,10.505817824646778,-3.878420954678344
-10.06297662198405,-7.033846681090234,-0.6271846626182994,-3.3262568108787423,4.8931965390873,-3.3710077381929766
-12.371182520669377,2.1266003516832,2.618555408766531,0.8879504552088001,-8.836561301839176,-1.4680499939735303
19.556030980640806,0.9942240031423244,6.098921156299682,-11.622479181919807,0.013583583674580568,6.026974603313766
-10.118567129449941,4.851485777816883,0.06643396139581448,-5.992641247429807,0.5807988762155958,-1.5199607567999225
-7.7721839609878485,15.031879097021202,3.0751594106123696,11.549858151119405,9.4609240661648,-4.811996697912088
-6.650660987002121,29.04050634481733,0.7094270187798788,8.84324393843787,9.431741868549345,-4.253108880177168
-4.575205304798333,0.7334633216900599,-0.3674410927509921,0.36118493299018195,5.043885673538249,-0.6612959090123667
-8.583573661061852,-14.463412876242977,-5.140617647892817,-12.545042243150085,3.9943284813356676,-1.968354692294566
-16.97894620484246,3.644388713254724,0.490145504741482,6.452483391016004,10.85413602182687,-6.201616586074306
3.3631997550243757,2.6454006493190185,-1.5443300705807985,-12.430463745675567,1.2642640473311881,-0.7665226329671877
3.2336963472539964,13.980371825600901,3.89699996794884,1.862187811809128,2.704377245955531,3.0885686826416907
1.8185381674144523,-8.141379572471383,1.229733820503613,-5.913461084533978,-0.26503990681178585,0.3398968470178918
5.151618108919095,-5.940389456699486,-1.3613136293106276,5.072617373718228,-14.784284858222767,2.817958028902214
2.011551782548512,-4.204060529141907,2.0995098394610956,5.910237361183943,-3.025637402840679,0.5430993885111188
9.752808132864237,1.3882492554473629,0.887741340091055,3.372440958026255,-2.110151382803387,3.979176202609559
-7.3541100060985425,-8.917039842986888,-7.056399518503534,-3.9446692538853334,3.374620816055244,-4.524768132350458
9.851544836958356,-7.2930721403315015,-2.6544286715638195,1.340874117138523,-9.64189695791551,3.9457413940357897
1.5819303631190147,-5.194924400071418,-1.8762956366838763,-6.143471343552353,-11.340285620012658,4.263486084643808
12.17485251386776,-12.77044678155044,1.5196026507144689,-12.503338811010254,-9.511838679145292,6.725716851988723
10.173031109479098,3.5275535662993915,-2.0915271028307045,12.951157186527848,-4.868680550706607,1.9085914279646283
7.322980913611638,-7.504459779999504,2.8647712737277065,2.3983681743576053,-0.8293463449508645,1.1825478616811436
-2.854468160329139,-3.442047804150176,5.657095295237941,-4.202677458987543,2.9750500408686102,2.161338481287837
-10.053211072239106,-6.807583122175057,-4.151265757935324,-4.170627185036108,0.5269993027017934,-1.502105379709234
-10.668454864542149,-0.3669869955824221,-3.4878436770790895,-8.30673606147306,7.71279156705645,-3.743441028336605
2.293896792363167,1.5013084287394416,-1.4598761263271969,9.607593066776372,4.850556929787299,-0.7886366417177615
0.008520797222502208,8.51517591472481,-1.2886563665580153,9.818892870391656,2.106231606111087,1.2433411265999905
2.7740754069630387,4.829697096985193,-0.12674682373941937,-0.5609969769634792,1.4501906977028156,-1.0336566456089042
-11.670328894299812,2.5928804349654193,1.875245488722651,1.1829364017426398,11.863477141363846,-5.647150388682539
1.1802071014792928,-2.416042687286875,4.999697967502184,6.241873964665012,-0.2950188987902136,1.0343211378793988
4.405376486146771,1.9580457720450237,2.6570488053480856,1.4204079745920106,3.7301100405653504,-2.777846011463646
-4.088267327072212,-0.46349969772351607,0.7598872778558574,1.643936919208913,-2.348358414510882,-0.1297748614124527
-8.377869567414328,-0.8165394679874929,0.14554972809822436,1.4202442628455105,7.7178985204539305,-5.493663411540345
-1.606651332896936,2.065707012915408,-0.08558990029194802,-2.036246279403988,1.3436119803139839,-0.4944384545239542
1.6386235126283193,-1.199253502575639,-0.47801590846739794,2.7682550038421967,-3.8591355773849267,2.5337577868142116
0.2732470329788228,-3.52036176140415,-2.0681660248600306,-4.35317268042976,-5.848777539742727,2.589310481445245
9.211055602983306,-1.6534335769381312,4.467166282516272,2.279035831158099,-1.3194759610064946,2.0611164823068453
-3.8084352922787597,-5.625631729136626,3.405351542155718,-5.344852967900922,0.6721484612119748,0.8175685577875855
1.6345856147601276,-0.44762276335133766,3.603191733925799,0.469555324744404,-1.0899954463300459,1.0287126659697758
-3.445174631163355,-3.326307781078186,1.3638375361764132,-6.954902410576835,2.8965685148798364,-2.2019256089032417
-3.7839497965874065,-4.624210513849647,3.0962328732470508,-1.888988968427734,0.7990031857900517,2.300763239264824
3.739282605712324,-3.3294109266789116,-1.1729633641572335,0.2910346486038611,-5.242373355225672,2.422072713088809
0.6505581064479742,0.7149139628907681,-1.8188779936420154,2.3880029472613993,-4.614286572145218,1.3314556765701564
0.6780267087641103,-0.41863943007718807,1.5258730591939353,-0.8983578133207482,1.2937275208842758,0.1853615022407321
0.9233640689518755,-1.7292179580554894,0.8115957412272252,0.09282950154236635,1.110343406443517,-2.140412772038873
-2.101790784970819,-0.594984330272073,-0.14295142592278143,0.042402846745543066,3.3078294709920266,0.21515485742951013
-4.97843626918383,-3.122010733407568,3.4301303422964065,-1.5775474795188305,1.2093580970506292,-2.112088621504653
-3.838790019219431,0.7834645352579896,-1.00197905362056,-0.09473118826848104,1.7893855659436149,-1.1001450720920367
-2.789514024112484,-1.3267397388065163,0.34986741575258806,1.1696162180401943,0.322495357157325,-2.2561348520151707
-0.8752483177673669,-0.07671055450570208,-0.6829429425919726,1.8297704480188854,0.9714476167660901,-0.522613562274985
1.9386250472227395,-1.029565281956895,-1.19094245488076,2.3333385632451664,-2.257938404436966,2.0210756286805633
0.13995514262856013,-1.1701394225065078,-1.0938875612626826,-2.2078513686950556,2.2933649397695315,-0.5794793841048604
0.27158277439917944,-1.8462819071095142,-0.32036822562597944,0.4114616156762828,-0.41483878162085874,0.752542738642209
-2.2501634794165817,-0.4702939098774088,-0.7893284731113113,0.3258780254198448,0.15437550774309683,-0.601656761920535
2.6526074208107637,-1.3462339878786644,0.7834167736448046,-1.169444453878698,-0.48873551790948966,-0.30618372715935216
-0.4151751117229111,-1.5850351440548816,-0.9324405981659081,-0.9873271348929433,2.26112289838038,-0.6265539066141946
-2.1849628243812678,-2.959033354564899,-0.49911507138455913,-0.4031354848557822,0.4640203313832278,0.6992813894882483
1.9478522054701999,-0.028081339914434622,-1.9482979929694353,2.2448686711404298,0.09230627312874184,1.492366485327865
-0.7866603268771528,-2.0925754285263816,1.0737417708892767,-0.35489200379406993,-1.8483351411918791,2.6542558924370843
4.064035082549235,-0.6219761714385467,-0.5025366552501945,0.19012414242081688,-2.989174218014981,1.7952425938017385
-0.002296058956603897,-1.179851478373058,0.559165433225087,1.2828224233463235,-1.203623491967265,-0.5437804898042604
-0.9469415798348768,-1.6332380474690733,0.08055431290068205,-0.4412214865714851,1.2447443759864558,-0.15111572088968178
-4.364670720353396,-2.2187323548985485,0.9626507467893128,-0.8004660990786303,2.079191415885794,-1.3171963893894352
-0.5332618834605709,-0.3881492870232554,0.41944203661145946,0.24448080443463488,0.8180682767221781,-1.4527659102261472
2.118521908699999,-1.4388776376745458,1.2084790059237094,0.06229217607443122,-2.0139668693506225,2.0185629230107143
0.7378612705094975,-0.4022691952706332,-0.6649134388909399,0.9031907451355548,-1.2791489932742832,0.8417310073093076
-0.05765562724701839,0.8605105801506002,-1.9598226266054108,0.033439701536877475,-0.2588483379530393,0.7213475582940779
-1.299499672165776,-0.1708478862349554,1.5847627038552745,-0.08507969081500869,-0.9662191441200743,-0.03012352395636797
1.9758431006995152,-0.708162787576956,1.4703447645280725,0.08847717018522716,-1.0806884072857454,0.14386783068489062
-0.12607600527367646,-1.4802736761632658,-0.8184305063773749,-0.7751727203432397,-1.368265032147769,1.0550918154202047
-3.5698590384371713,-1.0583623434649265,0.041880029249379724,-0.9879264137398113,2.4177962605254204,-0.5691308715757792
-1.0234408458727375,-0.7838271849840397,-0.7439266514296321,-0.0335552670687469,1.4556567760699453,-2.0191716563583033
2.43856855730584,-1.3428145855452565,1.16883463804388,-0.2843983359385296,1.3553372500598702,-0.5925743000379986
0.9109833703248973,-0.6544338063731638,0.9823377863069978,0.5013461718976056,-1.2454303947192997,1.7410127834559284
-0.40956394866626655,-1.3889729387527845,-0.5529028953639853,0.33771275569110637,-0.9411939810831833,1.1836038929890775
-0.33285410660443393,-1.5551647670897362,0.39343587104411437,0.18626525894315205,-1.2240665397009587,0.5654374878189857
-0.9998487968701681,-1.6444153051033128,0.1398052944816511,-0.20320887618830163,0.08872640912579666,-0.2551326011304744
-2.023078156224968,-0.9487101465012963,0.45457276357120896,0.2512374522530296,1.4463483606938612,-1.5275962628637343
-2.1869399231012006,-1.1247423883631893,-0.44477382071354965,-0.4001782518003625,2.1042927730437277,-0.8451683246136191
-0.8082430216665215,-1.098374403089074,0.14907935889861257,1.2742059733663735,0.6283818322274801,-0.15026612881301254
0.5048269182194867,-0.4946873196576602,-1.0044357166435378,0.5535295386422572,0.049730901920685966,0.07911362210064787
0.2750140819319431,-0.8716282573175294,-0.08660024432657212,0.07332288325395864,0.6547102873150377,0.24850528250123616
-0.644412928809035,-0.8543850590067574,-0.3493174697472303,0.00030026533932936417,0.8569997806354815,-1.5111776280979454
0.13592388137334277,-1.5539163840440684,-0.033201229719766245,-0.18268910453838494,-1.4413780691620914,0.3594696289973295
-0.014815407272999792,-0.6632463095089953,0.3127964221094157,-0.2626483264384616,-0.23392966980302,0.23669737580463845
-0.7245443567965397,-0.7256918919778199,-1.1218414376720847,-0.4058266756154656,-0.036919554513796,0.56122873889018
-0.08354775231731004,-0.3884107558549692,-0.22147979589029854,-0.31303458550089314,1.5530748462650945,-1.5774537847538548
-0.34277645527236533,-0.7088304289567096,0.07422821273062752,-1.4552566676361718,0.7672917384119617,-0.0822448831778595
0.9171469009818924,-0.3968907206549739,0.03051207062978456,-0.27173875866752706,0.25123228368842243,-0.6432214329917636
0.9473735858082688,-0.20585356231844432,0.6399579541894422,-0.3824537854572694,-0.5599580271050613,0.49869567746378385
1.4949617135643134,-0.6795913507194673,-0.03294677034361493,-0.5063572862418795,-0.09460816354582388,0.38107813151314407
0.5363591656678828,-1.1684201765670252,-0.26483094741123225,0.42643835022167464,-1.8856584271369803,1.1414175548638408
-0.45767367772216816,-0.6140533945039928,-0.33236088814214904,-0.8118069497047543,0.10283659329232742,0.06376868823912818
-0.7559226738376663,-1.1340794852685279,0.09226609540941944,-0.4571933490280286,0.41199121630378077,-0.16497244758897156
-1.2754262833534167,-0.19271247262430402,-1.0021134757664796,0.4691343276834419,-0.029496785847855617,0.06374953232635433
-0.0341446028782606,-1.6195365196569753,0.3060370875498484,-0.0314748513680827,0.17040463140607265,0.5510990837540941
0.2347230245216942,-1.1703649216660157,0.46600873094409256,0.5900819873542664,0.04602894981965394,0.16859765753258193
-0.6405838854743813,-1.762682441990534,-0.22703449935136583,0.9736343213601448,-1.8517133725381885,1.2566223190300412
-1.4113447380823412,-0.45859853054928623,0.19754868881682375,0.23244308513819045,1.2196061709841841,-0.3726833561823139
0.7842892092701468,-1.160815656898207,0.7520228047045011,-0.24347753753595558,-1.1291455704052944,1.2403815825554525
0.07956747005808795,-0.9083608496869084,0.42293379567542544,0.31976848392692897,-1.1838502605614076,0.8373894917583751
1.570852828276649,-1.2467971014855739,0.4034042714283681,0.12265839745784239,-1.3835830082434462,1.1477386607973372
-1.490137695385228,-1.986827268379404,0.4396891522629417,0.4123772387548143,-0.5024278813665253,0.8904261840250628
-0.9549224198103519,-1.0788286453933664,-0.3366129688020738,-0.015944480853546994,-0.22402034322078623,-0.08163816191629503
-0.11247102997122921,-0.9947932945077836,0.5725890416743153,-0.11761881677140251,1.340564924511,-1.5600822082985408
0.7206553516600185,-0.31102713478372473,-1.3019840810207157,0.009788094671086878,0.35860287703805704,-0.5649818994416498
-0.2989015022386501,-1.3995006235205818,0.524372078722669,0.18008713004076957,-0.1537811792261765,0.18948849545044472
-1.3417084890789308,-0.7238161172841371,0.36342254542161256,-0.07530047836180848,0.28839155137911165,-0.5469217749168129
-0.9782461052658951,-1.037117669724614,0.9546181494546002,-0.0035873898558190787,0.09456222838982775,-0.3437663788996085
-1.5400591942369206,-0.8191349908417415,-0.3508727574787779,-0.14499887326391458,1.1571319251494165,-1.165649870968235
-1.164358554190617,-0.8734387421982086,0.6342229709795176,-0.25254604466123737,1.3186532089799348,-1.451945005047436
-1.5317735278058944,-0.6100853268368005,0.39717291930664833,-0.050714375280718316,0.5621783438822325,-0.45045981496571835
-2.4801360239834107,-1.2041033023697674,0.203366723981508,0.9763186985602696,0.4875359388794245,-1.2260786079393475
-1.334565839287978,-0.8608880350745403,-0.030530825104552684,0.018344107276064503,1.3514532293083696,-0.814176249765941
-1.1757145533901943,-1.419176180615444,0.6815595473152589,-0.39978624705400356,0.36683734467201745,0.14731121544633252
-0.024517677686897554,-0.37403078049383603,-0.8283143052071704,0.22459451676128156,0.8518618788623462,-0.4050942937561042
-0.37599437042536943,-0.7185734258991434,0.12413507614686053,-0.12285684414255976,-0.414073289913535,1.3682942723608609
-0.5084256685017098,-1.8767981392722413,0.027476697769606415,0.15639548568455838,-0.6326067437200843,1.221130663181564
-0.5776807989754478,-1.3173676054670416,0.6760233638477683,0.33178055598634415,-0.9446171392579497,0.8619086063281041
-0.09143080074615528,-1.4392908866696568,0.27823677935637264,-0.14501489669175027,0.21317593154897696,0.25872987499863154
0.4169724984603833,-0.9073062750976053,0.8468574501698667,-0.0973699542569772,-0.1745014088825474,0.6186433531661932
0.529961159584789,-0.902400395663002,-0.41877591510124024,-0.2932344938790088,-1.0185947859883742,0.8835365508972451
0.43641757637920564,-1.390873766124363,0.39006289746577816,-0.7008549750306107,-0.1417065948314885,0.4539320372290611
0.2953854203030564,-0.5328032815597771,-0.33055725599668717,-0.24172972889944655,-0.821180376393696,1.2451351104546844
-1.4658909097585253,-0.4196897621408937,0.3875732717234571,0.0015532624663179284,-0.09852435876636889,0.005948722419573338
0.5696279518114924,-1.6789285008179289,0.7365232321303525,-0.36628159684863154,0.18215047121861794,0.26427935775368244
0.08838415031580427,-0.7713374799041735,0.3478975826482166,0.09381668997878162,0.13297955137839745,-0.24592803420166753
-0.22189280200410139,-0.9421446553787857,0.1859352106289741,0.29325169740166895,0.06680464186359303,-0.8978684572324711
-0.8127694574179021,-0.7771323617071728,0.22681845387242866,0.12291880605227587,0.02779375238466837,-0.28278961211357057
-1.105593029553952,-0.57322851147698,0.07393084897353064,0.25886204793683754,0.5811233245094475,-1.314214536017748
-0.42071920269086205,-0.8549989445000898,0.29109557369941086,-0.02624261224403454,-0.17098632191260377,-0.018857104044265827
-1.1628530735649198,-0.6988148772569613,-0.33279864625137856,0.292223047887661,1.270863141038805,-0.8746841154148952
-0.5385505164420246,-1.5039467804865851,0.8625612944418308,-0.019392023611103593,-0.14140505015202604,0.38770001961681777
-1.4638223684296825,-0.6436764298983713,-0.7992025298980098,0.1830374011439943,0.7364512061740551,-0.9928264971421029
-0.7324808471080426,-0.5059056183364473,0.31948922820048425,0.13177013858697378,0.22725080390563474,-0.046734544836113355
-0.8887480739701958,-0.5560681458782728,-0.1082825972959982,0.05793878252163878,0.1683801120407029,0.2001016403583259
-0.3190770963443992,-0.9574808411363023,-0.3923456759565198,0.1645869252559652,0.8469235640041431,-0.851392232239299
1.1182529515700448,-0.3770997478948588,-0.38238132797800833,-0.42608495106840705,-0.18779864401883678,0.944774418007672
0.32127804373447777,-0.8152386125704385,0.18245561594071535,-0.15987864624260434,-0.3085196719995218,0.5220098809587184
0.17420015637069475,-1.2450368848415594,0.5749207185232342,-0.22441835154871348,-0.6528214386239569,0.8217268206021631
0.31341185224686186,-1.3531836327567988,0.09254114319009826,-0.40349019041403,0.03969299264342846,0.6288791326570515
0.40292634446050457,-1.969642339556783,0.2604434062649165,-0.29180350830745766,-0.6428006677305644,1.1108501968161788
0.3884881633561893,-1.084737337147088,0.0008677718244389787,-0.26336562316348516,0.14402148710764298,0.3659920183563131
0.5885666122974743,-0.5837009651228974,-0.3546980158530929,-0.4247260510932633,0.6278667296702446,-0.5607951454776313
0.3359141602842893,-0.9571054857593293,0.0510182970375726,-0.3376452422868855,-1.262212500501653,0.9892180346926924
-0.2267371512238523,-0.7324483313425628,-0.6634228044422983,0.006245016280966131,-0.32625419596502075,0.20923577350999695
0.8431370667098129,-1.3115280885082794,0.4674882138834195,0.16654371800111425,-1.0333070149803012,0.6938392086612124
-1.2997745188915706,-1.0466872577234438,0.6240779432254856,0.2683252380063015,0.2940494002313704,-0.8533035986982961
-0.19002610777667178,-0.8149582494842887,0.11746273904514726,0.43744440411519303,-0.08536070805341278,-0.02195492039093838
0.34290001749665167,-1.1806155780611436,0.22495828040267535,-0.263797756330975,-0.5286635521271809,0.41266393413777097
