Gx,Gy,Gz,Ax,Ay,Az
4.272515,17.476863,-5.4205609999999975,69.446,-739.372,29.593999999999998
2.164269257479481,17.125624509128322,-4.965185507080047,-0.4758315375167201,-0.1289446565894391,-6.412897169064119
6.474849339349292,34.720017241403625,-10.40332663669762,-4.523936386118162,-0.14251609854822977,-1.5185563674094722
21.773157969259202,10.931179672133943,-11.169869420861671,-2.6505302418918157,-0.2073095090785253,-1.9671014391284753
-2.54307090577249,11.190316932410417,-6.82002617778395,-6.990962413922689,-0.52079676871541,-2.8901547263084484
13.763537147314917,22.754781198487677,-1.7599461711312407,-10.682610737888659,-2.3687033811814033,-1.7505347695516045
10.080598643558663,-33.84447240215086,1.2529741255057558,-4.098833126408892,-0.32264397468595146,-2.83524005347401
19.477070190634866,-105.44837216942572,59.34401692067677,-24.033380915806674,0.6757641568456165,1.1712222203451725
0.9539826532615203,49.012263116587974,4.968826590407614,6.462955437671546,-0.8351165196067378,-2.9225209825225336
-3.1127654158961806,2.9072262580205877,5.615426928903244,-2.2676736965982367,-0.13001595970316704,-2.4122345176511257
4.953004706588029,1.697245578691044,-0.12641416177867493,1.3547782018147305,1.3890719820496367,0.20008897088283528
-2.9476715451400137,-8.035340295084156,3.077959349801109,-0.4379197558489624,2.712627868294954,-3.519244222904883
5.380537074989212,-1.4866835008485682,6.302233449566894,-0.7254676477380012,2.370340511002284,-0.9702336898233064
20.32575654901766,-7.762377422240052,0.9069524978231622,-0.5859955452528812,15.445020111234882,-8.996623719896455
118.26144731239329,25.086751385139717,28.93787457431594,-8.015485057166917,73.41430047351926,-8.932195726938833
-47.76462346644092,-5.776097981804117,-12.964890153364273,-1.5133900330980694,-23.592641940427818,-6.810672305378102
-22.858228007449263,-8.81276382419782,-15.180283454914932,2.7858276422970905,-5.852788458716334,-2.3846601706967667
-7.312750610318489,33.09223528993401,0.9214640933223621,-1.1210262954711863,6.075618199405495,-3.8001342854672413
-8.876167663781011,-32.923937157513386,-5.584831659686,1.526959751671706,-2.145237042750608,-0.4091611457985799
-13.424755836543799,-1.9519763718311887,-2.90780126764411,-1.5147708781157834,2.523433118979232,-2.4984603371400382
-9.302086966935585,3.8704778071332506,-4.761028815447214,-0.03557545859725342,6.4921629819491935,-4.057177239682301
-18.02208844799054,3.2406549920408,31.650501884799475,-6.364253160549909,-6.172642279966504,0.34229731341878167
27.454931328623996,10.488303220605506,-25.778603849328597,5.274840640016956,-1.4122991408057533,1.1389624919076622
-0.576249971576812,-33.80713053387894,-0.82546803676103,-0.8720913537434858,-0.9126636316675397,-1.8626534627683815
12.254069302554905,-7.4953403082214445,-1.5341207430991677,-0.2407201835522519,-6.309677096713456,2.1811033397381925
2.589268858444831,-19.54213599981744,-5.915432192365837,-3.352897766151843,-0.47998205341744943,2.690600769824724
4.433040902260539,-19.848529948031672,6.105076272946189,2.2195615137144284,-7.06774936384746,-2.9248431043713574
0.1513891478851476,25.847923319435342,1.5027313090424834,-7.564239592751103,-10.618712141733123,5.199403456958287
18.631303703355297,10.781344579515245,-9.57646640375396,5.816900079749822,-2.2118447383173647,5.315622463134521
-23.564284433660756,-1.2561629075945582,-2.3549747340721385,1.928466977081097,-1.7504844299946187,1.5895888299791654
-10.852449418382559,12.246135063563546,1.4569755081201818,-0.8457743413773624,4.5445592954801395,-3.718745276841985
-7.159220011360791,11.873332720013769,-1.468369318922458,8.247532586208536,-6.354267899865386,4.231916266159545
-4.998642621001242,9.592739154973305,0.8486306079625601,0.40179512898736625,-0.7511658742367284,1.483285893910618
-8.239738712598815,11.854688685486021,-1.305669634130333,2.994889270069464,3.8251925294285813,-1.7171841297839836
6.067766984004395,-2.353492873742934,-8.600898843113384,-4.554013671548459,-4.679763343415829,1.112268938426329
11.459767088746904,-33.23380987801738,4.196060104992764,-12.982766228551654,-2.1663597117405367,-2.3502529543689707
-18.119596408704016,36.12008449910676,-3.6138583608631123,30.97428807974427,4.648694105194036,5.502788483386333
3.4346393962495987,7.973847554670603,-4.300803995166114,-5.516083172509284,-3.6963140215342376,-0.09477029899094969
0.06623204219261555,-17.829066316795515,-6.8332370345950935,-1.9458619219317348,2.3939690813650176,-2.4050998343602665
0.8905512091467878,15.99405884419565,5.251087411889812,6.343328077662356,-0.566862898194628,-3.457902091826133
-0.2580766254100745,13.383405348539284,0.15346964450654121,-0.3839595839814518,2.527954159246436,3.6756222118351736
1.3261302476414132,-6.49447621884683,8.205337742414434,-0.07397227623626942,0.7983029295529454,-6.613797477998617
-8.573185345912824,4.768409619270738,-1.4118012970892582,4.142520952825068,3.4535903881649332,-2.1126806128240405
32.15336287345262,-4.926312552852366,2.0833775575756186,2.247614954333701,-16.51536860743985,-4.528550380986051
4.663156455184454,-10.946579848540004,-2.432272930205047,-2.1415279182979257,1.0527508904817138,3.7602850440035143
-12.3208450181386,10.73787338948166,3.9744912084637605,-1.054779039448646,7.913744972624213,-2.801055810065744
-3.3002719970270906,-3.873161010066343,-0.19851743285258322,-1.0813407154960208,5.803646552230719,2.890086969419137
3.394493397303557,13.299817510095373,0.38369835283202325,2.860741039328504,-1.5534344912738098,2.1049992387993197
-2.2788681513552302,3.713366711389766,7.277944978750455,3.6897732517824204,-0.024515418660567168,-1.504535871136924
-9.85960881867604,10.862432742752034,-3.927707105041074,3.8008080271132467,1.0697132511702958,-0.25080000401946584
9.028097997605382,-28.068154199689374,-3.4735520072543764,-42.450329712689665,-7.742870388039894,-6.435093928830675
-0.8781334380807717,-15.538996198522602,-2.436353394994983,2.1165154731362326,2.0558573363498875,-1.6790950490699041
5.323448644685692,-2.0147912435785043,0.03389966485580631,-0.09896514643135679,-3.732775930612947,-0.28841712623063703
3.642261447629478,1.4566283881560826,-6.339945999790363,-3.3852434592661638,-4.00726835723193,3.203345694928643
4.654505019046771,0.2374209155834679,1.2744693238481795,-6.864768051198673,0.20161821661685134,-2.011405994111633
2.0161102006021983,6.55927640204634,-5.227378754691616,-0.5173545321768129,-5.0984539412464365,3.9557030325498657
1.3104067146476437,2.8194011358362845,2.5560936457533465,-0.8319680754883008,0.8757673723875883,-2.323292315932817
-24.82152826098599,-2.089748543821811,-2.5191008237274177,-6.0572062474502655,13.61285149396606,-3.4956151964965194
-8.919590546471685,-3.352385342642762,-1.7873331963011112,6.7511670267445005,9.263154086907182,-2.1328758596281663
11.310855716469367,1.5822337433077007,-1.3785772248752268,0.8468333694278994,-8.863508377749195,2.9911179589749812
-1.580110632801262,-17.8153665717246,1.091416748999833,-8.603600517862722,1.8814274211967874,-4.247144149625433
-2.3979046958713086,1.8426459005477862,0.9295049581494546,-0.09974609547446123,3.842802991866463,-0.36394583286079496
-5.192880832909218,-1.1759178106933088,0.6925582205331394,-3.1120428774943667,2.411861782371982,-1.1596086625466158
-1.560535765012406,2.733541926455109,-0.9363867996986688,5.091303093326298,0.8484039183631518,2.4601011404236743
-0.19884257563941143,-6.184780193971745,3.00438999921367,19.721565026682512,4.926486709090104,1.308422625331998
0.7030814398422749,13.353510454639517,-2.246177696313521,6.2578076611627225,-3.3085572094137943,3.4858547620612335
-4.517998748264528,-7.07782725716851,-0.9515782655806994,-6.733073959725975,2.658369078876436,0.8078927262193334
-0.8927897879884974,0.4287142717838912,2.714302584250929,4.536237772865974,4.786876804016254,-0.3703994483664451
3.140524307127972,-1.2954858733207817,3.5259998235976573,2.780095161196472,-5.774159916320064,4.306576890651032
2.4845961210375553,-0.23253833603628582,1.299703475527131,-1.2324418316208559,1.4373362223932569,-0.6487869796947103
8.875581380450868,1.029575266022318,-2.3702100054193678,2.3527857644377783,-3.773008052144498,3.466481881909841
15.859413757457089,-8.977233090258737,4.100016316798515,0.6120928402150403,-10.620241136821196,1.6097078327518122
3.214902811806903,10.236501829873664,0.6827711242833621,1.2123969827410157,-8.775788247982973,2.402725660783368
-9.333061476970848,3.745355620268276,-1.7053361144621286,1.5058003422083832,8.394418419727627,-2.8930881973588662
1.3042681030582999,0.31293938488512496,2.344934719506881,0.724524364216702,-3.497576370280004,2.3409793664643517
-0.16397477203335775,2.89166088461896,-1.6869366822603227,0.9658460948978911,0.15959338865460104,-1.2673255639880066
-0.9748771488247429,-5.7899919127242345,-2.3572244544349337,-1.2897056606721415,2.176757941475571,-0.8775546448593514
0.7079302226070279,-5.367480264784463,6.482779991127863,-2.180645958632972,-0.8181118787558495,-1.4393244834067582
-9.44067898038227,7.405440525909569,-4.24337427543568,-3.9104323826393097,1.9788736409985468,-0.7293214556665928
3.925384754243586,-9.888535210520784,6.6994075734693554,-4.723054032270734,-4.592344647280964,-2.5480972752748796
1.4406967771383354,5.821620867097335,-3.544708807823306,5.116502921934599,1.818589804758314,0.4951411930478273
0.5183744077437873,-2.0945335750543417,-1.6675032958733595,-2.7356438558739757,-2.314132463084163,-1.3676252170836505
-3.4376630433484245,0.9354549195135116,-0.8860651464940899,-0.6657162836430999,4.167478347330718,-2.391987329400442
0.6867636193049731,4.9399357124661885,-1.0275329080418256,2.4068243671762537,-1.472160981344763,-0.3567521226039958
-7.489239389116172,-0.28614865218464924,-1.6304663485723476,-1.0526692729680118,2.332910403961792,-1.6510107407609873
-9.455640309007846,5.878787811773263,-7.098406138606897,3.146196070901049,0.7753836351299221,-0.7041108217392196
5.690607057201046,-10.282479156686476,0.04257010898568603,-3.0723070132195924,4.14019762670011,-0.7920278367019535
6.261249813236625,-0.1333609288117763,2.106870067389117,-0.4783649887643754,-5.794476046845931,2.0227364045579783
-6.272069100099303,2.379261284375242,-3.5527063960108283,1.1456029104459926,3.960740032434214,-2.102384874061935
-4.592188279220222,-2.0308532132360693,2.5267041076323165,0.8866273331542607,-3.0034715154316256,1.3272039376894142
-0.9352481021802765,1.900006841055757,-1.4051178601401249,0.07052051899859169,-0.5983665436115057,-0.10527918604845343
0.27186426700467975,1.4242557473617719,-3.4045480872925613,0.14307133619961732,0.47844517429633693,-2.5081878919849494
1.2988069494054082,-5.070488702786349,4.26087026200248,0.10324438829998517,1.4079455235651352,1.1053584914385814
-4.66939387428651,2.3736523574582,-3.412773376951282,0.7330728915267933,1.0395557932676809,0.06371164255101436
2.4488144677261863,1.2931410339542013,0.002383620810653686,-0.6921094098009749,-2.74029841071368,0.04079694252548627
1.8636995572861736,0.6438305953402946,-1.3507543404972941,2.095291617532644,-0.19191812945168696,0.6128750657821068
2.7077739590358427,-1.6635135862352874,1.0372027344122179,0.7237579123428732,-1.6258651537737556,0.053826186123776314
1.6802341644167182,-3.3990057606951556,2.3994843543028423,-0.9259090131811679,-0.8769861514810509,-0.20272365512645815
3.5884577323564506,-1.7531646457034995,1.7211169821846326,-1.4183179928416156,0.8505235269755834,0.05910738001250894
7.543875806660827,-0.8464548240741723,1.9142273018329492,-0.8220391463955488,1.8148495831657017,0.2331123922832079
-3.96858913780202,5.332712163964455,-0.019837271097268905,2.1261873865504994,-3.4250635191332233,-0.6690621806711865
-3.3850453934165077,-1.9448647157472405,-1.3534427198186263,-0.22361271608900968,3.638152519133981,0.31379595740897703
7.434989464708775,-0.5758611209799628,1.7910899338546376,0.12178592417392438,-2.3060785767748144,2.4198518290090583
3.138934933748159,1.0069939226802271,-2.491183140852902,0.7758251387963779,1.9735141868348156,-1.2098564670512455
-1.6422065283107812,-0.8105851927678471,-0.9647039450274049,1.2282508345582057,-0.31048496604640113,1.0430718128341523
0.9019802688230771,0.2750414554714957,0.08020496459676563,0.44453119755149895,0.3821660019393938,1.0548462055765555
-4.631513219775925,2.5610272465045183,-1.3201878968747496,0.0015932518200720835,-0.9144073837412614,-0.3708316377244653
0.0005138177129602184,-1.2993609682259168,0.811317085326472,0.702866656126511,2.0506676707640623,-0.05071285215224522
-1.5388044676969534,-1.379645917192361,-1.3851381523304145,1.240068559653124,0.08191861944267786,-0.7871825385664402
1.0290829284574843,2.354293718497689,-1.0411394042060647,-1.8650722229592696,-1.6102766534159019,0.261675519949078
-1.6355378686347546,1.564477209878288,-1.114371054423352,0.8355599871890614,-1.0559118200392716,-0.541635583589818
-2.9107904069020076,0.05810020633152946,-1.5748983474371148,-0.6035429252834765,1.4205103871065252,-0.4866272359238959
-1.227715450017416,-0.2781220257185569,-0.6151518753442173,1.087887934211601,-1.5314436363364206,0.7066252634648543
-2.872471717177299,0.3427878411190697,-1.0506832043418393,-0.5302042202620101,-1.2347293399883617,-0.613115154925455
0.8584885724625748,-1.7516664075307289,-0.1421075945039209,0.37905198955220243,-0.473390165654474,0.40531104740134194
0.8520859529914777,0.6703528483386247,1.8665312384399886,-0.6682348211865925,-1.1397376090841416,-0.5575664732846449
-2.5043718995570634,0.9963603401910927,-1.0269077157016586,-0.6763656048242018,1.0267584902289644,-1.1992389359305882
-2.7591468706330593,-0.5627781735453603,0.8388093758263108,-1.0477513385951678,0.80361293513656,0.9381373632663004
3.0001771218121385,-0.28222064043443423,1.240722683480924,-0.7160779239058956,0.051052613572764693,-1.3907883558977223
-1.6315934730031603,-0.34756728340547627,-0.019132824789042158,0.009659353114416985,-0.24746895123003443,-0.26184026424430007
1.6958731147442103,-0.8459699508067064,-0.2992374597508057,-0.015770245046789214,1.1244381256198615,-0.5456907295023916
-0.9665780875588035,-0.44724201287357657,1.4929484175750756,-0.18408436960953967,0.024598767219229767,-0.14599339657416938
2.1324364078528872,1.385799745470491,-0.6871585487537446,-0.5697189069546778,0.26520785946531483,-0.11387184584863819
-1.1058266577678597,0.12863568299099484,0.12757185684749017,-0.04832494891000225,1.4832728006906015,-1.0183549503035003
0.07173767531428232,0.8450744955794482,0.1986838483601594,0.40574202173546076,0.5055858184445433,0.8506083745258132
0.14149779528067596,-0.9376053865277955,0.6965673272517978,0.6212644181265312,-0.7745845043494864,0.9431040378450246
0.8194051764835445,0.8125118583279958,0.43956410995718254,-0.01294805419416839,1.81715847012903,-1.0550417607159925
2.8919617904009467,-0.16349374185962848,-0.5270260256646914,1.31821323560588,0.96177368082802,0.040475752154530954
1.856788384154285,1.085725975183776,0.7653850819196556,-0.5816190582873286,-0.4474012862402487,-0.6422157709864238
-0.8203582431513468,-2.3268814454578592,-1.7798847709844832,1.095158495946029,-0.151769154120323,0.8737244896462253
0.4407485842102045,-0.9933802645866137,-0.24761742653761687,2.055719118563307,-1.1902473768997188,0.521969833113089
1.481095570662015,0.08387202482678463,0.6777244138466283,-0.048133763248086575,-0.6889850717555321,-0.11218813698446743
-1.5448970843641892,1.7514203072111665,-1.3969398629265708,0.14387332663585084,-0.9177975286494169,0.9499463206331151
-0.23262708800885568,-1.0453562117812134,0.4998241770449322,0.25531722350817493,-0.46460325033979033,-0.47632007682703525
-3.891501383556343,2.9689040114353333,-1.1697203424163194,0.490106192637955,-0.8710353245195972,0.32546732351821833
0.4732024240587822,-0.912518946915297,-1.25791290998552,-0.30503919540108915,-0.743606149725303,-0.1797019735418618
-0.5274517021967375,0.8730299164811925,1.038570718477763,0.041944492719292154,0.3066251622531229,0.2694048475422812
0.7289228215095486,-0.12476441890502038,0.27158178522795057,-0.570187163193026,-0.7950757218414692,0.9772974359849871
-0.46947804972232243,0.4668618316727021,-0.5755091319726126,0.28394363105766446,-1.4646220489880901,-0.6366515541980815
-0.16830355188085633,0.6608082556122252,-1.84688151189841,-1.1733167215268558,0.03257379497372691,-0.6391904687137435
-1.8939139160653156,-0.8948701392193366,0.06342337110293422,-0.4218574148012052,-0.20001750788246678,0.4348752561976361
-0.9565385375342601,0.5418475147769676,-0.7663962907157484,-1.1985776313445529,-0.5287028597035658,-0.30431749520047197
0.5433788839992136,-1.1300702901516642,-1.3303879123920148,0.5483206524566686,0.40559648549827476,-0.3674651830963734
3.4464153989063586,0.4770444101898972,-0.34590343082034136,0.11529961681202541,0.20488840193439978,-1.164214577932356
2.392495763803735,0.5593699049014933,-0.6768680835392958,-1.154706960334566,0.4795983149029427,-0.808759514817804
-1.3332526430884888,-0.9921700159621847,0.26343986346604265,0.12710066333727613,0.1597064764454208,0.03462453424687428
2.739990996906604,-0.1700582883541223,1.1358395619934043,-0.030432870858766115,0.5029088411664109,-0.5517402485203644
1.2323487726691607,-0.10570099070526406,-0.48296900101068857,-0.07539308201807561,0.07717787812261778,0.5092374441747426
0.24077547117898435,-1.5075291345488042,0.7298559908028867,0.5309788412837572,1.3385814820026707,0.4334032194452983
-2.2473050799877856,1.1621577693241467,-0.32371130965915446,-0.4687859112833419,-0.038306971919333,0.13126181051147606
-1.1145777117289277,-1.3136216673304522,-0.03577321738910533,0.17692417171269212,-0.07473590466831206,-0.40205326611589653
-0.027431176359941984,0.48051780517306397,-0.5811678137546765,0.44115784769893873,0.7231161510315842,-1.2009521786156587
0.7817865500940012,-0.507745588381867,1.7500775895766876,-0.5631544210989338,0.8003620717984549,0.1752303158975439
-0.9117958102701341,0.6063801408213048,0.875712363598376,1.3339689718747556,-0.0004224061902798268,0.6142286379055945
-1.002551954150309,0.4868806745789799,-1.2394913472154692,0.3574686871068683,0.29504634878633396,0.608457092703023
1.3947303447801882,-0.3763305580485022,-0.31474491382953723,1.2961845515003099,0.059821207314130036,-0.14696969795502776
-2.7949970744023434,0.7078845053175087,0.47265554100841534,-0.8648750741782849,0.05356903900656922,0.34829901642463296
-3.852680753682127,0.47812467658796576,0.3348094793410829,-0.6516774341870668,-0.4400057350009594,-0.3306008064862534
-1.8121035186539212,0.3401895924949907,-0.3828400753717894,1.3332377550365844,-0.19904190810399414,0.6334992185133086
-0.2645369172142563,-0.8998902144742922,-0.4822429421706549,-0.22512805444206851,0.5551938596074901,-0.5025611871569899
-1.5394101132711098,0.017787981921492557,-0.6982194230848671,0.3095806409439096,-0.807519175893297,-0.3556644875940945
1.183662424174723,0.07283420824267155,0.3389831316057989,0.12969888345036484,-0.681421822233392,-0.41165804043236964
-1.134314484212533,0.5094180479448073,-1.4760397742209543,-0.2650308056738663,-0.7048696626439994,0.09664602053298418
1.241186537396414,-0.7238315784699794,-0.24512561575203531,-0.4973637270260565,0.3106709957701174,-0.1132862587020157
0.5735290854016909,0.8760377906277422,0.055815409938367214,-0.7668044548776873,-0.15950476725183665,-0.2253642807690465
0.7080588196744757,1.5445350862611489,-0.2826913309353492,0.3853696324113052,-1.0337801456539903,0.3129060178723124
-1.3875271042599135,-0.341046720582033,-0.24835373156912932,-0.102903492716729,-0.4169997702666802,-0.4391700233692992
0.17818903386817703,0.37020265420327086,-0.35855984212457037,-0.9110611884970529,-0.7186100436673859,0.1803383469079317
0.6179495393491719,0.1414800253293741,0.5452668735023227,-0.16561066738350044,-0.20053638003961732,-0.11736464397653021
-1.7784743379380759,0.7132967127518455,0.307275457640234,-0.322634875134111,0.35988737847570584,0.060633405364277554
4.696610591802442,-1.3838236755406366,-1.06535652343446,0.544575072289582,-0.4009124418365784,-0.34064821442875715
2.0060487421648725,-0.2840472877692075,0.5361116823995796,0.006067755249253848,-0.0017819607944555178,-0.02717088572167818
0.3896698150057173,0.5621359971618979,-0.09955362834317227,-0.6633006881551176,0.34884627522391404,-0.16485138299237775
0.7124038028606273,0.4949264830530058,-0.8366442937960656,0.4392552837852032,-0.9988307168037732,0.3026703229030634
1.4639588861021835,0.19347119897752746,-0.003076244026111008,-0.49225153218977774,1.3311754022407665,-0.31922423553551993
-1.3329217787486491,0.1894380782454142,-0.28838408879004934,0.04743611918765078,-0.032141311409642034,-0.15836205847903187
2.2356372914193456,-0.7258864163450721,0.4341991737723134,0.8806826685081046,-0.733898663858664,-0.5143463364065758
-2.768367377570257,1.2336128713696408,-1.015467817745042,1.413548729838141,0.22095484291530898,0.30517717108524856
-0.19906933386492498,-1.1210327455528988,-0.17885654661144884,0.1717728773208773,-0.09874732512275022,0.3669130385536774
