Gx,Gy,Gz,Ax,Ay,Az
-7.337104000000001,8.380695999999999,-6.445746999999998,19.208,-477.786,37.775999999999996
-3.495062838761851,9.16695557935591,-5.744640976691762,-0.2168793728526193,-0.889536047468181,2.0243895448952824
-3.9235058722544713,4.629418011311767,-9.289467458711407,-0.7404477783991215,-0.07210545853852529,-1.2426968749775658
1.4108315727476846,10.417843241213596,-5.518403273127953,0.6473276539521835,-0.10801601068813126,0.5913906277382913
-2.5190441652093787,15.030365174076945,-16.658719194663487,-3.669941810547058,-2.43841443543899,0.8310452931979803
10.649322095696387,5.796369928162875,23.706966032707932,0.4617050208982906,1.8241695449896138,-0.3382484125449115
-1.5547866912327277,-12.47950348377781,8.800653055845046,-0.6107498338152679,-0.16519525018402745,-1.4022978900439564
3.384217934348942,-23.77447269950145,5.418990298258449,1.4247977866713735,-1.3223973482201155,-4.106341792066515
2.920672411207049,-13.681681540850803,9.728910016486427,-2.724439517745818,3.9744146518204717,-10.576457494363629
19.443073921176584,1.5998912402089496,8.09683253231257,-2.0159045984567197,76.0808251152068,-27.976989108341897
-9.553752280436603,1.6976030230680448,4.506234059541734,-0.5883176735330958,-11.54709818024326,-0.28515015483484074
-4.252324979854341,-4.7728791585800545,7.5683124976651825,2.1936023492864485,-5.850566759856896,-0.11986940640247945
3.1387356016963244,-4.92151462647418,9.108902742978962,-3.4281476816963696,-4.649166629636545,1.5403209018534156
-4.723593188676205,37.652319248929075,16.278957479006422,-4.459207796027914,5.045905127090527,-0.7205593324099672
12.293258998748675,-66.25377753337784,-35.971418886026576,-0.894991249139343,5.310149357129024,3.5748900442078986
1.7542424500252642,-10.694603055719618,-5.130302183072764,3.8715005544080565,-0.8812710792116069,2.7706702488255863
4.227131390511937,0.2936070938316946,0.504088336125544,2.771434367898659,-1.908105419586217,6.875517123545783
1.5179087015165438,0.9595453054177057,-1.9404255063524678,-1.564503140326162,-9.604353067069896,11.722990819378145
3.905548775839748,0.18471921181973716,-1.3971656922775986,-1.3654571076305524,1.9957675193097248,21.320705170879897
-4.754526272431349,6.252163889992612,-0.252032973465405,-5.223691817472193,-5.077673934542809,-2.170600812831994
-4.039286451047395,-3.484733137432309,-1.62427331348288,-6.578908882554695,-1.7614210566352035,-3.863817511677969
-2.4653352952216654,-2.3188692849374837,-0.5552788168530649,-2.55069825032702,-0.8893637225417046,-5.222115147406152
-10.647205803183663,22.542696010441475,5.200904706235788,-1.2955160581368177,-0.29434469504875393,-0.04299814799431728
20.845795961687603,-33.67319650506826,-6.052895952225057,19.198397731718078,-3.2472375102355486,-2.4843753684802685
-8.440353831845382,2.644318225985703,2.5057254042494277,9.600452220326,3.1976998600143403,-2.479146109833172
-2.3647438011915956,-4.005281262475221,3.3013081775394926,6.62310001618839,0.006412669100060331,-6.900102401347677
-3.968254078619527,-5.313416198172794,1.3142639703883532,-0.6214597242471744,1.6494296447937,-10.86015698216374
-2.7503521557120303,5.606967902970793,-2.0534875788357767,13.654771573517225,10.422865787961491,-4.953824450593212
6.184386501614684,-15.673056298812874,0.656764475386725,-0.44715728941812394,-7.471469632922185,-2.6738293140295157
1.5545039108263352,-8.18050826840745,-0.19795693025110372,5.002416546944581,-0.9390521386705699,4.8705480694666985
-4.7519855578027785,-7.66784566404583,-1.7263165351582987,-1.6419468803527084,-1.3351835714860527,2.7577371635691974
-10.990697344473677,-1.950388848307968,1.782619126329581,-12.964125811187134,4.1133718645695545,-2.0190079715253724
-1.3140079253976564,24.3787583328287,-1.0636084274673148,13.116536333044914,5.25463439478453,2.8779660965852547
4.193515073577765,4.788859495669024,0.5880954978165842,-8.295368758940507,-4.7950426982860455,0.8089622923920586
0.8131252470339544,3.541373566672942,-1.0922820373276168,-3.1373858339992546,-1.9547899930045487,3.9105750277933056
1.6435183355316725,1.4632134937833623,-2.998909790471327,-1.4251139275857148,-4.724163882787019,5.523638786783279
12.983769253805317,2.118386516463037,1.1623970097438965,-2.8576908806793733,-13.416499516463352,1.1656296767386882
-13.241736564213582,8.896471098949434,-6.579891161808992,1.249323269701839,17.435683868026466,-0.5796490716565619
-4.505701288590531,3.177713018438518,-6.454453941564328,-2.4555139032448063,4.900522419417708,-2.642822101614429
-3.7600814483772025,-0.9324513242144038,-2.3889545334619324,0.6259579435439008,4.486203738521897,-1.6380019749406496
5.710474214643139,2.405005636317579,0.4232321976117315,5.733600301869297,-2.1846910018589565,1.2948248931793553
-0.39539966958992245,-12.258225372184882,6.21204143890104,-4.240398290294988,0.20165263194380367,-1.0374895211262143
1.125738906737404,3.685743052673277,-3.9710122378184862,8.382458698561111,2.0038381937684653,-1.3868069686229492
3.5546031185525537,1.0646378867465018,-1.470810882607231,1.7763297271736271,1.144173038409692,-0.26635040071742316
-1.9422097229119224,2.442695867646926,-1.2770109707350759,3.020760329239099,3.164747136716394,-0.5185592285085867
-4.818279581092888,-0.0009050189833388345,-2.7653893874598308,-0.5734343978031227,6.9074389384430805,-1.9554903774122048
9.499531179682966,-1.0644339794149134,3.141935380382281,0.6679815994779119,-19.611033380066164,5.218491243510567
0.3178059172000749,5.017403070105394,4.494596828770148,0.3826127874639078,-2.3938176732848806,0.8698710534646683
0.656323047822411,1.9156685444978707,0.5181849206571489,-1.6641532781433828,1.1783274276012108,-0.14501255410187425
0.7765223678616591,-3.9085894019624545,-4.585484648774608,0.1319487210949432,5.129614331514308,-0.025892507260632858
1.0464026181966757,5.161821744207168,-10.054560692933862,0.888294079314469,-2.9960408727976784,-2.263844084986413
0.7159164996645847,-5.6038575909717565,3.146896331240622,-1.789916463020186,-3.0708393557679887,2.2422975736779724
-2.9220936060958502,-1.5515502522449007,4.867438404400903,0.40009016231096145,-4.946404937492337,-0.07437773952288518
-2.161523810947643,-1.8802499711990772,2.28897516850939,-1.238896240176706,-3.5637372134749925,1.3645105645482625
7.355475986628435,0.8268385044508304,-4.433920510094371,2.716879440904169,0.9273181511347106,0.7054790305549451
-4.117672765468115,-0.9806659812483325,1.2759434113085453,-1.1915566004177223,4.848989394897599,-3.228997237179312
5.018752516178145,1.539911878841519,-2.757232141550003,-0.8876731276483931,-1.5695065739330953,0.7149531188267391
0.47133075679915715,3.150097876154247,0.6822164472781822,0.5319724848670164,-2.955289200401809,0.061596113665128495
-2.0860405281156904,2.2195478843384984,1.3746690586939656,1.4050702943807236,-1.5367263310008936,0.21950601535657782
4.586016211606207,-0.8874081914102994,5.165439829802228,0.6352319705216954,1.5224901062965417,-0.42163180640583436
-0.10673654685228562,2.7049815879456176,-0.44807246826715064,0.8344366735394542,2.6216994166018255,-0.4265934763251773
3.0239766167316433,0.45898765000585157,-1.795524457802974,0.4771690122466209,2.0084095154955808,1.4337467696302473
-0.3829316044296921,0.38309225349604803,-1.0611776469737424,-0.17275128118283317,0.5142123447222275,-0.09704610196410543
-4.906615075494134,0.4045558938347259,1.897805450711015,-0.48337979895923566,-1.0708539807880473,-0.19501121503751884
1.1121706194058139,-1.1528398617491318,-0.022935119441930912,-0.03980026771383094,-0.7164231422128151,2.0411384531807144
-1.132630644577055,0.9378247147946918,0.5349097795165377,0.06699820196381495,0.967718267888098,-1.4764290551580375
0.17370989443497742,-0.9551767472141428,-1.382612035260255,-1.3096132013237685,0.7674760237337629,0.7016297061235788
-2.548860922212956,-2.193628817731599,-1.805642215511194,-1.061226104173739,0.1721998241557683,1.50820408200487
-0.8854951154795772,0.6032247942349442,0.37920995110702765,0.1402654443116098,-1.4479305682809571,0.254403445385611
-2.4721409154381,-2.0054585044382245,-0.15661997004045514,-1.2381059007503392,0.6838447845806344,0.27753805703257695
-0.453201553568907,0.11555533250456629,1.1403272462263057,0.6841275326487835,0.161614430520164,-2.008056611553237
1.2963531440511522,0.8784611494994008,0.36134087576531737,0.2656934340822763,-0.5706991508786788,-0.01414773709173242
2.6352570968207862,-0.04335976050742307,-1.0194494235644105,-0.6732763796594452,-0.28367589278995325,0.8520826509400115
0.7526553580785544,0.003751554751018918,0.6254267075669908,-0.07114063113580446,-0.5864914800798708,-0.36052541578303465
-1.3060098895583128,0.15093826268900257,-0.29213738005972656,-0.7604980346418888,-1.387993446823713,0.572559117230278
1.0388387569922481,1.2391868346198,1.5067937356938954,1.8107712560882208,0.3236646542387401,-0.8289914098614871
-2.9085323760374218,2.6524323517664783,0.6396586994700701,0.6687328064089819,2.0487978708126318,-1.2802362636382292
1.3332499896840542,1.7185971844096508,-0.23488825112079903,0.1380573481995215,-0.7324890663446497,0.7445924171095658
0.20674512132460232,2.701007832207406,0.5397259114193954,0.3700249028904089,-0.8640546291015772,-0.23666559707495366
2.1661500844862474,0.62366416721784,0.07721358319234606,0.08359448296707986,-1.1612119468286575,1.9510838284367231
0.601314864011724,0.9164521798681411,-0.02481566066264039,0.15480239142244182,-0.6583932271067104,-0.19462733061004814
-2.893873893277105,0.10695369002419919,-1.5777700700774018,-0.24376177172560715,0.9502207131896983,-0.7588607619805747
1.8999632233916948,1.7485552816879188,0.6972444875252888,0.22848231990354084,-0.8010994159154758,0.2520437463741915
1.751801435093046,-0.943032054984673,-0.720430756549901,-0.4848849038571357,0.8994210885856398,0.13373110991052828
-0.23139309276978032,0.37181974037211896,-0.2163667982499805,-0.5099836302377206,-0.2094541278530439,0.5390882662568581
1.0780533503884755,-0.11713323124522335,1.1939290307813728,-0.10948447315272203,-0.760401292078851,-0.22464389376625932
-0.6830010629301559,-0.13760431888105154,-1.339859817782195,-0.023432025463035994,0.02336138245652169,0.045833641701723826
-0.28253016676852594,-0.2427930510560974,-0.3257170722289281,0.42440866509753666,0.448996192746394,-0.04945086084239017
-0.35352307841083996,0.3370540878813447,-0.32608571955742616,-0.029166379513156246,-0.04463283795862094,-0.711262358526768
0.23206417546798946,0.60517437391103,-0.13126643394615956,-0.05475410745453073,-1.047091585532061,0.9956399566728568
0.25808904689160017,0.786895426777674,1.2112207358080669,1.1553431772957332,0.5096125799395554,-0.15145945895019208
-1.4217979729650405,-0.18572021209516154,-0.6917651984294633,0.0994617176369158,0.1416658896063423,0.5443005485179514
-0.8739638488149022,1.4192256590790704,-0.13084640911993722,0.3928137435946588,-0.011214458747590667,-0.7673612374590902
0.9662587864695706,1.1534108689981268,-0.2357223714240962,0.19697111009337653,0.07832460887485446,-0.5634536274008661
0.5460137786561383,0.8086605362969255,0.29535837045089985,0.05968997157018151,-0.6077142704265378,0.6992607329725077
-0.3367546947090338,1.8722181941700204,0.93909092924271,0.2700602880244363,0.4434247926738538,0.3497302248142628
0.4516775321782238,0.8897680485055875,0.16494826678459937,0.24350165983570662,0.4923141787966735,-0.27305390574974375
1.11732491353809,-0.22481267053196552,-0.1860100983107101,-0.36187548013115706,-0.35121645001569235,0.6917957665767649
0.4584174885949266,1.244819522900595,-0.5798143049265444,0.005357571457036248,0.7564432140196771,-0.8855963752952299
1.2120979776986571,0.11627054706020966,-1.4772137569059178,-0.10237226177736439,-0.5236474085121703,0.1963508464484398
0.7670322385346484,0.3318276572101838,0.6952022566336297,0.2644316179961962,-0.18178519331692924,-0.05792778293095263
-0.3515048973666162,-0.4960902482862291,-0.19347348075408707,-0.3808025195121388,0.13453533637612314,0.27338542918891123
-0.7143239854832628,0.08734579885823386,0.9360926925746468,0.21479111219197014,-0.4426126507173127,0.1788599498692858
0.46353739923314624,0.2043295551445269,-0.14428778206804413,0.00616200006881612,0.299238395062334,-0.6344834785972137
0.5672023763530706,0.5547868964911399,-1.0181248262603497,-0.2233485828857786,-0.5269316040312402,0.06055991329675915
-0.8087884040216531,-0.8348026614589721,0.16928788587574947,-0.39707604494980003,-0.7557105017329927,0.7432550219601884
-0.7129928705572646,1.3961335238964332,0.20613007610184336,0.3130187473507516,0.4469711815828252,-0.7318591953165955
-0.2255501641826969,0.043574211653953754,0.467994075166644,0.4103273979148753,-0.4350020633439282,0.9401510173406527
-0.6140955942611261,0.016601529819253447,0.08915846079165515,0.32722835550877183,0.5185420514720893,-0.3502331993951188
-0.1818205637562873,1.039206290257194,-0.6704958223480664,0.2206125654629661,0.11012787306340828,0.11902740037823767
-0.24951899530598476,0.5891989832780963,0.33732669137944815,0.05249821682270461,-0.11887809859177122,-0.029385171773938776
0.34285597950267727,-0.16020689148677397,-0.6256214302532468,0.1992907995827498,0.7458366377133169,0.024737804368611144
-0.33348195174722617,0.9138304497797745,0.2681479187012789,0.4443073633193305,-0.32856603311346233,0.9469212388663067
-0.13096063508989275,0.0631163081040052,0.06121129326511181,-0.07420410741451182,0.0868996158372778,-0.1562457431184781
0.7109394203432787,0.9578412983749833,-0.4119337031887939,0.24982856041047163,0.567925137358641,-0.7376126799778844
0.38852939590955193,-0.2724886070607355,0.35479693530194795,-0.3036354452043096,-0.48442777428023487,0.8706189712173041
