Gx,Gy,Gz,Ax,Ay,Az
27.047316000000002,50.281645,-16.940926999999995,4.241999999999999,-549.0740000000001,132.252
10.010941784335753,63.305981902386094,-7.8960427234757535,3.102768246968891,2.987535456959091,2.449417370597994
-1.2263257712091542,36.31699130864054,3.8479461902268253,4.436790509015292,3.1226087335656727,2.8508361786015852
4.4807661065779385,93.16936298285349,-4.680045657292494,2.4962845407390652,0.9040108901077057,3.1556768566571853
8.882417619265684,124.72330452383554,-26.48807029519768,3.619240451959135,2.491834890748371,5.6038769786178495
24.133840366337893,300.3763745635438,-48.614238262770044,15.39506195538679,3.7583982040610815,8.47846248830707
-16.275951015812648,-161.75162304984934,19.227117133430728,-8.840537250279333,2.108718937933848,-2.284027538589246
2.2838647138931125,-66.28255430404553,12.010638951340535,0.1144409844435903,1.9800102155219295,1.0955502369318653
-3.995885432959951,-21.833806164844273,10.16276780396202,2.635286417644438,4.598145938552415,0.9217615627251918
0.6421473851412859,-34.84247217082229,10.084156532872306,-1.9053396291913696,7.248741723032347,1.1771696385971033
8.844588730784613,-32.45773028082375,-3.350726307199066,-4.3799461964252515,5.677125851023868,12.661679812360562
-41.19850581383334,51.67694420442807,0.3943073259221078,0.39193261412771246,-24.8185306576473,-22.90128401809147
-0.9738621878693863,3.3720132376743237,27.979002654725935,5.076958348297749,-3.757062262235365,7.9015056090660085
-6.010804894143867,4.5844959638100224,6.867663329462298,0.12489095446370313,-3.895060359051139,1.7545488399609386
11.9380670456416,-9.62830336223769,-2.1972089645668396,-4.589937872304888,2.5473284466604764,0.4685700254606564
21.52448172151167,15.305440072915927,49.70546435624113,7.140002922918548,-4.193071560667647,4.466718839082259
14.367758001512751,-76.63076772280961,165.67909830504567,3.4381928038610448,-22.45968795983819,1.4763146522339998
-10.018767360490504,3.886957864619287,-58.444992037178515,9.74629181983098,2.7306689834541045,5.848137735069149
-4.164628845673958,-0.9579035514283154,-4.691919279821134,-6.780748057043816,2.921065408380734,3.462958544130424
-5.967031941373669,-0.304162005535515,3.62669545971293,-3.380028846274762,-11.148722944852643,8.016604403791478
6.0955160971092095,5.220004492504172,-8.832654891244498,-2.1348589931141957,-5.544715662614477,9.771514890676944
3.9411539004754053,-11.784243683595573,0.3420467324473999,-4.19097705234862,-8.991452656272102,11.61650063964445
-20.53952678862822,6.537056627573645,-7.826486154614864,-0.8085609532234881,9.742043070931125,-23.224817547344177
3.0523611273338744,-22.374366741243573,9.935598097103474,-3.943419895851462,13.816548964566627,0.28270685814347285
-4.748540048452149,11.65564842088325,9.004187210032313,-1.5848411707760568,-4.376221101175765,0.03846271758414377
-7.345837367496686,-16.058171141339706,-6.549533354160368,-5.650190410927413,3.626078035854991,-2.6152996364875625
2.6382724443950067,25.19523127441303,2.4917390376204134,20.33690532815441,2.4103790045126785,1.9027630607383088
7.205032279209419,-2.5140966202564847,-43.062326190350625,15.4468170628063,-9.24591128715425,-3.7416149789293556
0.4894868669710002,-1.2432993869055127,12.69448567061185,0.8581928912689814,-2.452438160624102,-3.124874241662652
-3.132509803975232,-16.481272650880094,-0.9023630147563592,-5.094198937314075,2.166269478977827,0.11887685000607251
-0.8090992100732549,3.622657671882572,8.555137254861972,5.967702630375805,9.895825088446411,11.31981703862656
1.0571677158293435,2.641331111451402,1.9773466629811542,2.0506907495962157,14.19136665277801,7.236591791873701
-3.3727831136623267,-35.616364518548934,0.7973643146373175,-8.248246717173323,7.115624650523449,6.060264757184388
-10.376376246522767,3.1870074957345205,2.046345102375261,7.178047894899985,-7.730642798876106,-5.347108688309841
2.9326989587993144,-4.544087174681296,-0.020937031753363117,0.7516653085869283,-3.752075579773148,-3.377169697600043
-2.6656235906490413,14.396726822087288,4.600682732275558,11.227205835323673,-0.668312747098427,-0.49461849172266703
7.340784900349459,-5.25227108605862,4.934931865264952,6.302692827405224,-3.5124316623365184,1.14776845729691
-0.10578759142867544,-4.1909184999697295,0.7445315651897559,8.080098271416759,-1.769529203464662,4.419932444301157
-6.148783971780619,-19.978250731364312,-9.403142993425545,-10.48015008737685,2.178496505429752,-3.7012340816597393
2.170509716879624,-15.6610543940216,-6.559312751747452,5.019018224701527,-9.2236513429112,-5.270502111781413
-11.446488716189165,0.13654979580739957,-3.2090317752116446,3.3124017461018274,0.46626448472038956,-3.5134078767268604
10.314967299552212,-1.4900505924845673,9.30057115977539,4.05433027192283,-3.2848994747747806,7.873820056787693
-5.542796475002326,6.585074064400313,5.9293773750249885,15.89175913188756,-6.676828158400047,8.152171818672128
22.584479714015714,-7.713036572045944,-5.724781370251641,7.8088450025117355,-19.42167213704102,4.175456960484694
-18.152069709517214,6.759779134095012,2.712963396669882,2.9061965643477463,13.067233847283264,1.0277623300102303
-2.239506413932652,8.931086527643165,-4.655323136249645,11.119117720491737,-1.3442036995387823,-6.494078603693248
0.3865607790674064,18.09138699484181,-1.8411011148179943,24.616676411771877,-0.8667489501682568,-2.014881135380613
0.5711202488549949,4.929061565814386,3.9434058589648933,11.872725822411121,-2.8330114215676985,4.182064617068243
4.606525814156445,-6.189450227923318,10.504774537275631,-3.6117070454520848,-3.0802116770551016,1.271366519459051
-5.938098562469191,1.5450866120368993,-2.539569342480428,-7.006310258138904,5.162676967792002,2.6705854705161487
2.1475316949513275,-2.417886145285318,-8.129609830099634,-11.02805438112813,-1.4635063036310747,-0.16732517641528144
-11.38432213672921,6.4907972671317555,-2.166069340809911,8.003522404139327,0.7950151473792235,0.2243936309691312
9.623261043038365,0.3721371285703887,-1.0132512221969596,3.432101955920921,-2.102988072080332,0.58706736090897
8.957654220651477,-9.161705888931772,-0.2933428947788519,-6.3935977491169655,-9.621651571177834,7.908273337229288
16.98417907631992,-9.449915142772548,2.788364147471167,-4.242620233401057,1.2625142553236515,-10.603832469589452
-0.7657943133606859,-11.06691956673869,8.51469200424207,-5.723897512121204,-6.130833509977547,9.054009826779957
-5.170826359432285,-5.0233629918218075,1.9795165069400964,-4.429028728117226,6.478721454228338,-2.232175946950875
0.12089400912998283,-4.3890442027733725,1.3762425088842227,-0.8612663007237202,-5.07195121450337,-0.9447608809532461
1.9995901417811717,-9.234349350735357,13.989333478141663,-0.19702100561628733,-3.025899834447316,5.540073971917998
0.13117404257112675,-7.069119474988656,11.548336997586052,-9.790848906469268,-0.46787123941477904,2.436062365122185
-3.2303751305132358,-2.2869024003721714,0.16641453083437963,4.543623723588517,-0.48033942378482897,1.1501254036300315
-7.3894989369942525,-11.979087428485048,5.437159579143184,-7.30173330759228,1.614149503952102,3.6554681871681907
-12.523043410051494,-8.986824192701892,5.04679543173771,0.7026339718872698,3.6603019506086403,4.560769456636736
-4.337615480552039,-4.266098494244454,1.8165320361829518,3.6140492627626117,-1.2179897372988393,2.3223978544501764
13.335142008516721,-2.918115269787891,-3.098642885060764,-2.221319028249397,-2.610624767237006,2.843636669260209
2.772294496509419,-1.142365213005812,-0.46729082904463826,-2.306263665934993,5.235830697775182,-12.925979546087834
8.055305988323074,-6.750277171477595,5.892375409815095,-1.1220684135929897,0.3520686144177527,-0.46973464510836216
-3.4300182471856058,-5.784170944057486,1.7278531755747926,-0.40591028635799553,3.3488186359210457,0.29421794233177323
-0.13826360882311883,3.5059025627815266,-3.6238020902170396,-0.46168250868505734,1.6638517213736639,-2.838839905407634
5.470012095157598,0.8527091885644378,2.1594477309238043,-5.753145383394509,-2.0797599605799584,0.9009173173732632
-2.252926117326952,1.8203287099705294,-1.1724229478367496,-6.653612763997005,-2.434704170942357,6.09814559784677
0.4859868771694752,-0.6975642751521796,6.480426814178949,0.042581537509016165,-1.2338613637206188,0.08514083334820266
1.1225135805074355,-1.4007681334493545,2.8568278963291025,3.8293115124767683,-4.81000125302385,1.2880099922731207
-1.2092925718560368,0.8119371900194636,0.8918503259607728,4.657432585571006,-0.04358146110179206,3.1159115817576755
-6.062233687448063,1.222496182822968,-0.24484457788498565,5.317191681046584,-2.1161901446473887,7.644298358251745
8.139548576550865,2.122432360215692,-4.691371327479344,3.6955940351587047,-3.265727908645381,-0.5413624446147178
-4.132590428852331,5.36419118790473,-4.522104083867081,0.9225146051402637,0.19270094614878586,-7.192676936683853
10.410770987474343,6.844661051837974,-0.2694047746250694,1.0961664423721849,0.19082470268298213,-4.356849414142299
0.39187508830639717,1.123168986505364,2.314604091712896,1.964915510635807,-2.3454362514066514,0.2925704344266764
-1.1854855964511597,-1.001191283237218,0.6513281459222607,2.912381105530252,-0.012534870558726707,-2.4013755243366948
6.091826917293697,5.215686545071111,-6.733119001749242,-2.18563423498962,0.6183629488055057,-0.99234690275736
5.625080612717642,0.9331947896959252,-3.7967541555576396,-0.5061503909621354,-3.3447853602275286,4.17288819019317
1.1081556153721164,2.867266198780877,0.9827054294431212,-0.971864281506253,-1.2515897530994884,3.280396222259677
1.7945824120323783,-2.737115072558086,1.9207579320726724,-0.7442230148705091,-0.17357812102118397,-0.15512259928226957
5.653527410941734,-1.1855685258485011,-2.2673696996629706,-1.3455018937674779,-0.050804806708857786,0.4472914593224323
4.605174805281362,-6.4592746799197425,0.4140303891442918,-0.3997413315255973,-0.7672418346399121,8.497907475231754
3.594272589257293,-4.830174398251964,1.8675462868555048,0.47203895069064694,-0.4715069705696697,-0.7508932824784056
-8.236465252667296,-5.353358076395608,3.112655938363777,0.5325528220007549,3.593833930297791,0.1124685866218873
4.056981707436152,-3.081162921303715,2.6140405770114192,-1.2552660099480026,-2.060519104251919,0.2988174745108676
0.2692517364110074,-5.7007167127432465,3.7981848258668793,-1.620295516200921,-1.6088784164968892,-0.8382432416631667
-2.796309,-5.816336499999999,3.968102,1.3289999999999993,0.8699999999999989,-0.4730000000000001
0.3477274648560984,-1.8109197846926741,0.9239151357061957,-3.6664525699778343,1.9201458941088265,-1.6860921840426988
3.824135403037733,-6.784927198111667,0.18297583296322273,-2.3168481101401888,-0.03219405505824735,1.1052881855946426
-0.481022447557538,-2.354566511919583,2.558546900836294,-3.829076004448643,0.08402068021461373,3.583775272303139
-2.3664810152289064,-3.411912953699666,4.056692926447717,-0.7349498331167912,0.5615397172106773,-0.05792871450892462
0.740391600923195,-4.3764673154241605,3.7803096807688794,-2.9936203768699143,0.2618116853482413,-1.3330852681176908
11.005290763309619,-0.9538298068662163,-0.9050070569607964,-1.4847290397030795,-4.765990558003423,2.7546229329363667
2.5632371002120706,0.222010561033386,-0.8113003863201991,0.9205513129466519,0.9661269186766912,-0.8187047040678133
-5.023279534799303,-2.577906117740566,1.579749874365804,1.2539424730248632,0.17753764775877356,2.106586125490386
-0.40144563246559994,-3.2151171764045046,2.3585680178961272,-0.8376541675587714,1.7800393206356344,0.9271635432931266
-1.8407809395813999,-1.1900018932552658,2.569897327416758,-0.26180089310724997,-1.0211665977549313,-1.0660650761367099
-4.2453570711173265,-0.7261461430541729,0.5830633992768228,0.4722999290517541,3.985694864538821,0.6541562017115352
-2.084757385851197,1.5199110909373417,0.9547025780939498,0.17220084860440155,1.6998714083410016,-0.8270618443704765
2.6324885200625587,1.1023431583255956,-1.8316378824826813,4.520900269595553,0.10430056631261575,-2.1454736339291642
2.5752724547577266,1.0275682296773567,-0.5765555624034437,1.7615169215654163,-1.4451688131798868,-0.021995596200888423
-3.890030647876698,0.6416665993200574,0.021709027197680086,1.3585111234608274,-0.4883978733853307,1.3277202984198848
-3.017139426180988,0.3682213995952619,0.6988911279452392,1.8019689007353084,2.394405467990774,-0.8950659452192622
10.237448070900902,4.224083551625675,-0.8800781175800918,-1.1390813680605247,-1.8004504423620085,-1.9844787352793651
2.225151440231045,4.067317171456203,-1.0575758940050743,1.283454688476199,0.7509593469062565,-1.7891717561648832
3.4879050927765407,-0.04336190372055215,-0.8697917755186567,1.6798264770451956,-1.1831024143977216,0.3128912298642834
-1.2150039049525374,-3.921696359028218,-0.2368128203299944,2.5803374063623226,1.6549216480392812,0.8052318171154452
1.3441347609331553,-0.3327186332507921,1.3430980546913525,1.0917122189035633,-0.017191052985302546,-1.542292095495417
-3.431712469595202,1.1869248330882742,1.1912149392744025,-0.15001467237635902,1.0287397506584202,3.165370445686756
0.3266583853106402,-0.1974252788787636,0.9613894467292394,-1.2339332072659213,0.306136358174388,0.7484944837216512
1.158137083133366,-1.1597412094953854,0.9258203247993652,-0.04523257867150843,-0.3381606741727661,-0.4531721121560079
3.2943945605185463,-3.2946236653429066,-0.7710808354595515,1.8918618947073238,0.33990553439899784,-1.0806187485899261
-1.540579331824427,-3.894402141495915,0.7366149109033462,0.08789515330979208,-0.2003113612889839,2.037314703331975
-2.2274121179164346,-3.6468970817700774,0.5339750736860515,-0.671892263673307,-0.12088875880969452,0.6008199024047862
4.550295769079847,-0.5954450300106983,0.259454775547207,-2.3868931064430123,0.2738398350803275,-0.41897393957350637
-1.648825476803263,-1.4578893424591681,0.31377808878344315,-0.8094098904338113,0.5335015823580298,0.42919665711314103
4.862046262083927,-1.5221441073265247,-0.16930413046597242,-1.0372336400446496,0.5549091750554727,-0.952259853731737
-1.56913450018626,-3.4822233520704917,1.2544552083475176,0.9708056087340788,0.018127799600113195,0.726335488991692
0.5772963593300795,-3.2544598033682175,1.0091853808340852,-0.867799456945306,0.938443685785197,0.037215837878090796
-1.6224656750751252,-0.9698058734825596,1.0360907725605613,-1.9834311764138255,-0.9502459567166328,2.573261503878583
-0.45194886117543964,-3.0561472795996387,2.349067363393412,-1.8528474404809152,-0.3637170129971089,1.0328880129613935
0.3259561652783976,-0.8022993726106601,1.856860492415932,-1.8814721980901923,-0.27493237378360935,1.8751430304953094
1.352391185135381,-3.153942412869057,-0.16002436668076836,1.1689299791156034,1.3426509304172485,-1.1089096564310472
1.627580961079155,-3.576665401989988,-0.42926879540261664,-0.7295779877927125,-0.9433063182479355,0.22056319431802163
1.6371949112298974,-0.6674897739250358,0.37703203348644054,0.6020955441194933,-2.8122990194774564,1.4927535281813127
0.2693157386281997,-2.2439667503462264,2.6327133386379575,0.17181687796351372,0.7617412177451142,1.304095119575046
-1.1559009224383203,-1.2015267759782957,0.940310373652566,0.5702498447324622,-0.4309129184099507,1.4283418394813312
-0.20856066071457624,-0.08968776352890728,0.8683189303007618,-1.0202288615671258,2.7970684038201177,0.4342330387403557
-1.430994634261586,-0.8783833916747266,0.451219278231078,0.7587702921397917,0.8936274574516814,-0.2009399966621427
0.00538941267546178,-1.6811349910573248,0.9708600470410621,1.171417545216611,1.1065117562604656,0.60180775073128
2.829904310220992,2.1079378258832726,0.6763140792821718,0.8283029836713511,-2.343227923309394,0.7690082726631882
