Gx,Gy,Gz,Ax,Ay,Az
-9.521963999999997,-9.731878000000002,0.4093380000000017,-15.387999999999996,-426.17799999999994,10.999999999999996
1.4909532884920202,2.139236571423253,-1.180777470614962,-0.2524097289033787,-0.2714697960791935,-0.8986943948078165
0.9509625981351293,-6.477825215081031,-1.8719509228118534,0.6220145083793408,-0.8901025488794476,-0.13750637022906262
-1.2031827766443732,8.896246654000407,6.828315533252974,1.0277475540030572,-1.2523575300416894,-0.34489124596237974
-2.0294865598458465,22.87944916663792,5.766363570194117,2.8607766371430863,-1.2113282431741468,1.6070676394610743
1.9414004594325434,-21.228954143586098,-2.3400560979011304,-1.7401649672182025,-1.261683997159481,-1.589292548329496
-1.6396528426270587,7.288834239405807,0.32074192236170695,1.7692791138658717,-0.7444423281519267,0.07955445307640566
-6.368246173305398,-10.309021678810023,-1.7700370311834739,2.9067187693346894,-3.9906755595685617,-0.16850222690382266
-2.217946568502899,0.628607909356778,-3.393295695408369,1.1184777245977662,-4.900008589781894,-0.23184970237962454
19.0081905952432,23.142822413817946,7.268065180054063,4.314239797327163,72.69766937771254,-32.59472527290425
3.6135113663615757,-7.791213529317978,-5.045942046238608,1.2853667240962838,0.650136713367599,0.6783622484166563
-0.6942193392792673,-21.742721967056024,-5.645251687236335,4.030874466554621,-0.16185547776102793,2.0849726522425494
-3.7116280351036908,-13.062457326214602,-16.043919715758435,1.8987507802206094,3.3181295555126566,2.135726806106044
-6.202482062030206,-3.5554741109103247,-48.08074367230948,14.656015832792441,6.6904837273531825,0.8985838949321847
6.8201726416911574,26.68776142373669,38.04026299348849,-21.113534324800078,-1.4814342380806436,-3.1275516386958895
3.1662510357408187,1.9037027471482104,11.960381576941954,-7.362292441880594,5.237163210064933,-0.4607864598505397
1.8800848584946972,0.3386740876523948,10.59510245321666,-2.3462572389636365,-5.265873992123543,-3.5116493392088715
-0.03172678119795652,-2.540181595972892,2.7151420230458068,-3.072108724421493,-2.1962488182839404,-0.5632779906325531
20.539193288563506,9.784132788004863,3.151808340299003,11.053222936240584,5.565002995636102,36.93360938377798
1.6807317574810556,-0.24430427461878867,6.012626504319595,-2.3424732392127443,-3.197248147096123,0.15577633234092214
-0.4819797831310234,1.5179123591766799,0.6994227106283366,-1.4035718206283665,-0.7561208450762036,-3.316499106796491
-0.06034059589799512,1.705713891648411,6.45306554288666,-3.3965253239290836,0.5603449058436117,-1.4103306856111828
7.658072502282566,-10.667431043184116,15.152602952565992,-2.2176318838871474,-1.882033243401863,-0.037278110376982476
-6.06960933178379,23.79803903506422,-4.62920562033045,7.897257218672637,0.26545304231644057,0.8409470655657487
-3.59251829374879,7.347115043907234,1.167892303665183,-6.557956563186812,-0.7322014487719517,0.35947512700792583
-0.0716920974035091,-3.8322307807326443,-2.4271813416756953,1.837410518468621,0.916177246830276,0.7820781705744985
-1.378100201878044,7.2911528234470016,1.1451721009341802,4.1485799515165205,0.5371417846096114,0.44051925375607626
3.72715906612976,-13.759711968540085,0.11942095969758959,-14.508358195477872,-22.656772923945773,-14.332339897965358
-2.703715226938225,3.7067681935029175,1.340908154681702,-1.218214905288305,1.533669963607327,-2.057254187291727
-1.0152369374580594,5.195389084053815,0.5738623635528405,-1.068548037521885,-0.43933244137029026,1.3377574993917685
-2.5660267021511323,6.781807104047666,1.5744715479882223,-0.2768750423066171,3.132995297093301,0.5250874916348487
-1.2909081329588412,16.04716115450794,1.4151275763233706,-7.30019794336547,2.619443621309657,-1.48715773651291
0.5969541573665946,-20.887438671961668,-3.106091710184766,-0.870378428257709,-3.276433610808505,0.4889513214793531
1.0295091604422373,-9.524772250514983,1.0107441493455942,1.6541438743207197,2.067554588993428,-0.2811733269615856
-3.9112416641752477,-1.1489902412920785,-1.8407451447944227,0.4554205275235444,-1.4823283357484902,-0.49440414449506254
0.10933754855734124,-3.3409465022073745,0.44718000665154506,-2.791658261916143,-2.4616774673267448,1.2080472321559759
7.095909202036626,-6.06948632460698,-0.9595471699898795,-1.888954440070555,13.725918113138505,10.619673088214464
1.3120001776608197,-2.2286593077201715,0.19463647460865208,-0.40647955073977876,-3.8410289209541024,2.6300496052908855
0.51648786693763,-3.5238632641601626,-0.8211073471222561,0.28117366533421606,0.6824767542453156,0.06578139055710253
-0.5447335749030786,-2.4122090784585826,0.34809681951575494,-1.9602586810824658,-1.6055784861954348,1.4013791220600693
0.9706456063172986,-10.253136319164597,2.539035643522198,-1.4237449848761954,-0.2477146737809624,1.9417114909452695
0.15828423568051453,5.5033106205093825,1.585729348324079,0.8936725843891805,2.0332461597567177,-0.277340439505821
-1.0071107977911102,4.95677498798309,1.2010581340592326,-0.12207404757103002,-0.9527048342158184,-0.3950514160777483
1.9910482647612424,0.6005414582738509,1.2876199551416971,0.131083975342673,-0.5393386184964916,1.22650048708453
-0.7267834491603073,0.8795915665332772,0.34389643921820456,-0.4313753538750099,0.8358229657946393,0.05667530803374667
5.172095013156622,-1.3077669951202828,3.1216876899965227,-0.09663459603416857,-11.331559571499273,-5.245282935402061
0.9577802753358131,2.686964446201304,2.0735645353832437,1.012450590872499,-0.49032209903425844,-0.46495786186663135
0.4499506814435058,-0.15107727244560665,2.3131475943973365,-3.0635234290757896,1.7618209129881506,-1.76940982966976
0.3952334262466782,1.8204143403094166,2.783251162040308,0.5682599410375972,1.612271923564538,-2.803617787276532
1.5657254431647205,4.528078157714083,6.0750543917264,-1.8504392969625985,-0.9669228494123084,-3.837401591801065
0.2620164349789106,-3.9466724334225387,-4.755049340091626,0.7408492672666764,-0.5415424640767965,1.959428140444756
0.6298072743207412,-3.9846617454124105,-2.9763284731103687,1.8902843603805928,-1.094654754852398,0.39895135073531096
-2.311296152091679,-0.17805675406383917,-1.7457185444834897,1.2582014641870343,-1.5368280702797144,-0.05123815251361566
0.6214665256885662,-0.6153942207032006,0.8390915390656024,-0.30727327102586743,-0.9750425204938838,0.2537901720085749
-1.951718213788459,-2.015110844848426,-6.990576075136696,2.6563555850886194,9.454237855043699,-1.7203207369397449
-0.1145069338169803,-2.533411420563138,0.13753502146435181,-0.41216500598361844,-0.3044238716375405,1.835395416209322
-2.5343646844167047,-1.6661744516967765,1.507404063392919,0.5759073888032789,-2.552192746725425,1.6929889631794288
-0.5820970724149493,-2.847770967869673,1.4742777542690715,0.4416592329381741,-1.1320626205254813,2.481769945679173
-0.499365485385559,-6.23410439748641,-1.0521921764416355,1.7035335576071424,0.9975721543626741,3.3754475453933575
0.2247862305790666,0.18847641936150994,-0.06501140460238841,-1.2790919247667092,-1.1576348484368868,-1.6241139414429353
-2.8379167346397765,0.7871573031773809,-2.8127291542145514,1.144118029754948,0.8071546213897448,-1.6614436091146798
0.668469586217182,-1.484723870722809,1.3159564731380402,-1.2608551746297878,0.48393428699059204,1.2124776664891164
-0.4378828671792716,-3.442334763082609,0.6625872503684015,-0.610244402988864,-0.2716737541505335,0.7215150725093586
-0.4845938417319562,2.688097290663113,3.9260617090686534,-1.7324143367433624,-0.3953905781567142,-1.2974244468265272
-0.4191237888191478,1.7066205782518713,-0.5248368580758831,0.6410850463053777,0.2255930920379896,-1.304555182142543
5.734616778572351,0.277653274468073,-0.7237730521183504,0.6316009467899523,0.14453861468620843,0.43746673350436693
0.4528346731344822,0.9460567553425909,-3.1623985179453857,1.1873961276904443,-0.541934397864463,-1.6317149033797598
1.7743493573026152,2.9805836599380187,-3.3240068758500625,1.193546567571443,-1.8338007243229377,-5.220256529499707
1.3539295661698678,-0.17909901612858933,3.7930609086211953,-0.6319177396331227,0.8194853445964145,1.738884001171629
2.2904358559144002,-1.1777323679917775,2.1801887146446504,-2.04708712759902,0.6876380405369773,1.71744870302206
-0.05964701718171761,-0.8966140750919531,-0.03324884826770614,0.1675872833036473,1.3619455051937484,-1.6433514485523708
2.134658508765742,-0.1025916500065146,-0.3060685682792531,0.5074143487052918,0.16057662855110694,-0.9174449284583162
-3.6119645791732484,-2.9450877923314427,3.2342078213172183,-0.3620038424089587,-3.5776999301277357,5.3818710625351125
-0.8654881679041831,-2.257608220462237,1.2689220087839765,-1.0473378212706101,-1.3397572761102106,3.6820922880496654
-2.627315948016883,-0.7837301041230718,-0.494034739365675,-0.33970965385712604,1.3333757640720154,-2.3648954811814193
-0.2501698667279631,-1.4279791933463453,1.9989379233218392,-0.7748785825122722,0.5127775289041594,0.7021311089530089
-4.730463591468561,-1.5284219262563816,1.0619202131888617,-0.7262778331853279,1.9095280091702245,5.079880273341499
-2.237572456572596,-2.947803680164591,0.9500070683213038,-0.10798929556275266,-0.9513862333751026,-1.3097789857763062
-3.2622560509699547,-2.281426386633856,0.5625535009151679,-0.22657998588338935,-0.38927731387518344,-1.6666974827979417
-0.7303332548606466,-0.512602197809661,0.390954680422466,-0.17191697892855745,-1.5587798954673788,2.433674217305063
-2.080857613872309,-1.1257152742622913,1.0310042989465527,-0.28185535153024754,-0.2646851910908942,0.9644658946510469
10.16291764792954,0.14121298296686902,-2.591687318736714,0.32078164627495487,1.9553228836016363,-3.682550488886951
2.666972616895384,-0.675228184545668,-0.6172034882923588,0.32413537063336806,0.5093111276194118,-2.5094170926853363
0.10778706142102246,-0.9456828054647421,0.8044504405255476,0.7300237450901569,-1.7350728209239055,2.0764696338513353
-0.08875712017337557,-1.8023698442533642,-0.4661993418890641,-0.16149916631092562,-1.032733106213433,-0.24678967206151758
7.920492237075667,-0.12004871027964908,-0.5302632368276928,1.0109773760148606,-0.8406785170581307,-5.0172041240552305
0.4398118399678178,1.4439049808469717,-0.8912379329205795,-0.07959348272781774,-0.580137841961669,1.1636673528615273
2.362341238162232,0.6383612367196179,-0.09468303344479387,0.7103296536447616,-0.7679248668328108,2.4640216851436847
2.483411923570211,-0.822105326949216,-0.17780689283602713,-0.2992207019318775,0.3556246904157477,-1.784167933521788
2.727403080161651,-1.245461200087184,-0.3421472228733898,0.10303115687659906,-0.3722520433076824,-1.2216018368636197
-8.039778431181794,0.6915043458030365,2.005574326949624,0.6668044655319733,0.3853994632868264,-0.07094195706677886
-4.638023342167353,-2.522940943139073,1.055197202127135,-0.6312106497266956,-0.8534181364653732,1.890590748654213
-0.9897319882030814,-1.741357966003179,-0.4386306506918368,-1.400793984801672,1.3977886180207144,-1.6266850529794874
0.45773791019249865,-1.3431998538408958,0.4688138949613865,-0.14705756865426978,0.19760522770194222,0.39192410814449397
-7.97182968304473,-1.4958388628864032,1.1937304878998254,-1.1681825178523009,0.0996023688053857,2.5492889949658295
0.8061379260189433,-0.6569977450085387,1.0805984428684305,0.43961936875207064,0.7122313377275024,0.025844573434215007
-1.7932742457159123,-0.04268201904771278,0.1621517051714787,-0.05083642343981418,1.3403919897351966,-2.1634855522552585
-2.8265416443701725,-1.095096388614614,0.561374984953404,-0.025639605743200778,0.3686760947445135,1.0082417472652718
-3.3020570770758804,-0.903013626884086,0.39022066015547546,-0.21007516772286633,0.708216879694483,0.7682390700624363
3.5733458725052127,-1.9108054609087812,-0.7347343283660333,-1.1249001134498702,-1.3765298435882514,1.300626280154685
4.189514918304442,-0.3202745290611121,-0.25307275453111167,0.22993157506867662,-0.06661793296078455,-0.6423742789594977
1.9746460863329993,0.7641577108368675,1.203611078822487,0.933178965895442,-1.8409725121874072,1.9159326334960465
-0.9239156263846904,0.7862665460323319,0.3839032919875254,0.8992797457761519,0.0025469058022963877,0.09896710807978118
5.328414326984861,0.14303946232205983,0.5320434600131263,1.315352379268572,-0.8965271494551075,-0.1740085728441203
0.46589874249177576,-0.8861564139307452,0.31548017221025426,-0.843428536498583,-1.0158245515062938,-0.5453629666055196
0.39050524037311973,-1.0099701661261837,-0.09169910059352437,-0.43839341477600235,-0.985077969652258,1.9812772979574425
2.375080995213823,-2.3991550645337245,-0.05045237049141006,-0.4023208343640743,-0.3431115331442255,-0.7688094603614963
