Gx,Gy,Gz,Ax,Ay,Az
-21.114905,-10.056807999999998,-7.346667,-5.491999999999999,-581.5319999999999,2.322
-8.622656627312194,3.326787723496442,1.2871340964134148,-1.442244933992503,-2.5542228365330635,1.8508918742169236
-10.785041532169474,-12.17514330591653,2.6286401035984155,1.0456608581687106,-2.9862754449805795,1.6260722161426926
-1.4556626187694763,-1.111093099379904,7.648882973867286,-0.7454904544066021,-3.016192374958541,-0.7708082475986326
0.341241514417872,-2.795786610664851,2.5462872848087446,-2.2048514861699187,-2.748265832538223,1.8729718204190955
-3.0539064471242963,-0.1359230079725976,1.2902726259965125,-2.8489561899521427,-2.5875135026622935,1.104981211770549
2.9668235316890903,12.132590503633564,0.8090416948764074,3.6859697361460917,-4.399880411782855,-1.6862997199901164
-7.340981719613962,21.008025953065136,2.411468742500372,2.633746627823678,-5.271627831991529,-0.2205475687585845
2.0163159790920315,16.10651913857308,-2.968742293172113,0.9832716011215603,-7.5194887246817945,1.2933438583747565
-0.49941854328833163,3.994714626489729,-3.0722203586492483,3.881055270090658,-7.963324896289955,3.2482242007615785
17.810555199308396,1.5374515915582043,-1.1334793745452114,1.1802015973724367,-6.117008300020605,5.887921688741077
-10.989066246362798,0.9306257951244379,-6.648930049573234,-5.597706155140475,38.48183439809584,-46.2923789039857
7.653850691784698,8.237030991799774,-7.216625518974906,3.6216579865432017,12.627254162770164,1.6808893012530617
4.0774118022223265,-0.9986421335410282,-6.745003852945485,2.707871534836511,-2.414048666913802,-2.8781671510455595
-2.8780435366956074,-19.332611023735854,-6.028657406240138,-1.95812766996242,0.20960535727372243,-4.237103248065551
-1.459778999632513,-17.801644460116677,-15.561127080733916,4.8308082112074535,-3.2222101926099236,-3.6490105002460016
4.471820138566788,43.3623529598398,-29.573742887442904,19.807366721424255,-6.124806584343325,0.20889011332311974
-8.450651147731726,-28.999960495712486,15.957880853752696,-15.163343669770754,1.3158839333821908,-4.95307931081803
-1.331204763496347,0.09070406172891898,8.163456185335251,-1.993460786984922,-1.6394207086583525,-2.8292001560339526
-0.6099383931679577,0.5157797864489506,-4.485240494243962,-2.8277161872887735,-1.126481736041769,-6.19542069686902
-2.6447283792989773,1.2162384447597228,1.3042334526699175,-4.134086218921136,-0.5368897720947865,-9.025360884351057
-2.7307618840821437,-5.288831500315883,5.024504998591018,-4.989994752430466,-2.474289994329415,-0.013338511581518109
12.28891600399247,-3.2881445035468575,1.6237341622309225,0.16646992590204587,10.582678021865151,16.337121057624945
3.1033408481276004,3.946081093056339,0.8161297476248155,0.5978616614220116,1.9319945639602354,11.233903139974796
3.9222029123381423,-4.374644962663115,-0.6351733097727832,1.8300481461355886,-0.3244737532507329,1.398745704287494
-0.13855105744446133,-5.536360266483242,1.8869719534948564,-1.8144703655536016,1.3548059269870945,-0.9951527843684553
-1.2784038717542472,-18.60187539644017,6.427582814917485,-4.744181947850235,2.7848718938661507,-1.5280128592007602
-5.594000545011148,-48.28033564831689,-2.133406116094544,-14.162480039895888,4.220032461716238,-2.2476118891815964
3.636998793629903,19.12150874406878,7.456416711097156,7.589173748713614,-0.6507672369182346,4.215468794366038
2.959533355331952,0.9406654802672803,-5.051535212470016,-1.3435876109848255,4.625820055625348,3.864407093532634
2.201666948077507,0.42908227782489483,-1.6451184757673507,-5.105209141483549,3.9427728557874597,4.117295283551338
4.082926111721057,3.600133026000551,0.7663140205729089,4.795059830393791,1.6781098336644655,6.059668617040689
1.6925154630145771,5.455288398259704,0.27351453100092715,2.9990037513767036,-2.14790271349492,-3.690721437427592
-11.465004883156057,-14.506425714955821,3.278077495891766,-5.077442965113646,5.911020790213876,3.1402694850874626
-1.8218517075018292,4.2387888286485,-3.347020917741035,1.6568550750367843,-3.427116255766445,-6.947158863423624
2.648339872663244,-4.358837032413267,-0.3820361203393029,-1.4737208769696926,-1.960447142197073,-0.31791668403411494
-0.9972575663385138,1.758373608759873,-2.879063475622978,-0.9989200233586263,1.1749679726538802,0.7714020265278658
-0.8371916631506031,10.463433760737143,1.406996618333923,6.714348238367551,-1.6946551801914072,1.2154592112710108
-0.8458998755125413,11.4555569033185,6.7747419009212155,9.927082649930941,-2.2170738544504673,0.758546466899229
-4.539276413330427,4.0398021926475645,-1.7194835606526748,-3.789791439520842,3.066096983693533,-1.045718085293227
1.2648783505291967,-7.493162657808177,1.53046615348322,-3.4438661843024607,-2.2959315725909626,0.8264762787036034
1.3886564701087099,-1.1920537893367338,3.9566349152808598,0.2589632761294576,-3.372706351209821,1.916744030516552
-2.1748539934013906,-1.992213344875736,-0.22992812659737755,-0.9938413997897841,-2.061117922062186,1.6286048702694234
-1.2613173942585276,-0.6402766673995204,-1.4011023866868928,0.7578893520208166,3.388689287024862,1.0572128159081218
1.1905468660562821,2.0869640569805683,-2.438034964898081,-1.3721560249031168,-8.230853152425397,-0.40606739326211927
1.18751398929046,5.254023758595386,2.4592060191584113,5.0045087969445134,4.4492747112716495,-1.7848394220200494
-0.15428273597171827,1.270363933668893,3.5707841083501526,0.11465518833379473,-1.0274965193471823,0.9499128562815841
-0.7948764604814145,2.9878753334703214,-0.7150783345855185,1.303181438678382,0.15069483067988476,0.05274078963952822
-0.8083857907307974,-3.8242125720763323,-5.547608081826279,1.7205755604888604,2.22938657667646,-2.0521754959564853
1.140850799204871,5.654576310445467,3.268024569737391,1.1988808433356026,0.37936765965626784,-0.47743066537271994
-0.9457009954706662,-9.309821465233394,-5.44371372540711,-0.6347308629989037,1.9476885109498285,0.6417734844033236
0.56399417197107,-0.9982674723975098,-0.3585298230511147,-1.1767405164169848,-2.3455598796727046,0.2896840963579894
1.6460293915109152,3.3217606179282586,-0.3139199638425434,1.5564181533832064,0.002931337641827403,-0.342094653523818
-1.9446126683491003,1.550157061822355,-1.2252050401962138,0.9879873251555291,-3.905455284004023,-0.23528782763174896
0.12818537780028683,-1.9576695443042063,-0.029650163495657855,-0.49462980646305776,-4.220974066010791,-0.5688197812239517
1.0632535871127091,3.964539613268448,0.8642509141689052,1.0936871029937447,5.607636887409951,-0.7292571401282446
0.6170869902952475,-1.4850471013706747,-0.16669637674058715,-2.8321067721033653,-1.3034297257047154,-0.020558292477395268
0.3904040711913388,0.14704532765764577,-0.6948920336359448,-1.3095271718354866,-4.070790464603249,0.033535853504878865
-0.1016409881872744,0.8109258045273942,0.24981786452989307,1.1946805755964427,3.62918552224783,-0.32087734307819504
-0.1092790495001208,-0.17541164472239512,0.3063434349759744,0.4996212055450502,0.3584819524421712,0.02933918050739348
0.46693991411705404,0.32210798030959076,-2.628332987589938,-1.7675092130888679,-2.3270741469897254,0.045227874123602074
-0.051092091620143165,-0.2769381014479464,2.4544977732298383,0.4858980586884618,-1.0119416788920392,1.564977874440737
1.1260062737157384,-1.1077578864088444,0.8995045468838252,-1.4575497056025764,-0.49673323786664714,-0.7850809504874684
0.9320773753804498,-0.6270122704764387,-1.3240801510410158,0.7034181719901469,5.723717794025102,-1.136136604638593
1.1306442418148146,-1.7914506390594727,1.8122842893782032,0.49224117008495116,10.025443904675573,-0.7813182402453072
0.8539611588446749,1.9940821779482185,0.12193694697395552,0.07918603698521082,-0.08702911891370113,0.5712347265841764
0.5032720093913969,-2.580361779960812,1.1903533329168219,-0.41519470480844006,7.109252703654688,-1.148386794883228
-1.5705543632926076,-1.1921000482163087,-1.2505876295548946,-0.2326718885253869,-7.243394960255449,0.30508589035939276
1.4480541349202243,0.13842673684180484,-1.0893031890284481,0.5742923316913255,5.642033936274183,0.49300051924114463
0.33581135806888696,0.20554550909200625,0.8926408106937131,-1.552569501930056,-1.4631555260467928,-0.3637426220282034
-0.3017166487482198,-0.2591868540571016,0.4158067971532531,0.1108602800414713,1.6042713707123097,-0.8819565042594036
-0.017076129465798395,-2.8728235392649903,-0.356354104496047,0.8255149090219414,3.332148980783261,1.1215965416146683
0.1393285453403137,-2.1171092427651246,-0.9342802739253546,1.6296326638178442,3.320641089501684,-1.24853128798264
0.02881937585214156,0.4792966360973576,0.44087371568569633,-1.30401594228433,1.2621285157452002,0.6273618346376886
-2.4829347634886494,-2.2317221764219397,-2.0794815120498917,0.8076307526835098,-2.2216784007455432,-0.02501826566837062
-1.52299145677464,-1.9465967146568246,-0.5032225869832692,1.2167015892168236,-4.30793008360783,-3.432316449000233
-0.2960588843438914,0.2889754295779623,0.9650815372317401,-0.37339527149931784,-0.38996807479108675,-0.2941967325188414
-1.9994902326873838,-1.6551289989928604,-1.6964066558568627,-0.18447382658462486,-7.26420427171659,-0.8875151541535153
-0.546733700142358,0.367166943766269,0.4010504049649557,0.3754450634857579,5.338993904399087,0.9443727541063045
-0.7207648983873491,-4.435283368410745,-0.8134401276911847,2.21616046457839,0.8703484921773645,-2.2823445204870714
-1.882920721908937,-2.071052377948787,-2.0231071940295093,0.8016698533111212,-1.6892392414694575,0.6815399971117526
-0.49596890936341875,1.9433988111886649,2.0321290238668364,-0.1306649982328949,-2.3320960196747285,-0.40513274523826615
-1.567334268648243,0.04414275279599078,-0.6367147413260843,0.8887626974258587,1.069554637087201,-1.549947095725631
0.909581612110854,3.1333391690562578,3.5905424258569036,-1.093150969961505,-2.4381208252921907,-1.796087867109522
0.006296533532412912,-1.0486376913328352,0.5005439655097168,0.11891089342769834,-0.16029098677126075,0.814761552212017
-2.220044057670748,0.2706266671602271,1.325530461023876,0.3157193516774875,-0.6047534592787578,1.007181901213311
-2.988091935465173,1.7736512932937218,0.0931267277629515,0.08675439989238742,-2.0273062721354806,2.77851355499532
1.9447339691422876,-1.1735819511032612,-0.18918356039435213,-0.5772978890444731,1.250537020504475,0.5784320411835117
-3.7918353894901804,2.080210703123873,-0.13187026810960334,0.5937316545520608,-1.5925119769930376,3.7587693557065576
1.896017480293223,1.17158448340356,2.2325514334135415,0.7992073146060379,0.665792375283982,-0.9714576957606805
-3.6181825564478984,3.8154186386377322,1.9924446685220816,1.5175007223228127,-2.5087027319885236,-0.22537966306712232
-0.2195250155221693,1.0161624048201412,1.9093794571748472,0.07345821993956607,0.6851565985174689,1.5004680434071178
1.4111002585360397,-0.7180878037654856,-0.739150458100337,-0.525253279396845,0.8451491400391142,1.4380131261287916
-1.2652304157471521,1.6914177743438248,2.3758855588521213,0.4193620002797533,-2.459487688797284,0.11877661820753682
-1.8433178666119567,-3.924562461897695,-2.539252177507933,-1.2072214037709772,-1.188857489089267,2.580970344351707
-0.6524851094270689,-2.547505721516674,-1.57084689308256,0.5426343833385623,-1.0568343982943507,-1.0343886352176588
3.192094913702973,0.43542891369679193,1.6396654120237868,-0.2265281155238309,1.7867548135010314,-0.7317760444892132
1.2142021788845117,-0.4196429011499494,0.9972247494774267,-0.0748634625396869,0.738824239328649,0.9300998722819269
-2.2088401752988718,-0.315354840909973,0.09716082729317194,0.7141719142229954,0.42700274122691884,-2.4156956748030325
5.752832554524389,-2.4363898802180444,0.954518978175563,-0.7369538161505547,2.2092454290700902,0.18472463551401774
0.42505200436327983,-2.1548833659460116,-0.4382932246705916,-1.651920311276728,0.37994427615230353,-1.473386970107154
-2.484506551390877,-0.8415392348704331,0.02707553512546479,-1.609687429908099,-1.0764662507957794,3.692872166999654
2.401732266687621,0.3987196425585262,0.36348462344137467,-0.2440361044613521,0.03317448387952493,-0.1306041969909163
0.32306110279890554,-4.432805698585573,-0.8556612448601881,-1.288617492961468,0.6926942184450098,-2.362932149123669
1.9360092052866578,0.5403619769193768,0.7256500017469975,-0.2286246804430998,1.3922444060495711,0.3280058776777652
1.1762489589457816,-1.4776800797351712,-0.38920414781287527,-0.22571585659578747,0.770076147102748,0.47776115467414043
-0.15353133418023207,3.6643818587494645,2.2170036277562493,0.8479279769618975,-0.5480450475833156,1.3241039253211548
0.2507033571728189,-1.2048229216683333,-0.5509160114533252,-0.4412776634284583,0.5675634784172341,-0.41335831290959263
1.615108341133598,-3.4134496342454117,-0.17642978744304533,-0.7953638634870412,0.7592745167548545,-2.2860163991880613
-2.408955367691114,0.7075792230964166,0.2624465973621023,0.011540904492854151,-2.4007943257759945,2.093249256431427
1.7186730303079534,0.4239835302435666,0.8587737342213786,0.7093173704459803,0.9241028680758303,-2.3613657109397783
-2.4617403560141122,1.0839121346675014,-0.43935500063252075,0.9917978339290708,-2.5743372386038326,1.141210247908538
5.138986422416022,-3.486158778662816,-1.1772448744339246,-0.3770754867663605,2.056100352820393,-0.7432631345366862
0.5771001122008611,-2.4932734822307356,-1.0912239856642005,-0.2895630500940577,0.7629660316223692,-2.3058197309196173
-2.374796858518506,1.5146740227289155,0.8032990487746181,1.0813966719825976,-1.0116573325393168,1.6922568094043058
-1.4213913488451535,-3.294766861822101,-0.9752499571700379,-0.8550290190662135,0.7725264967289253,0.1509696551764207
1.881535896889868,0.7742001689906917,1.0514620069546003,0.7956889401066705,1.0278779323617682,-3.60340823413658
1.529033927291272,-1.9655366607196783,0.7547357343243641,-0.8655487684817393,3.019619628677189,-2.129987249861219
-2.0233583956670227,-2.06471320646095,-0.7981480088676074,-0.3150550860163339,-1.6539985220715185,0.8034864950178815
-2.76437139609063,0.5519519754837455,0.029876975162256736,0.9084124521068365,0.39598089713680196,-0.2061509597879994
3.8445255880594136,-0.5193204688003321,-0.8212847089274475,-0.8316540468336604,0.8995701099579618,1.6085977903189899
-4.273019389828727,-0.9840677655779357,-1.0116494076823497,-0.9245928945119984,-1.270703314177759,0.6883813578211511
0.4647989443915215,-0.28871110850962856,0.8202524546991874,-0.5521313841191555,1.132021837285543,0.8141777335220565
-0.40364832472219403,2.1896884576382734,1.167507701167802,0.8205428598864843,1.1559889131715106,-2.7819219915221143
-4.005052466412691,0.9962968702867077,0.4681775420401184,-0.21301713154419655,-1.018965233521243,1.399780196498704
0.5748622882699645,2.073857397896008,1.5040738662974542,0.06628806045243318,0.8973742739273015,-0.20903476638112836
-0.38801475048571915,0.5719971514002005,0.2508428326905898,0.03926316405224273,-0.8392141665472885,0.4096494608553336
-4.886991841576539,0.060814659601498455,0.4266809742381723,-0.5810514521562038,-1.1361024098721044,1.7924123033991126
-2.9946021773448708,-1.3536100290131894,-1.9229327613193696,-0.01212057416543999,-1.9206914642371715,1.702397830040248
-0.07328086231763165,0.40878325807242133,0.9981467691910063,0.7504146025244595,-0.08923308527187418,0.16238427905941372
-1.1279078054808724,0.5969712782165101,0.4996925773081138,-0.582965264116162,-0.6709327032985299,1.105526127885721
0.1359632279458961,-1.3672690435634582,1.013624297891879,0.3194162069494264,1.273089676068951,-2.888973585922558
0.7629749109149309,0.2842414124107254,0.16444692101390057,0.5862215253973428,-0.015823156360930568,0.45347541520270007
2.7041015212462587,-0.7418982356595955,0.32197470385602844,0.12410732753524747,0.819746125018374,-1.0978678036981553
-5.3798606545007654,-0.4369903013301063,-0.16946918005012046,-0.7163815970603036,-1.747533134926036,1.4279699342058358
0.23890353266594833,-1.1795901422574115,0.036476877375857364,-0.21368394789325607,-0.13583644802678552,1.1663050576705707
0.34395571875263964,-3.0681777582572907,-0.7116510855606438,-1.2055597733277597,0.34150800367129497,-0.8904997970518818
0.4646813816084041,-0.5671829443209947,0.5631749082651176,0.08028685035376071,0.2935311893284661,-0.6147364404461569
0.2886973442932099,-0.272099352757627,0.2971312934145446,-0.36763001847201177,0.2700658152097531,1.1266569936482864
1.4570345508806555,0.2368626130848065,0.6044523766674587,0.09126869057834694,0.04990957192332324,-0.11664761318805283
0.611414255729664,-0.9263624772876118,0.598498095231703,-0.3746828119224473,1.4786581843062139,-1.056036074616599
2.334038037811909,-1.1501511605155803,-0.7325955588190438,-0.6642406221360364,0.2025806708651796,0.8435798409094036
-3.872685182631084,-0.013445302365076739,0.024005583223169646,-0.13193939486662037,-0.7402006675883215,0.6635001400527295
