Gx,Gy,Gz,Ax,Ay,Az
2.352800999999998,11.198805999999994,-3.848278999999998,34.275999999999996,-560.8960000000001,-25.956000000000003
1.276453895803647,11.340930088807736,-2.6888526788362745,2.3679000280827873,2.0605965298004993,-1.7052060983651478
8.316458830694701,18.970060314209515,-3.962855090614889,2.0745599973328686,1.932000797850298,-3.438284219642965
6.013867720079981,17.777416089888156,2.2321406312004735,4.24968288566669,3.346322017728877,-1.140445249258602
6.66547329028789,45.54226500325286,-6.497475752027086,1.9815942141351437,3.1369901204017143,1.0224313644017917
2.9400586451496924,164.69628789836597,1.369911438641349,6.353164635789744,6.771607733096026,1.8679918775429634
23.764110071971235,-64.26939507308622,-11.68715186788195,0.49551507850500975,4.556526175858096,0.641519015158938
19.983616275480237,-6.145604323956649,-8.794086679069196,-2.2884137133465554,4.388682914243629,0.7765373266097457
19.056432589729233,-15.594775091974974,-5.584647960143199,-1.1932169685142782,6.496629290395038,0.6553710949076015
24.825352549288752,-38.44813495957475,-7.40260740348414,-3.9717946170877285,16.116466910405634,5.170750157799974
51.467878679012095,2.942701936458892,-3.747794771989194,1.5039993185816662,33.88962003189536,7.998088593118101
-57.17416262625694,8.910339915399987,-3.9694514791555644,1.9285700724202481,-28.035723480504814,-12.107086539607039
-18.220781883987538,-10.441431191615752,-10.96576310532549,-1.3810011485584501,-3.337494359397308,-3.68849803217007
1.7176557975350306,7.8697214561309305,-12.223276271904608,-0.3196971914632035,-3.0540194702387122,4.475394260093161
-6.09131365308869,-2.170559070914983,-15.32810922217173,3.03519526100644,2.776501763949028,-0.6142156943640376
4.843574345099764,11.300847979434607,-10.272622744331342,2.810480206211797,-0.9963755017802436,1.4067601907490082
-17.811182136609304,21.888861189253536,47.632582973527306,-6.299178526054097,-1.54711405938194,-5.365493797666613
-7.784589731620159,-16.80030607875979,-0.399301858600011,-0.704847061279102,3.9619698043799088,-1.076699299701815
0.017238459959798114,-24.55921644765821,6.394869089928106,-3.790739373245533,-2.218453153752507,-2.3623406813604535
2.83248537276717,-0.3888027866961936,-3.9133993039517696,-4.658205775354106,-1.9747832211869774,-1.1349974650215002
-2.3771950517795846,-3.1031182905455172,7.918257106843152,-2.130612339735257,-7.088020967215906,0.623276860361522
14.782409847314819,22.489267197848445,4.211925784656037,-1.527468383507462,-30.772861224632607,14.907712995108934
-2.752149345356462,-0.23194726069222327,-1.3254732838425123,5.978012709541719,5.58056060731551,-5.19937901613911
-1.6193273701063515,-10.556800980756881,-4.187921945734084,-0.821186620161461,3.162923018478784,-3.1128499356440837
5.705276123987666,-4.256280267458392,-3.0947521304762837,3.505070298539366,-1.188535442299731,3.402856652179704
-0.3393790572278321,-38.71358626529408,-1.3058308907483507,-5.462171241471742,-1.824268754887514,0.9465437916443622
-4.867466815811893,-60.02147487497441,2.3543884318587116,-12.056409598931511,6.802880816765965,-0.24793394661861923
0.0308757960343522,64.34306772701483,0.2172401285389547,24.156659005451825,-0.616109571129881,-0.19444601151520935
-0.41590084209902023,8.97486310978231,-1.5969138477074494,1.478084606595928,-0.12468466397400313,0.19431690139975222
-0.17945795799826458,7.269097827451869,5.846846314642323,0.6547776604443687,2.314630797908682,-5.60919812647049
-9.155629923601309,-4.177598638832549,-2.827208631105105,0.3893569701271238,-0.8015066389013743,-7.7471151971314
-5.891446796698019,-10.40635801739828,-0.5285190985603755,-0.44845124480516185,0.4938869882903205,-8.380671570655634
9.303900591045643,9.706477959711098,0.8179820668266666,3.863816693435793,-0.9035854870498916,12.973678274263266
0.16194828534238992,-2.334225693745851,-1.5025773573220347,9.16081586314704,-5.598969902997213,0.983366822434963
-5.030882902339391,8.056976825956774,-5.409471252079135,5.543184340205025,0.2820875809671753,-3.6074545809770933
0.6812510581819111,10.909754342979362,0.7336994079768924,5.609344546602411,-2.0813659750269657,1.4573768263411857
-0.40471491493262524,-15.653805569263698,-1.7941648107403907,-6.466214526865728,-3.456973587584905,2.3327485758696103
9.635853030535664,9.332548581473135,3.722573396532219,-5.452644464293816,4.758496493593789,0.2791930803689282
-4.700449359933609,1.9494909947022863,0.7758269489454808,1.8468864379320127,-2.215451424556484,0.6032931198469218
4.170194824813474,0.3398140542688124,-0.7773556729640959,-1.1298686477129767,1.3155379127963052,3.6098746006555658
2.8344946390623877,2.195294049702636,3.7641062302958277,1.4704993647628393,0.12226590958305117,0.3630610794415121
-4.298900281682798,5.534615045673515,1.020693570478859,-2.0460123783941753,0.9679034762041043,-4.284989754428475
-6.163562573404284,6.857509308607739,-3.5044323443651577,-0.3496306054597045,4.0888233109716285,-12.237519429679075
8.34292161461579,0.19511668103685587,6.149082682473698,6.660286028697348,-0.8316599312404565,8.945905229313276
0.22663027632114052,-8.552887870726662,1.8369234726314545,-3.2575249518580733,-1.0283720834669747,2.2673944559527306
-6.372498501482761,-4.264384186317393,-3.3248066731147206,-6.511889444965288,4.35279562068807,-4.445629815810493
-1.2124402057260895,0.44107681154897227,-3.7193291593218443,-3.297404238310561,-0.6283473418467544,-2.914885790641004
-2.959117753729318,-1.2392396114211102,-7.349250513065764,-9.600996860927943,1.8886556969388333,1.7234801724959927
-2.6198981000790442,-9.455510146724572,11.671221991880959,-0.18212956463374308,0.588261211379697,0.25049891469496977
-2.1242110487434003,-1.820402737042667,-2.5800680600586268,0.6635300045255494,-3.1130990282145805,0.5054439812229548
5.833964416730762,3.1359805868574373,1.4886167603229077,3.2172943876993405,-3.8732811261954767,3.868967677333443
4.482558505095659,-1.0567331941068527,-1.261988818908041,2.6879769773529056,-10.42499851236652,1.3271155428575054
2.9082948368965367,-2.1494529296540517,4.205542464146722,4.439305549685744,-11.176972544396055,4.936151114814937
-3.0946816203488305,3.76138185473827,-3.274102936583047,0.13781620634366587,13.411364936096302,-5.7300201624153715
3.737803684171606,-0.16760098077017815,2.760228962068125,4.579175183329618,-6.492465226953518,2.0509286548206815
2.2831641140222008,2.1616130894601993,1.2114989942257859,1.1004330462708038,-1.4607941045544435,0.7268129503373102
-3.3513389814369914,-0.14082268362530878,0.5438593283864206,-1.1081873279108274,0.3504671499001901,-0.2801110897982525
1.2450511669732882,-2.901764081763604,-1.4684992357603792,2.862519979796584,5.959292437422668,-2.4349744247953646
2.013078817405729,1.9482141503681323,-8.074160931827594,-3.6363722425351743,12.113803273182691,1.2188341712810473
-3.7651300806738126,2.1493590829523823,6.53337279161884,-0.11406485836515323,0.8111612945271389,-3.8583907536191373
-1.8068861722416196,-0.976314073728584,-1.3240357885879828,1.0878785634322132,2.7959450983752276,-1.6340085512627238
-1.1853186931839828,-2.137975337443909,1.7394642754979333,0.015387196157059524,-0.8389493464654312,1.7181082236850531
0.6065726476699926,0.20593537102762427,-2.8837102181796177,-1.500345290992525,2.1034345684223874,2.3078011566566894
4.09034861039815,-4.922277493640459,0.9019753173496994,-3.1279738665338037,-3.0170478193248833,6.708462156909274
-3.9185491800135637,3.7937526813761795,-1.7475016412167497,2.8141306647912225,-0.9302235582136564,-5.228890132449516
-1.0106037231045508,-2.934010743316273,1.892664557456699,-0.17401564854188822,-5.021686664121754,2.2309673962471623
1.8257102194471824,-2.9932624523970475,0.22436083154907482,-1.3678822817762555,-2.036301974691106,-2.304713955927823
-2.7266711653453672,0.196525439070955,5.373188802048883,-1.2926159381748028,-1.1665317973798186,1.6453011683354213
-1.1309499012508226,-6.4165081252582965,5.3297505047218205,-0.9985696115218906,-3.4025614261791866,-0.36660240021422563
4.730606875099133,-1.1155590491587062,-7.417941892613409,-1.1815957759257891,1.7078670165204686,1.0028224117036004
1.2155024228103606,0.28401521436298194,0.9416030217687248,2.110014140684553,2.792844525332754,-2.754210362133671
-0.17572678350943927,1.0565750607724265,0.15091392190612107,-0.9716868556602084,0.3024628290464517,-1.501009298095717
-3.860879151638855,-4.108767599033475,0.6773412378675643,1.2458820590674557,-1.2361934355372934,-3.324161348202791
2.4658289663644797,5.601880172406863,-1.6689835558797905,1.1884437211734893,0.5630626106210115,-2.8437355632672867
7.425681164287134,-4.042617735610626,0.2447227572290005,0.02995139196815244,3.2010112809491913,5.965649674119443
-2.1955986846384024,3.0706782104580026,-1.9009408698985983,-0.0038942031666265864,-4.326095471928877,-1.9339080833987685
-1.7900704132706993,-4.210261746373264,-0.16493985241800946,-1.032897999048088,-2.317897815540123,2.3754255436070184
2.639034479882963,0.8218995075469782,-3.626965226486796,1.0711640864653784,0.19864315507067465,-1.5155933833687574
-1.379159447345613,4.860151244251986,-2.7343678170698094,1.339835753230645,2.7943234336840677,0.8127418000186357
-4.536460432896034,-1.5665316548032315,3.2560790576206067,1.5401065889751484,0.957721350292946,3.442430597360239
2.7634622209688557,-6.529878536908728,0.5086724641681655,-3.1451720643942007,-0.5366969162284407,-0.5339263550118102
0.8774223368654726,-2.522566038157319,1.4568084952566438,1.0396934274619685,1.5446521084357125,-0.41973746750465657
1.398621444097259,1.9258531606590392,-0.40933416520444443,0.11918586968897504,0.9257725891034158,2.290403921391544
-4.743882044738774,-1.841301190844537,1.360687265484907,-0.9255101087042115,1.2898605135344674,-0.6384679868963219
-1.8150380974151057,-2.5959979012153935,0.978432862644713,0.29203865896375025,-1.6689824957278017,-3.2115885117537735
9.284450433420314,4.855961697885428,-3.4238782236429754,1.7586708355266083,1.1819517841643807,-0.3456869268935391
-1.265406491257525,0.9580070855266827,1.7346860968984525,-1.0259207325683155,-1.4461302890517689,0.17483480604230528
-1.8498985491065674,-3.1006469837066857,2.4064389712395506,-1.458678613233606,-1.9243476202656353,-0.2503240162945298
3.4306044740470276,1.0104976741290654,-0.06455904429282588,0.016813501010004006,-2.6093691098124197,-0.6987911473537921
1.6176367036341157,0.4734931291862994,-0.4418684050166173,0.9016217849363277,-1.066604720695258,-3.0998571952006957
-2.813792544281532,4.831564173914339,-4.250044460670044,1.0445695807080384,-0.3892733186130478,4.105819023931394
1.2781670463120962,-1.445796331908146,0.4076641890971575,-0.04279468658324381,1.8419319772024507,-0.7654539197963608
0.9978190756404843,-1.9234523908582306,-0.11492938155069177,-0.18173126334547873,-0.24885567064223046,-1.4978523732129312
1.8025197976860388,1.8752309162494403,0.6824820241453985,0.10127970963177613,0.21812091805465306,0.4530075948533117
-1.772399404931999,-3.702166291014071,-1.5584788638886824,0.4994686320412753,1.0925241894423456,2.8677075454139387
-4.31374517874365,-7.767775256772913,2.0296285685063,0.8711678634415263,-0.3979728154912683,0.5144015176293144
3.631107296034726,0.9239735727180856,-2.202848998315851,-0.7810400364258565,1.5118702900689698,-1.125096086339905
0.01302486956390414,-0.9691503912922537,0.5875644476613504,0.5946605018702077,-0.2017299645081257,1.4589929152907017
1.5768699129238204,1.3991143329113558,-0.4363803286445389,0.5984215495477988,-0.3088739661795764,-0.5243593676437348
-0.8285445978057342,-3.797950109679892,1.2200872436356733,-0.2948286048817409,-0.32820504330214073,-0.3116173107291714
0.37197895067393183,-1.8651455575410576,2.1635693371925355,-0.8763974878388603,-0.11273380393217902,-3.9492038926325024
0.7203028038537518,2.270207712304353,-2.161433855528291,-0.10178060778146014,-1.9679005577924917,2.6072840428835296
0.2865742335672641,1.397761793508331,-0.084250732397149,1.5419574672793424,0.3944822094068246,0.18063974366422944
-0.42806048291943233,1.090765772791424,-0.1579534823233945,-0.1503659713336058,-0.7134861831265102,0.9512432846270487
-0.2178102173228682,0.9926734815119738,1.0203082231640555,0.3996221100526175,1.4936281574715657,-1.1923925610160226
0.9340698438486489,-0.22887283696209937,-1.675485087435038,-0.3857583950786607,0.33607892788632976,0.11936206167403429
-1.7483088478231763,-3.83082822036392,-0.18840576935035114,-0.25297715431886214,-0.7648320462014835,1.3737406331440014
-1.2307421639671778,0.8461381211630843,0.7499887019701099,-0.829255594215698,1.3527002191206772,0.9553176728960803
-0.8042405880918786,-2.237601245838991,0.40934088650344647,-0.22817287266058917,-0.6739744891161377,0.9924668404194412
1.1637070134943428,0.6216975206313251,-1.9161053492593632,0.14423490273115103,1.1844903779566631,1.0200110007095973
2.0141788851261944,0.2505983493922601,-1.8331833090436729,0.30828291421137133,-0.4559065880868488,-0.41460509728043693
-0.445734444273172,-3.0064139415889026,-0.6875878409745023,-0.5526445339748105,0.9036585300871215,-1.726157276286132
0.47084651086923623,0.7495026860457122,0.03571514647871332,0.1658617936361203,0.048530760958164,-0.8005105859050045
0.7040148227239269,-0.7840601229879991,0.6186271758882729,-0.23740834196321736,0.03177898628191489,-0.6031856413691723
-0.11116910524287282,0.4569981772676342,-0.20241159887876958,-0.3049906532596859,-0.8079145051868118,1.9196808674584926
2.1713002195331024,3.31601719379886,0.998809329294597,1.0477561425581272,-0.8785284059487077,-1.1943979749354543
0.6535010698360949,-0.3286808206635077,0.37449753378703465,0.5227249483863933,-0.8965708605719929,-0.9781817324309461
-0.10166370821653992,-2.8072336258045105,-0.7317735935082633,-0.4826790214143105,0.34582275105192345,-0.012062385626953165
-1.989323730540733,0.7954575492268942,0.2616335453788713,-0.33395152059504385,0.6145295743304913,1.6868521542957806
-0.923715352706046,-0.9891251895605486,0.4924129165248935,0.21235635737474168,-0.3874757490621505,0.9303049060644523
-1.5950526219204995,1.2265202384824117,-0.10730194741494437,0.44196473293387034,0.2781556449532707,2.4993594758804107
1.7653827763046661,0.4868165986476287,-0.10399437939276263,0.8160493159063414,-1.1205013126949583,0.5823739690149267
0.7474782305226493,-3.528125156223483,-1.30764759419001,-0.31119400798491664,-0.6019336733449026,0.771555775165625
-2.1182276840682785,-0.5769381419898401,0.22809154970533496,0.45009181903455864,1.1507822772020229,-0.517869610428946
0.5970414848145991,-1.8705619579394979,0.03364485446345267,-0.1680602915981133,0.08619631422417307,-0.7683774140805494
-0.22315635238097575,0.9551694807962988,0.5766124941620611,0.1319382965744087,0.23061964192420914,0.3074182034845932
1.7929435250651875,0.07448208152548941,-0.5143246959272005,-0.016093090760949502,-0.22476311419643052,-0.6007950225817493
3.007629082828232,-0.3245342298332143,-0.3601245381869583,0.6350031906253152,-1.2289116112556842,-2.204361908870718
0.5704950739644057,-2.137530580433892,-1.0990716794375466,-0.4216235168858794,0.13049220565233055,-0.28763467327261866
0.6193842876971545,0.3051286150937953,-0.36716041542585776,0.38812550026374615,-0.04139200223195483,-0.7673963493397227
0.18492850771239489,-0.6587157706614043,0.29983576087202024,0.14795366665007126,0.79524286282343,-0.9594887996507355
-1.2975307597698933,-1.342010836431023,-0.5854133404605408,-0.4449669989987468,0.35259926561647387,0.8333996123833619
-0.17635730754237494,0.17303185466310136,-0.5891732129943597,0.326375418539981,-0.4872059730040901,0.3888903250914961
2.0375688167549955,-2.0788134252099155,-0.09457641971556408,-1.16052305634507,-0.5155204796610366,0.9796711417185836
-1.3247992335983856,0.2034871321002029,-0.25368126785760087,0.31011053326597526,0.012809129957706888,0.8263434678768661
1.4101341111551133,-2.2885819576057487,-0.43600105880944895,-0.17041396203611459,-0.6706943594918979,0.7210686854778392
-2.5159282518272184,-0.6535220777999922,0.597772515508348,0.40589523915266684,-0.09695707735106263,1.5121627148632077
