Gx,Gy,Gz,Ax,Ay,Az
-1.990451000000001,-11.531822,0.4947939999999975,-31.194,-353.8999999999999,40.34800000000001
3.7619348586911716,-0.7482301961418796,-4.6657010412273445,-1.9324824699501628,0.729876610793637,-3.306275581278906
14.643728155619536,-7.668335703806833,-0.40048380825495444,-0.8163689772515372,1.0185898356620215,-1.4577738726323812
19.14809841161225,9.02661280392263,-14.93984015823927,-5.575051918725227,2.080201135777866,-0.8168776955807856
-26.149945507158428,-33.32394475587918,35.1762895753513,9.118481145577125,-0.010578969762276902,-0.05369386328639958
2.485429261691467,-5.564120444402145,7.028787807626886,4.9623451943145405,2.9089608513750056,-3.391319532685668
-6.580172604176755,18.88117063015121,11.47366610832978,0.39169051006792444,13.714391633672747,-4.126012838123954
32.28443242028034,-9.544369053422512,21.136941792285448,5.446072931003544,82.16723647760745,-19.870842204134245
-0.3328022272141098,-1.1972152093324198,17.272931039084085,-1.6466572588893946,-18.352985946307292,1.1875156597348246
2.385889064924653,-10.502823637501109,20.400900952299686,-2.2151228408150505,-4.207858312489604,3.3122965732900926
5.165600743809548,16.848370648110784,9.225638151680645,0.34454013797594774,-3.0547255681034136,3.668039702632431
-4.247359259916424,-46.17913434628327,-46.76179592165904,-14.366635800601614,4.07602511525694,-1.3635047867267118
-4.835904985020125,-1.4735455389274055,-11.457425463369486,4.140851931604251,-1.252842344630368,4.277589457200362
0.14209646418824828,-14.736920449792864,-4.512182136034049,-1.3581284867363523,4.5103014589919335,4.864560944707769
-9.495825216178511,-7.974313402872973,-6.866377787332665,-3.1815916700128724,6.273266363296617,2.4369507364020198
14.075464419202593,8.666053391590433,-0.12410242741931121,8.901945366198582,-10.358488231606911,1.0565642653562803
-3.050855425980596,10.45587205925082,1.6906363854006816,5.2499905330541505,-3.865871544103986,-6.467545285269572
-11.13212663307549,8.172806932769179,-6.518718718056213,7.005023784163377,-1.7838235596884076,-2.845302045409518
-5.8113092889377285,15.193273463246577,-7.269556231821428,5.550882245179345,-4.7318242538145014,1.2829109850080114
8.66223627646433,7.515947533829783,-5.6986101274731755,2.856703656659201,-4.208159647106164,-3.1979979637638927
14.583124573077423,16.873309695048004,5.239039504655981,10.54819159419884,-5.057448915086613,-2.8401612498647046
2.0488383531129193,1.2362528750338981,-0.15163399278916848,-2.674361815809719,2.828030406450045,3.4526645181589273
6.26870384912803,-15.462250541231331,-3.407463852517169,-11.14197788286115,-6.23834572844093,-5.493117235518888
-1.1554411342953002,-8.379890593866948,-5.52846767517491,-4.171756542298709,6.240691473381196,5.865681043654125
0.3929857682975153,-4.92275587705128,-6.205760269999399,-3.7051969832772604,0.2523871575635095,5.7145507160021145
-0.20557164122715615,-5.1965487505413455,-11.60229412448296,1.598006432547386,0.01914412431835455,3.006828966385094
-10.684794925927893,-6.484784681604922,-1.095934378608299,-6.470528293237762,5.97694768056774,4.188130909824236
-12.951738340932554,-0.8551549558556449,-4.089506024030695,1.7126684291771384,-0.27812965238973897,4.7743534251673925
0.8329320777688283,7.304106485724371,0.9581733764276805,5.974852292891207,-2.5016685119556543,-3.201803911941531
-16.451344219032542,6.12840567295286,0.7289263064657026,7.789754846211739,17.968500350890647,3.466811418856691
21.12581712147385,10.727269928944914,7.411448691771538,3.6226839572936385,-9.739988154540534,-9.19286228207121
11.922559364828412,5.062080863170655,7.219526992853972,-0.05755971575160812,-2.2311225150125846,-4.549188548442001
-5.566399331191812,5.440598543925815,2.796035452362502,4.217632618890518,0.4049717033259095,-0.8103281342623572
19.20944685489408,1.841699507544424,-1.6432323875960588,0.599762565110354,-1.8792596233235432,-2.4168813927012036
-2.5213304798886487,-1.7691377598494902,-4.869088895815273,-8.09448877630976,1.2175408552239615,1.62432109025951
-9.925928413761497,-2.2763432843484797,1.0381682721791439,-2.7576645443012096,-4.279014689306138,6.6808997927217
16.111717018484953,-3.026022179048027,-7.5674773264273405,-4.661306757180425,-14.107353502474998,-0.18132372846009126
-35.25731245799428,-3.4948917423753354,-5.470033461086031,-1.9158014045956893,5.556047566058547,9.855884027029141
-6.717463125338932,0.18890372590141535,-3.8060321196695357,1.4949947809596722,4.283725146519844,0.26669140688607507
3.9826317289442486,-0.9608259075628229,1.441036193682517,-2.419525735824058,-3.363513374332037,-1.355847948198468
-7.941856854876502,2.558271569782783,-2.1724751961407183,-4.139823045609869,2.062830259415311,1.4091732025999855
13.277062261411304,3.0395865912890185,5.386150226624567,7.014353982865575,-1.9895699477657116,-2.5903661028625162
8.657634657850455,-1.4006578221721742,-1.640055146447314,2.360274149400501,3.969922866661621,-3.914516372570863
-8.72666685030647,1.7446890644972526,3.5105495616872897,2.900211944211246,3.6488557721589467,1.3262406218792053
30.36024905908727,0.4717738603487307,2.97838129208727,3.186873236671888,0.5512854278100835,-5.771381863009359
1.246103173542345,0.24966488960709893,-0.42091826468050664,-1.7988066881088334,-7.861419762955233,2.510852455371827
-1.711345286418871,0.2688027062766734,-2.4013481246541684,3.1657393819903255,-0.4219316686633616,1.6636594740779111
5.780375872726605,-4.165693265525699,-0.5899122608789962,2.575046480229494,-5.659176977228556,-3.140784024984777
-18.165011464944904,5.261595434331426,-5.100917257643472,-4.848818176188286,1.275667680663254,4.381813366166115
-4.834955759992257,5.341905437476786,-0.25730999138203936,-0.31293605203081665,-0.6170627384271246,2.3885949536043345
3.7693348062554284,1.0935477202621675,-0.8650090193603583,-2.6245712854224954,-1.9016701474896445,0.9116921548758212
-22.70476414683037,2.8859540425887973,-1.7151052196040002,-2.476861934497545,-2.7203543771171903,2.5530776994624063
4.711242475891371,-0.5910157677889001,1.2186858992954024,2.4918610617920116,6.46098605311059,-3.5978058595489903
3.8304786848254375,2.661551181591633,1.384847488220727,-1.1096856272812055,0.30878257946434107,-0.3036468507817107
0.6879003877311967,3.5318897436844563,2.5904868654371622,0.6052495340149893,1.2389877506492493,2.522196397617455
15.11854741379975,-4.869462787671579,0.7460275767017847,3.801251490385836,-3.1259744419887454,-5.2999365685787785
1.8061300053101317,-1.8622403136067374,-0.9177444105934964,0.5954779037828812,-3.4224691879869527,-0.19114899822256293
-2.3158523558815407,1.2151273390236086,0.09967698817837756,2.094570079566994,1.7241423102984643,0.18094790291119023
6.567468045364865,1.4765956429347566,0.16757073069940132,0.7477805125050119,-2.1256195825173307,0.7059055572733292
-5.403572999999999,3.850899500000001,-1.2436989999999994,-1.541000000000001,-0.13099999999999867,2.6750000000000003
-2.190218619009657,-0.44303612785611746,-1.4731706797477866,0.2432043895269711,2.2365740626605213,-0.13390238147123723
0.5816431290939064,1.7165275218571006,-0.711801803357002,-1.4974953633102899,1.3707656070648724,-0.8610590245339772
-7.034841588860283,5.055978736149436,-0.7023714542429323,-0.14045920501154996,1.8508341367565024,4.25263262203189
0.9673232834508636,2.162993527657966,0.31661472478867225,1.2533298538296422,2.6982664695963945,-0.5850442046147357
6.504637035025473,0.10379096351561856,0.05632861224973473,-1.0124487865107499,-2.851184581110985,0.05962316297320713
-2.982729413160661,1.115958096083581,0.699813733015541,1.3909160418632311,2.0280333096308087,-0.021754789794435236
3.507432380054574,-1.265162139331884,0.5678019326849422,1.0042255193346028,-5.793875671595162,0.6292046328326926
-0.11236920203837508,1.0242593396169344,-0.5127291306808122,2.109174248981491,-4.727637982837019,0.057985770570442324
-1.062397390720685,-0.4435014866938624,0.12114847113912847,0.3305696980451922,-1.825078143918332,0.3246535719149532
2.9071705157488763,-1.1494834197417512,-0.5736472334154603,1.8850574865586205,0.27680760931429704,-1.5560448884783242
-0.913096742044496,2.1679492003661647,-0.7163480445023158,-1.099339560542755,-2.749336097788527,0.7259846689589398
-5.763407878262978,2.0709744301375874,-0.4124429285988227,0.21605510119053195,1.012909644080936,-0.022521116429993437
4.4901938146225575,1.7346822604240422,-0.700900902632057,-1.032707232112518,-0.32114045485614184,0.22837528741580737
-2.455041135649798,2.3077726118155666,-0.07228441609604663,-0.7674607490319499,4.335616398985712,-0.8018414322490623
4.667783304028856,-0.41668753454583374,0.34325275091407315,-1.638447886371019,4.7698341259980594,1.7618557627375897
2.587088689455403,0.6510045660460262,-0.8009359189918442,0.9743623785197052,-0.07941880244843576,0.3494681191251615
-1.4579951224803605,1.1026729485533657,0.324149890599612,-1.7630379827697196,-0.95125583073403,1.1172200419491483
2.443811356286839,0.837674202908967,-1.0303481619210666,3.0599443492281897,2.1553075915457995,0.25440331513114867
3.5499314469206293,0.9451791372142724,0.07800998871892695,1.390324591053375,-2.7071904565123788,0.8239825376014971
-5.011108416315608,1.0255694920662564,0.01012944883531508,1.3660090864592118,-2.485844015781577,-0.7730197150509969
3.865091445010121,1.3188776532120206,0.05519533075544017,0.6578779422798273,-3.008410402315057,1.267750265925298
-6.929869491363592,1.7792500175216999,-0.6972582332811211,0.9448531308556378,-5.051281790545713,-1.8403416726802726
-1.8206257511006017,0.6407953887707216,0.20946969581605002,-0.72927412213876,0.38706448533258975,0.03471833500025878
2.2417653726996436,-0.24822122863348728,-0.16934779950563866,1.1861197864252004,1.6136800948588959,0.004776087991269051
-1.6039066429271682,0.5300034993378193,0.8608027890924492,-3.2939055060699314,-2.713489213570911,0.23008010722980465
0.7639013880944169,-0.12394589775845954,-0.6716876969367709,-0.8471014126853653,3.1813456822727777,-0.8194997445454608
6.066115093834949,0.06047176232946566,-0.015458103247702193,0.287130027395877,2.348781267576317,2.1176357666004773
-2.0849091808817457,0.2769766695138822,-0.1137568552784205,0.4079493367549671,-0.17398403572584842,-0.786239989553268
