Gx,Gy,Gz,Ax,Ay,Az
-18.971637000000005,-13.099039,-6.380986999999999,-26.322000000000003,-492.14,63.275999999999996
-4.269025669033524,4.950075998291528,-4.698445628680563,-0.7907836303013891,0.030907189126807122,-2.2315311211559536
-4.548109316358898,-3.818592193739723,-2.075226710967889,-0.38628292932863867,-0.02372469793703802,0.07144607546196369
-1.729821892038116,2.9470307619753338,2.327840563431516,-0.8300622734955828,0.27194840376291984,0.00771513129482182
0.16220324639472938,11.447711658410032,1.8430349789734237,-1.3627956354806323,0.20872208430526618,-1.3154019744557652
-35.79216348327226,-45.36018700397915,42.59682262633915,-4.890096815122144,-0.14611403919943455,1.745302871482921
0.7696709589251878,-6.161394124056413,-4.695255381731417,0.18927795747826703,-0.4985681413170091,-4.162440345349022
1.118023147427074,-3.62652853609379,1.5302033394942458,0.9115603287230007,0.7461411305390522,-2.01475598528608
-3.4370763794450525,12.571128123475859,2.988378442296177,0.7267455203861279,2.9445727840005853,-4.525853229256443
1.4373235219889011,-1.6535738238890283,3.5841037958759223,1.7853298610521104,7.828887836639793,-5.492639166999252
13.457038844440355,-2.0438103076744865,13.055586717924978,4.839345301228676,98.33880267444201,-35.0378830040826
0.04043809548486654,-14.069857665363683,1.8979719973264126,-1.4468498473444145,-23.616053187485146,9.928080537367512
3.538143249407324,-10.425900793915337,0.7971871998121282,-4.654049071457321,-4.642067287089047,3.897703453970278
2.6265263535418484,-11.900897972833079,-6.463554822352831,-6.42050618598979,-2.541084582667808,0.683156641485825
6.650096503478452,-15.79318502318259,-10.409530537579858,-1.1980417291776333,-0.5805580198082909,0.5298643731515975
8.201037897286296,-53.820834900275415,-48.44212620311266,-13.365442778988108,-3.079501175775991,1.7462025247715363
-6.530204441800291,24.814608083870855,15.835574485695187,5.940317794893682,1.1689630627113121,1.9287565055506282
-2.5275103426554493,4.530202415998615,0.03575002012495965,0.46447122109979916,0.5124223434264399,3.2355731659362714
-2.398965311244624,-8.320278806620447,-0.47493225759841556,-2.228264690135951,-1.3566875258483728,6.786844175033675
9.531009082394029,2.709200900467813,1.4138340566279062,1.005095047903208,1.3913621211123122,10.568916906440727
28.254083398054604,-7.648539390740172,-0.049898425410383196,-2.085306903302631,6.522084298115651,33.03896345428859
-13.31149886495902,5.826276551895841,-8.06103085262963,2.9155694919479878,-7.012897764801853,-17.72658166996998
-0.4005374711127897,8.277454495382933,2.2069696605431135,5.526279757691416,-2.388690459088262,-3.7463926662344194
-0.9432255288824428,20.956917970287726,-2.989014993828027,10.064734610523466,-1.4607565289617395,1.8418748553301865
-3.2584437258420333,12.460471411769515,-7.276985473355115,5.897108725935647,-4.722855207697623,0.39607682194772287
-20.70559414211549,30.784967321605492,-6.419676402262793,20.462702739069954,3.478578012091451,4.11751194255859
9.679054976420904,-26.67528159655798,4.7639050170037285,-19.35601718398374,-5.729772134823351,-7.9950141008357365
6.146832431469731,-0.8503136848992114,-0.4116562584512671,-3.6280434671852912,-7.842208941909044,-5.79036376036862
3.7733545278504237,3.85687471567097,-1.0440377852643126,0.02604507682694257,-8.67153974343681,-4.306939676053119
3.2383727992650035,-5.633177436083997,-0.22197398993864154,-2.9790890590690218,-12.341343974590176,-8.918851015984316
14.499016380028383,-8.310453794836471,3.480244286403892,-0.5229139187748796,-31.248124751073114,-19.288487539798883
-8.861024068579304,8.271179709990697,2.7624307028360393,0.308597505750991,25.749602582272324,14.17960842010544
0.2732660245895687,-1.9883683000194972,-2.272200398345875,-3.4047181421885924,3.9455733582899,-0.7306337757282801
0.4121751990779857,-9.050126713948394,-1.6681450739021453,-8.193154365787121,-1.9797834438197668,-3.0279565926685374
5.090304366129976,-7.748348430871509,4.548203632077899,-3.8041996343806903,0.9628577647138941,-1.2920755676055529
7.532269150249195,-8.601969154061061,-1.9393129060000245,-13.08541884910929,-1.0203067979445726,-0.34558293745586227
-15.046268923959055,12.960772935135182,3.67543305431022,14.924372961134864,6.282923622109713,3.3011554124901514
-2.986000710052557,-2.5252027387182308,1.0682405579533447,2.3297944912437583,2.158424633657486,-0.14293402623561619
-0.8509660712786475,5.3740655592704005,0.9436530593470265,2.537496348817628,5.653315783867638,1.5860467414579644
-1.8422008684772315,1.9786675773212006,-0.26359648170648764,1.1496172530356668,6.7050458488696805,-0.14177183470732668
-9.091035801004239,3.395962124942418,-4.497372734164274,-5.372124917639803,15.842902518126069,-0.373399310307132
-8.207418894306436,2.285410794088796,1.5054513400469771,2.4963877862964408,-18.854232029308605,1.0620202586938874
0.11048035563793723,1.8692978608045907,3.541744785055225,2.7330460852462286,-1.0680983325886748,1.5273335480354424
-2.9767749384292834,8.401397642809386,6.1726365628726345,5.090109572789425,0.2660813089036298,0.4211709361692315
-6.814262305331134,-1.5844350127334863,0.9252405800177279,3.222116860145829,-0.08907998183958887,-0.9646820808014143
-2.9859726921352525,2.753259660332418,4.689958266450317,14.15267372145812,0.18257805825914997,-2.2775434957838674
9.153773773904302,-5.641762976021962,-8.159579634778,-13.957081612519373,0.9499008645081606,6.747568655579727
-1.1680464787787617,1.9224667890214766,-1.0528680909010253,-3.851801220335944,-1.5137837772089517,0.19758241185754732
0.026433455529392746,-0.6704609227664691,1.7825605473049826,0.9497414530259132,-6.874924220090584,0.41177081069460164
-0.1448886414936834,-0.515341742373288,-0.27490094249070784,3.584838120762321,-2.148319573577367,4.724097394354796
6.011781996271173,-1.1619639154903147,1.5630945650639707,5.896037800417523,-7.287701584751913,5.594573258058648
-1.9535505605423542,3.7229431120681395,-5.369114472311045,-9.812259168529412,17.70587207668749,-4.311232352270164
-5.800096849311782,-0.8614025594764478,-1.9909537030591775,-5.269781224715898,2.4904233720903566,0.14292919673800708
-0.9264251522827043,-4.824140449845862,-2.8493634600827953,-5.970369296794684,-0.5932869808715644,2.425013138882709
-3.427738781901969,4.948958949809246,-2.259892663588084,-4.153733761006968,0.7706880103053348,0.32850603971275305
-2.819535059826856,4.499324697660205,-2.301951545090942,-6.923058354389009,-0.5589791401729199,2.3985498606836653
4.948320771963774,-2.614216333479729,9.416943777215952,12.3361144360033,-5.871362474872946,-11.158434588724235
-3.8869408912548167,-0.6845664745320774,-2.993637397906525,1.423662232572625,5.709852031927935,0.5728779638653292
-2.6352578330941427,0.3450102710441936,-2.2488745609715624,-4.801116204694869,6.958243498277339,-1.9974718855486113
-5.28652833802783,1.3691545490437096,0.9570846778205497,-4.040530236439493,-0.0897290810051441,-4.80452199560267
-4.601119961077061,0.04690769000881645,2.440280249705358,-2.2690429693063074,2.4653451701663975,-3.168781751776038
24.29279196662896,-9.347291505000802,11.05659276675779,10.277237636352716,-20.291641298857684,10.328663909075402
0.46873655808090275,0.47318568613264134,-2.055266807521666,2.4234109266411723,1.0475024775545232,-1.1695768069331849
0.6893555988024526,-0.497204587194687,2.0590796777098657,1.9190721888245654,2.7983229659422975,-3.969082389768493
5.045366331297364,-5.617562790769535,2.4363464321551844,0.7094954751634466,-1.446015701496936,1.7086472888713162
6.0865921397607625,-4.016002842941791,1.8979013498478459,1.981749432033594,-0.7918239337959284,-0.36392058687107487
-9.166973503846286,3.1847788569823376,-6.071730531304773,-7.714214844773288,7.902103140294587,9.939643045009657
0.12789596403241932,2.2882512352180595,4.865571530151182,1.3862636879840207,-6.309140179193953,1.1920605600871397
0.8152891043528596,-1.2655330156095197,1.4144075059879784,2.8943967077409978,-6.356583299198501,1.6638797979736728
0.489407797417323,0.8851352509330581,-1.4265546591998473,0.6344093977648743,1.7989418768585423,2.7222294210352533
2.0240386921112776,-0.6615093472571583,-3.121485150452592,-0.4883579261751967,-0.5436747033140108,-0.24017447404904502
-13.783680362653698,3.234664904288613,-5.306084207954998,-7.146620330846103,12.023514587555415,-11.436146135716825
2.2866380222948433,1.4705985125749481,4.53621530625821,-1.0271980335779407,-2.7821543745971833,4.045061804013622
-3.286338527429062,1.4485143686421136,-1.3867027908785237,-1.319766632236191,-0.7500502384387162,3.158340064132504
0.024064820601030767,2.5286280240016277,-0.09165404851367587,-0.3850939898091905,2.3737469815989933,-2.4148413735895944
-4.5064417927523195,2.748121374843099,-0.81372785878518,0.4515968106677277,2.0949969949400336,-0.7466312214145223
6.408420180111842,-3.9558806799972412,-0.2320683617025443,5.48358896844978,-0.7285144562177255,-7.665944809843543
4.699523409425636,-2.69986875742772,-0.31121241116559295,-4.335213500534007,2.1964489313171973,0.08151581987059853
-0.20534566994444842,-0.27975245827638123,-0.35711080164529907,-2.449437981576093,3.3105475716583124,-0.4856330932781515
-1.120653925407419,-1.1073586585419761,1.5322549309456583,2.1333502421931128,-1.5521691259714938,-0.3002571033932888
-1.457451800682481,-0.514572990033331,0.9724707832091777,1.945690501446045,2.1773431943820567,0.3868751270713011
6.099119884041956,0.10583017546075468,1.3024349267263846,4.878487337600514,-5.526918310747528,5.308401911544563
1.0348150577230903,-0.0699865255006149,-2.7854539015764983,-0.2207066618226099,0.2704515634748903,-3.2803031405617173
0.7384613244674652,-1.7950270473053629,0.6887130754185542,-0.004764186913558288,-1.8987279875003873,-0.9847733034787738
-0.2854821230262852,-0.8803893047015147,0.05897703933197196,-0.5793438656607366,-2.362189128183024,0.7979068263215137
0.5564410749103659,-0.9712853566941808,0.2683899450387226,-0.675076305713532,-1.9702375493700786,1.2541084999648273
-3.557428984540628,2.7499660537684427,0.8562864684513012,-2.3201753860048093,-0.2215455198434489,5.1380853199621725
-0.4282650554813749,1.5748147076252135,-0.46244357895205,3.948472125741195,0.8937912203854408,-1.820210229836634
1.5798548563777306,1.1184254564727354,0.7067182079762411,0.14991450504494708,-1.7237047498500555,0.6659681605714558
1.7915508453153008,0.08501485909691797,-0.6968695666220919,-1.0254731363520602,-0.13917335546842935,0.7266231045220057
-2.520616884370188,2.294233101786782,0.6714529025889389,-0.959686751632618,-1.400511903420588,0.9074136981146492
-5.827846223285944,0.0123529623466338,-0.14332677487673198,-1.329300765827703,3.704538183752367,-0.9422623028229777
0.3301216439934105,-2.9608196034997047,0.6062312466857532,0.4034875580236208,2.4084826136330664,0.35107373108744555
1.0466373085686789,0.15049739929117667,1.0929990562840635,-1.2890673689192689,0.30661041357350016,0.5618721765696011
-0.11007591920564685,-1.029222637107051,0.7367461469137075,-0.4404505471009452,2.0330825438094466,-0.6785953460189083
1.9680424606031006,-0.3197483761829574,0.8285915301608162,0.31811782506821196,1.0506712839710663,-1.0892715394760377
0.29312117830859163,-0.8629986389736377,0.006573780404770357,-0.19133893033597116,1.6623319543076105,-2.9016460581822123
-0.6247671907119849,-0.5664063489510491,-0.63308299832129,-0.9925823169298109,-2.1556943742450496,0.009805817722429389
-0.06360338381375674,-0.8174485850588449,0.20075850172587972,-0.38243961347997657,0.008753882025021698,-0.3671741286474691
0.866239823098744,-1.0834478615431518,-0.8388443840942468,0.5675850257949434,-0.6614960083245371,-0.28810601255553336
4.107907357253618,-1.933660250569539,-1.136216794953037,0.6758576481601981,-0.16526207985275843,-0.5253013067421048
2.7601191148638096,-0.9186147648423704,-0.4431512723287948,0.8947357859134296,-2.297865982777889,-0.4139327334946851
-3.164658859528203,2.018198439564154,0.6201578654012206,0.17087293939239734,0.8394575676886835,0.4893918299528428
1.8188616893678298,-0.2785106212789694,-0.5976189266870644,0.9609481184135183,-0.2726296225048451,-0.8675060505337089
-0.37010167903821767,0.5229844635998679,-0.42638426339058433,0.8188486937439663,-0.9663548812566525,1.1900958920528484
-0.4658798617668145,1.870657129853175,-0.9085265018276016,-0.005257098227118284,-0.1217831988790612,0.5304453223453119
-2.25352246841277,1.2348487342728522,0.6119474231810336,0.8229482805697979,-0.4682469836506551,2.0151329942124128
-2.2235386297462347,-1.3770955626595613,0.358950539689076,-0.7999647279485442,4.09579171523267,0.42483805866174484
-0.8155433615698856,1.2323858247223456,0.48358705951092684,0.3736636852942441,-0.01906707906727534,-0.18011423059681642
-1.8266762857996026,-0.06304048813902252,1.417204746048394,-0.9077305746572761,-0.9648265682544412,0.06882224356631816
-3.1267035759624378,-0.42220849317002207,0.7687459259605616,-0.727747277498964,0.35791972316216913,0.2777516948691332
-1.976374692039651,-0.19397764061746248,0.2917263076001321,-0.7974581842301063,0.24607707272771684,0.47871733118816095
4.129114565504542,-2.3254502532627686,-1.0116288750436877,-0.2414179540145694,-1.911320719480572,-0.4866439880559388
-1.9733985636827986,-0.26417807455269093,1.0176970222455681,-0.34468425053460616,1.4392032460338307,0.23388014928649037
0.6199601718525143,-1.6146644932486662,0.8179409630251497,-1.035500706835446,0.26447097058165037,-0.4348769487814357
-0.12184073977251764,-0.5908373771309936,0.28960105855799423,0.3107843279607003,0.6470976201905618,-0.22392306449704935
0.5613816302527164,0.4439349838167548,0.1595647715403743,-0.10186574856831987,-0.9209887906341132,-0.23699612687470445
2.3782177273624128,2.0051903238118403,-0.054052767036995686,0.8098919578608426,-2.997952140807715,-0.09455917161149441
0.2251103378885451,-2.289244575261905,-0.771991801725278,-0.012752023105417898,1.0017822224357174,-0.06657908266062429
1.2217586872948667,1.0058657228537369,0.061212265048582015,0.6915115686332571,2.1441740365859197,-0.10812527547395057
2.7451501653493278,0.12170538566218791,0.8314963277491481,0.47282841797939423,-0.11524139615041751,-0.6364985491753714
0.6155133479440389,0.809654310361328,0.615951624062476,0.5748710010077532,1.7821507960320313,0.2740989266535596
