Gx,Gy,Gz,Ax,Ay,Az
10.222554999999996,22.162957999999996,-1.940268999999999,-9.886000000000001,-619.5219999999999,53.211999999999996
3.9558402010390856,17.982827065027724,-0.30060990233974233,0.49922998928094764,-1.1127869548580542,3.6943545546666767
-6.579093232857497,11.075036609780902,1.3438598933432497,2.054732539183089,-1.0473701583091926,6.779205621064515
-5.353548801296999,7.536864421218601,3.727071771990958,7.803143713275244,-1.5088751484884453,5.7066433748696666
-1.9369256708363092,41.504941961205006,-6.422715121024201,0.9600519134327884,-2.568994103623355,1.4459947839512364
1.0440814825266551,46.46215718328265,-1.8014303641211127,3.4371087489160144,-1.3337029495650157,6.913343259316156
-16.34206320541798,-17.452221426170592,-0.35145895250986614,11.417801827878122,-2.0134667263848764,7.012248665946146
5.358287378784739,24.810573670246775,-24.08030897367439,1.172246094006883,0.48631396313945763,8.004789095993539
8.312799485830482,-15.999982245208859,-1.450109331657083,3.0974459901879583,-1.2093353906205584,6.177030726582643
16.00550085056175,-23.344701909685888,11.1020015888016,-1.8047378284748232,-7.262708877739187,5.274511252029104
5.861987346281644,17.034380506286773,6.830332994391108,-2.8849614880608545,-5.177446929620041,13.920034199255056
-10.755539589355893,-24.72319510376983,5.691898941419364,-2.3998470300124226,-9.870868038770247,19.784481923668768
-28.734688146011084,-6.501347655373028,-17.44860358007965,-12.982462318287437,-45.58392641604945,26.11769415691346
22.29826242488481,15.641139651981188,20.49065118570008,6.3973374134567536,68.35843014551268,-40.11347692772265
-13.276522555333155,-1.7085753624310094,-8.264707511533205,2.255893249457752,12.5390713148047,-12.706971917099269
-6.910573534278548,19.46086539150871,4.046132025407121,6.527388229285412,4.041513774938937,-7.521146698256807
-10.652215556515308,45.20800226201066,3.34101075261089,14.356540048410015,-2.143116239326411,-2.9981702435862765
-4.68251037198525,-8.569874301523857,8.76002907345804,7.695129090151968,-5.794293259028422,-1.6660958510354735
-14.354775452972957,-26.697828325086412,40.716515224997714,14.656925593605457,-0.8974878367689669,-0.24921392142888232
29.772586934637133,-63.93109014808139,-65.48150352000856,-7.385424356425107,-5.864510136363652,-1.7249735034678084
-16.54330333754841,1.6428487906074505,27.157729880059915,8.555893925637434,-2.3749725547770146,1.1990669592440208
-1.5250053201351177,-20.298650726856067,21.396843578879075,10.124250622667974,-0.6569269946810614,6.774201670732083
-11.428152972634905,3.7082190660976364,14.192917075114316,0.2209582303267359,3.703741488644741,3.545319498474524
-3.482212113712093,11.215220219358203,4.401247066005601,1.8824510722743493,-0.45194867169952513,5.1953347233624205
-3.010590217858405,27.82662304770299,-4.944990860087358,7.794465686964376,-1.5019325463764475,-1.0787941977463276
-17.676496938120003,22.263238932536133,-6.902826017537753,5.39208623519183,11.696659825610709,-19.80315814089084
9.031721911269067,-21.812008344271444,-1.6980105998610204,-3.069844245718075,-3.614749888775738,14.078462137682074
-7.929168016628633,37.57075527650587,0.9708779340687188,9.62318037618202,-3.6782089723716007,5.982049925972756
-3.7021646312983147,28.79014852188928,1.8986058803307566,14.992265629332893,-1.768147497049665,5.1756138983777165
-0.8228481435518287,7.005488597999822,-8.619911407136511,14.943547916304194,-2.9331332356067423,6.769484070757784
-1.5353736282023516,-23.34433581311994,-9.767717776134774,8.640214296880238,1.8720697410401028,3.0702453921160964
7.780559728581505,-30.746982475551093,3.205721030306008,-15.270017011899292,-1.1276164951260075,-1.7206734222978648
-5.566639868678095,34.844932080126206,-5.475051994333005,12.248524378675452,-2.674855450064978,4.907309632373864
-3.727035039081402,2.316886000924894,12.54961310286031,-8.142557622570164,2.705101710318521,0.5222842882442633
-6.9783453377846145,-25.289598728998982,-4.267560306911838,-4.595933702755484,7.117341361044353,0.4950414285477561
-2.2331792720029924,0.4437053080213986,0.4813430336440577,-3.7673900213897804,6.003663024277752,0.005782558513959812
-8.34137637271171,-1.1539073817208987,-1.2759041379060316,2.5584204132015635,5.879095411824475,-10.18416040166736
3.2606821862922435,-16.773308270357123,4.685998037775419,-1.363806878506297,-8.380105108478656,-7.571012521063022
-12.970986815117055,-13.57987573114567,-4.002787248715269,-7.092840236224145,9.787546045882456,3.70524760888083
9.425740611013268,14.19329964255932,8.718425631880766,11.957999265315017,-10.356366287414021,-3.627075299217618
0.5592444625634299,5.760847334741443,3.5517923678223235,5.654696779496673,-1.1059810424293837,-0.00015575748720900173
7.41324492644979,-18.31320708290605,-8.34800986921416,-7.135045265745947,-9.095367337075077,-1.997240747238954
-1.1256256993405702,-5.1747265748167015,-4.9442169287853766,-0.6365701594947113,-1.1788677289575504,-1.816110569182411
3.2169264899337753,-0.05036020123598206,0.8484228642183298,-3.985671824499083,-4.901332532955976,-0.5415759452055631
-5.135323396041707,6.851936671986387,3.5933228714921555,4.318913260723018,1.5835605413654734,-2.023787700215627
0.6381853111890643,-10.149562259615333,-2.4051748797485435,-4.9613401487283895,-3.0693419586038546,3.339186356754782
-3.688985577240443,-8.054143407186604,-5.988489623263611,-0.5240386066886001,-4.323838452963093,1.1287835053570152
2.6569453323805474,1.289278239224533,-5.920450570787297,-2.4266747928209553,-4.402613386990122,3.195667660204103
-1.639036994212934,4.131386613259198,2.0899614276941434,3.5858395644077588,1.1684694899819008,-1.1586183827279126
-3.070744204284243,-3.1515974529482285,3.6034127572928436,3.2387795922333074,0.42422774544100794,-3.792451147392569
-3.433237984123558,-3.7480545094786875,-4.544752790023328,-1.2158712001058753,2.321660034592544,-0.723670565965242
-7.041523847253919,19.074768710038747,9.81484955597928,10.270264664958567,-0.7246638054636507,-3.983346823434246
-6.976722874081169,-1.6177548355297426,-0.70593880494893,2.6624369099295784,2.586037892345083,0.31941247044633037
-2.130462569779953,-10.2199329458998,-1.7794384852344587,-6.036816531544917,2.0851711976698706,-3.906151301076891
-1.023410833753389,1.7670805403068477,-3.741674038954635,3.4643271548934393,2.4311154862246065,-0.43082062581723735
3.93482105515798,-6.6577103618659725,-2.474805732083189,-4.024887977374174,-3.882879465556902,-2.001466928367592
5.098986165397309,-1.8270194107988522,4.18158833713177,1.0009030407383617,-0.07060889821847183,-1.643868798196535
-2.847462892490967,-15.322745323714429,-4.119865393865133,-5.336623837085547,-4.813817789878055,-1.4280607075124288
2.471235386982116,15.90629661313133,-0.46048325996282147,7.192637663419803,-6.8655002928864155,3.928823883536946
6.8971172300358345,2.086321819538811,4.907573570672772,-2.5136479118880897,-5.81449531256386,6.648058166405654
0.15571073959697126,-8.061770465492586,6.322530513681193,-0.5960684866937308,3.7118404131476668,-0.08772351542840802
-0.9828134559178148,-2.6318724784790524,-0.9852458562860863,0.9706750486736613,3.971161595686579,-1.643502836231403
-2.433636641330641,-3.760902019612645,-5.305776455693967,-1.2014398233127985,-2.326385943267487,0.30426547760869826
1.258588126146976,2.0491681043319527,6.392573338140214,5.84571125067888,-5.304216144948561,6.550976996282214
0.0063037704697004315,-2.277883453946523,-8.707674017072893,8.68675429210757,1.2378635709949162,-3.442185944347842
-0.34790618515372296,-3.59325011094748,2.4346460297156827,0.15160794341576717,2.5356206288070746,-2.133686175185446
2.3854609265165543,0.33377300540752963,2.981271981947502,-0.9821048111718612,-3.9630318365140256,-0.6034214712022185
-0.3632576815482116,-0.7870985101349187,-1.5336134060919995,-0.3483812099245018,-0.9246728059872723,-0.37651705266609337
-3.0862611028036198,4.9523475958492655,-2.946483822788962,4.394010897996585,-0.9295572456130412,0.9874855218632745
-11.277653389223357,3.2952060184458314,-7.328575173872012,2.2736049422312434,-1.347952655405637,-1.1450126566525558
-0.83677223566277,5.202257965796479,4.168927115683564,0.9345070865577444,-6.175417130314723,7.898645611607142
-3.7420755542783004,-10.799215253129745,5.849737711199642,-7.842194660834501,1.6497138625167502,1.8756032745894475
1.7309717537357445,-8.371728763055401,0.02787803490435392,1.086295396672476,4.67129651226931,-0.8110713992459389
-0.9957706707481156,1.7529658516583697,-1.0377896168516563,3.374819163272347,-0.0352941272949821,1.360297929266138
-4.203556407519384,-1.628991957832418,-1.6898502789884093,2.9283128106303242,-2.0108836732309343,-1.7253813200650503
0.7657453272510264,2.8958750110211975,0.11652825936311262,5.574290919150902,-2.4337790469069867,6.26307098414194
6.662193220996526,-4.314702635472518,-4.833054253012156,5.5886065247292676,4.355653436565741,-7.558521444849689
-0.5809078818177462,-1.4820763271799637,0.6311106527809491,-6.3412504300917245,-1.1402072721404501,5.091385930076048
-0.7923020228450381,0.9981589798634598,-1.466548153607452,-0.7335311527169903,-2.370538608828128,-0.29502906307284626
-0.28038263483631665,-0.4184464275718501,-1.4469331234016098,2.2114135412819325,0.5717468752600088,-2.8698948673663947
-2.1753063004995594,-0.9653291046302573,-1.471281237087212,3.0642915060638054,-0.767930113422311,-3.6720659610280193
-1.8284955769059783,-0.4790317360589176,-2.23778977407831,1.1123814338107831,1.8674867850866275,-4.249640687214707
-2.3023650596737473,0.6958598010477206,4.4797588657033245,-5.617751581028527,-3.1241124764254584,4.386447257480041
6.318466987475613,-4.675673459233071,2.7219074629024034,0.7077904515166583,-1.4666420585488371,0.7363891092059857
1.1993647820566498,-1.4825909607079986,1.1384733003822052,1.3386073581958704,-1.5692020406874905,1.8866002902219847
-0.9272855605427128,2.437716149688981,-0.5001839060464737,-1.5731690853942526,-3.538191800203276,2.6243393122852625
-0.20855038140996296,-3.9891703773921243,1.7340660218925987,0.24227474856905357,-3.2878253512950693,0.030814619880837724
-1.3375361842811302,2.5077838912064787,2.9630528457288294,-0.13473275904966608,-2.4185585942030317,3.2002488966959044
2.7003018580430878,-6.461123021432111,1.1550247524269652,1.4546800159897337,1.6907714657727544,-1.3007394937883732
-4.759028216410723,0.19813102204711153,0.6338047732834279,-2.192719962707579,-1.0397264510159427,1.976675853585406
3.390911982768354,-3.4636169246986697,-2.5139737470672494,4.523306798167347,3.0649159121974003,-2.920295201611119
-1.4225790176765438,-0.5402821720167351,1.2797957656563461,2.936193491743872,1.7905206623180552,-0.7222216994617381
0.6563269267804643,-0.14716640084120686,-0.28899236616585455,0.4084670781840998,-1.0483847546081457,1.2324909743896337
-3.7572713545008347,0.8009249207985334,0.4656526969385922,-2.0393677735568367,-0.47929228562565623,2.9690964587442106
-5.829569367614017,5.72612883467229,0.27870935605686564,-2.7857937736630562,-1.6666538860596736,4.366314059395929
2.485831531913759,-1.3903975390627406,4.310610225628983,0.5728547845909079,-2.136547301968964,1.7577623420484108
-2.5533695332875683,-1.2882034580313677,-1.663052563906155,-2.5084377629092076,-0.5681072020867888,-1.6194449601690668
-1.7204651459575753,-2.046210944920496,0.13645723172474625,1.6028789811804227,-1.074943825287598,-0.01871371127171817
0.15755689943755896,-2.34731041514246,2.8407601539096765,2.697855028074298,0.9670058908163469,-0.31513919846901606
3.034557889737046,-1.6197388615315629,-0.398718113778475,3.3437417478973686,-0.07620400671345151,1.100129936110361
0.832338283031329,-2.535298894750377,-0.015120114938518961,1.8090102986462346,-0.14781252695257274,1.304849489873416
-0.5025466669929932,2.5703767878093684,1.2465231460736543,-1.7068895349964428,0.028405123746732652,-1.308134714177891
3.1441975404221543,-3.3063895650695025,0.7708206371152728,2.2709807792299856,-1.4479845302682435,1.1304626072043102
-2.8967188770492602,0.42600987677132385,-0.9779574123701649,0.014037047749006826,-0.25655509701594653,-1.1819738738858192
-3.2800994151096377,-0.6319157659776095,0.10177182074990783,-2.545444530239201,-0.2578309862641653,-0.21547792239544947
-0.36471626081848263,-1.4187229718171608,-1.2233496255606036,-1.1338024341512798,0.5266169893193478,-0.8474142975567603
-0.8871954252424594,0.21199883136263153,2.0448036680605735,0.10111151045403166,1.264362726504065,1.026739224985662
2.3509392890945366,-2.5873878992255426,1.739345991841687,-0.018802865823632747,-2.3399625007473683,1.9465564301955447
-1.1555887026098095,-2.809838883488023,-0.9162375519818658,-1.1278152090410116,-0.048379052869735636,-0.7226035102152509
-3.095015811414247,1.6640390843595325,0.6773803389509927,2.2663838958750073,-0.30958183691195784,2.5024264038747526
0.14131393595960828,1.8725062095321539,0.4181679523668921,0.19199228993890913,-1.8436370844490806,2.9519499334659245
-0.1952155935642998,0.4763255903412655,-1.311435961182713,-0.7691759931772251,-2.896087883118546,2.2894271094429084
-0.7507987426849455,-1.3938611855241674,-0.7301203375651695,-0.4605014167266005,-1.8629095831569786,0.22502903410974573
1.0956932190725737,-0.09266395654672799,-0.008400448967730179,-0.5503299468397485,0.5002969072759528,-1.4270964353645927
-2.0422639501312165,-1.5884170113076619,1.1024407919141745,0.6411311932977057,0.30236459031179713,1.7192734234444822
2.6527642645243055,-0.6410623154223829,-2.5433189029451846,0.29494045384688683,1.4710328984020256,-1.9118848930075532
-2.6228086254287435,0.6010694903887959,0.8382448897761534,-0.2123527011126538,0.25090212783773047,0.8863612344421662
-4.076116808922196,1.7013463691860893,0.0324061725809609,1.0236910282593543,0.2014048360529275,1.8475487032205262
-4.300911277715199,1.5316632949855276,0.8428370540013734,-0.4987232974536844,-1.221115719722999,3.579974867768091
-1.8032173252352357,0.8554742725150222,0.39556142241186737,-2.508121236086462,-2.0635151377151404,1.6961092503252058
0.23103716913031996,-0.15248142803571763,0.295184450225438,-0.8628325240124761,0.035731360549503294,0.12945373448132172
0.459746763646679,0.7490521713909775,0.7155940445615453,0.7717685820751345,-2.0654476649431284,1.999462711431717
-1.6068948461408712,0.49483844768578933,-0.38343871247933775,0.4831762240217119,-1.4654367306382423,1.558249168052757
3.196769932124798,-2.976373602290469,-1.1678837190598048,0.7468061106360206,0.6144326215222217,-1.6122784803758559
1.5867258638668982,-2.7347165511625993,-0.20324107940953665,1.3500303995638963,1.559139286634267,-1.185341917105474
1.8718317272683813,1.4292020970545307,0.4721500096852395,0.21868074567624254,-0.1679132882152402,1.4827359693872195
-2.398124405686359,2.5374896531388242,0.5657521325417809,-0.48104230806571113,-0.44661219950030806,1.665376550467446
3.3766470778467954,-0.20704229526980789,0.3410266289054076,0.12908523285606216,-0.5353201832705903,-0.7162631934162688
-5.007723432785607,3.5732032768071083,0.5572820252912432,-0.6435715171396761,0.08813082361496494,0.7143586624249756
-4.995880636619938,0.9691937046266006,0.8240262991406706,-2.001361633622045,-0.11909755932729033,-0.10984176801412104
-2.495902403414018,-0.46705904610924526,-0.056501002866495856,-1.5396571372094092,-1.8540922581518122,0.9453671557139346
1.5208552931656252,-0.8759477200426861,0.6481000204004548,-0.6106090685834435,-0.8462065222361035,0.24860571072893467
0.7683515847649985,-2.977603169680533,-0.3235325576779749,2.001072006408566,-0.4795194750475738,1.3793182820991796
-4.3265041818733305,1.0427713694599747,-0.46647773597551745,0.5783433092563744,-2.0317273090174557,2.7220957972195383
0.19415752902152306,-2.755932970169993,-1.8133602613835678,1.9616538873821576,-0.15098523798339114,0.47656541208572656
2.8992235098600667,-2.6246445453848013,-0.9854500526038519,1.0943726282431236,-0.5322043351600104,-0.4582241778164249
-3.0894460667510275,2.032130590792113,0.8238491588871544,-0.5164542600074846,0.0544296626016076,2.0388357762725233
-1.482367597192557,2.0402572449822145,0.6942417630346518,-1.9099996694181023,-0.71382110780519,1.5871216175798057
-0.14678609176319468,0.6007474693101,-1.1333877837079167,-0.849165977824423,0.9042482932090077,-1.6024826353396127
4.582844252678634,-3.577660228878848,-0.5336274360683031,0.804808843099737,0.7454031970351871,-0.7791743286250282
-3.8001004456837117,1.3548267584520066,-0.47291713096126914,-1.1298383060119004,1.3764429610071072,-0.8314493813990202
-2.5626401947694646,0.1934216786160674,1.868021482643169,-0.9563808843296024,0.16179893036081694,0.4554356370969217
-1.1431045484039482,-1.7071873862613165,0.8990372228075004,0.44898188624853774,-0.5518065593878794,2.242746388665441
-0.14446806479600274,-0.14559857825557943,1.5796288564003356,0.2176333779537915,-1.013120876769839,1.4642506221859002
-1.8614190550452403,-0.45611025739590005,0.8638106928070901,0.5827448313525271,-1.2816984692299902,1.611021943358406
-4.138974228103856,2.0246205816574085,0.08954442576798824,-0.1438160732561789,-0.836734487577441,0.4983133781671493
3.989756994654782,-3.490035050934254,-1.0126831513536638,0.5602989737823187,-0.41499041529125696,-0.6034429344713268
2.229309324241577,-0.343315380980854,0.24083558999767948,-0.16060385886303202,-0.17000841424816762,0.06223270880668261
-1.1145411783045411,1.3577743027923292,1.116539009305018,-1.7869359340765416,0.18258764045866435,-0.6562062454945666
2.718230095417678,-2.2293788050729897,-0.6143198162192127,0.6344233378836295,-0.40643110266997684,-0.2871361403017176
