Gx,Gy,Gz,Ax,Ay,Az
-10.508019,-6.316318999999999,-4.899896999999999,2.5999999999999996,-403.67,6.046000000000001
-1.1627207746608101,11.90603839707728,2.6538820520223623,1.2307162096779498,-0.9233701157019354,3.936804133513809
3.333621407647813,-1.3877588399251195,-2.3820555908439225,2.074764902595034,-1.1383887184596277,0.6120852163287998
-7.629180879874265,9.897608504586113,10.967602446486453,1.3402651629276803,0.031673817756177,5.38059605319318
0.8798160142922877,73.69437872120126,-40.963714923791,-2.1665276936896616,-0.7023354308258443,6.907051644624304
9.132760845897993,11.021079944917542,-13.469555459240322,-0.9408247912536378,0.6236925790626651,4.507600688856966
-1.1251311553087555,-0.7500955106331804,-6.267176821122117,1.3830194764902217,-3.113357552772736,5.3755771395023935
3.5671070673309693,-16.757628822167987,-4.037713373753508,-0.8268786719473211,-1.9177396981036166,11.951374916197446
21.38672516809519,33.36414859752213,-9.301598279997176,8.236890528462126,10.475669812336173,-33.078190258317626
1.665022312197706,31.45024186869154,-2.5770672709105913,6.779554319366529,0.7670201170255835,-8.770209339619763
2.7889289033264184,32.011481054998804,-8.993892147978727,1.5110857766974901,2.4063743650208513,3.246152592483639
3.800689652427205,-5.684312575439783,-35.34451187213623,10.015939929096673,1.5860145013412943,-1.0699713851498247
-10.354184321487782,-40.15477854701092,52.08078789052966,-18.029034271004388,-4.136807259561952,0.6890474466210776
3.2343593188542634,-20.030937558360307,20.353728567723813,-7.568217520466632,3.0074111377949873,3.1730885286579746
7.592467825203984,-23.411847606798972,10.981315142995541,-4.664835748268231,-4.5616038686146965,2.2262378649966763
4.747973337869515,-13.984866061591605,10.759154709569284,2.855814870767272,3.9515563920190826,10.476509003388308
-5.8926352479749715,8.935461280790424,-4.03395228693317,-0.7277286112633528,-10.303559083848409,-14.834412608961749
2.901559549597462,-8.813761204917244,2.770410330203574,-2.6458439949161736,-1.0646027090846522,-5.59973110756517
7.470168263848246,-8.738299563490166,3.498654162872955,-4.254341842367992,-1.7824481149798321,-4.176582307233737
-1.72476045742208,6.647156170561647,10.461520552176188,-9.612334601234398,-0.38826615063178505,-1.784914357809652
-1.7315569014827281,1.3191234883061493,-13.9008156425852,0.8439257344777398,-4.6411469273037,-4.765311291506526
3.005796146142701,-2.195055296475873,-0.4500006598605847,4.138080772807013,-4.472162167505928,-2.4170017329961735
-2.0915214943063964,8.617007041591808,4.300674334194655,5.721872042211057,-3.7056172158754634,-5.383992912636724
11.799821369550308,15.881847935811624,-6.114320149022573,6.974355686636828,-22.586664431315175,-13.6297177377247
-2.5739993511568118,-7.150616535417097,4.985131999484109,-3.1823314303026553,10.62717372836871,9.748000778442353
-2.6889660860888354,-4.898183278273693,6.319118838358868,-5.151975875159887,3.519678665671797,0.9022512725305414
5.062073529432234,4.489130584140023,5.609735444270618,1.3403945381552593,4.919593584430254,-2.3518265267663025
-8.59716881769592,-10.185466269726646,22.36014838099787,4.71246683089677,-7.502885567279163,-0.9958443042295064
2.6895773525333238,9.761287555809744,-1.1930275204484424,-5.142490284900112,2.9917196538617583,0.2891828419962085
4.950524635723877,-0.7850176228102299,-5.098658666144759,-6.4456121865287095,-5.923150357571146,-2.0461048976706686
4.521822137588023,-2.5727055152253655,-3.529054281339647,0.6431734023376343,-2.767046745001805,-0.8998150990544862
-9.660132247246047,17.436337547541207,-4.353741536703568,3.1323365973466295,27.300414789331406,-10.255241742689133
7.364607575837034,-3.006008859380966,0.4243899232585342,-1.8920435061313217,-8.398797007414132,-0.6026047349406969
4.890139724299846,-3.3396272559672866,4.457533757028255,-0.7952515394509514,-2.739208220313542,1.9171620767798538
0.053768129668611664,1.2662243641145565,4.639458638265825,2.5115242453832014,-1.342467878270619,0.18904697706022588
-10.26801852239756,1.658092262352846,-15.073744242477922,-3.792280317370259,8.189835090006106,-3.3394577178660017
3.8542700540748713,-3.596030007589361,3.8282285221441286,3.2147841578605525,-2.4919536400015576,1.5401035206912672
1.8567182219582956,1.0343460440876964,7.1451352294092905,-1.3203241930704028,4.934591544754003,-1.1619426926047893
6.004557784135896,1.128536373888629,-1.1533600821104635,-0.17794834355508882,6.959332413196705,0.3322327964479115
-17.300976059983533,0.1892992327898444,0.2849631383920066,1.1688685287141345,-0.32994084583215927,1.324086658189219
-0.9191452147327333,-1.0031439352469613,2.678566463906986,0.31653538498889133,5.616168299153584,-1.8023737483904045
4.731945960874635,-2.711398136869226,4.234700230815313,-2.05826538385869,5.77842705732777,-2.0903092652501494
5.590654190383486,-6.5735271622521445,9.807644656428383,-1.8945231846668165,-0.6105354253446365,1.5626951218807335
-9.659741316044201,5.460532263763523,-12.718637170630197,2.3694686974246997,9.177079555655268,-1.1835966011345778
-1.2519297415606125,0.2061925372928055,-3.815663559497576,-2.6540062307978305,5.421881584398122,0.46544053004402963
-5.642559993287525,0.1560816342871646,0.3579611215969235,-1.0087531795763667,8.010937800934531,-2.1322637201837944
1.246371663097781,-2.3377004853631185,-0.133686841272165,1.8173159156321663,6.989958690970751,-5.5734379539753505
-2.6303524244705137,0.40098749448927284,3.1255180404957548,-2.406846599718781,-3.648208302821394,8.421891473371229
-4.325112723007833,-1.2159666503993816,3.8941826959751222,-2.0260524611044475,-0.09718646893059146,0.09842079825652938
-6.3527534136026995,3.835052490412968,0.9725062932353925,-1.4084005787603515,-0.7703955536949039,0.33680594481233994
-2.6875745460188964,1.2330820356619254,-3.8163400814059294,-2.2210390870403347,5.402417170364197,-0.21441851564799308
2.465385944350673,0.7961018893016472,-2.735192653578534,3.215112022451767,-0.6941888920447852,0.2154052571598315
3.5606797828088155,1.0445116199285882,-1.2032237062662834,1.9164248067958352,0.8995081562716676,-3.251800555927958
-2.4206426261941023,1.6253663539867231,-1.8142461337076972,-0.2771866864264756,0.8451476002154443,-1.3492117089493787
-14.169764420692808,7.582122807224196,3.4909713680469787,-0.31207989557971916,-2.0208652380271337,0.09948235780646192
11.363215621771163,-6.010334719296418,-1.4341737210952585,0.061070728944029096,-1.603779324726375,-2.3090793356574864
4.361206732293986,-0.7867412469912924,1.3846012543312711,-2.122643357421265,1.6331108326488715,-1.8143817858003535
-0.45203081744204,-0.3747909030155876,1.0755111008518643,-1.0381857872120632,-0.06512444426381503,2.4728014666198135
-8.248758405057371,1.4480249413950161,-1.1298149509975142,-0.5476055807443505,1.8456600469875692,-0.2671892987713871
0.3960333497867403,-4.940478744589755,1.1386769914168156,-2.493054013283378,-0.3628770471142104,-1.6477818745985093
-2.2066334686575027,-0.0008625217291413634,0.9681123128343341,-0.8986535708898407,1.1935322631851717,-1.1344714046119249
-0.12623477626474422,-1.343782965879516,2.1680105536776733,-0.3293756050338743,-0.368860906974378,0.3075240541727906
-9.640375203092374,1.708942342205189,-0.7761463848320211,0.016027883012834643,0.3523810490588477,5.737895402177975
-3.5563794392032926,-0.7393025547889951,0.7107409911783882,-0.861728725980313,2.710231994580262,-0.7001495014012711
-3.4018290179548574,0.7093389873711207,-0.49238777001270995,0.6228455694763521,3.5802748609266732,-2.234072993873227
1.800676685140675,-2.260000203137435,-1.6930705400652561,0.26240643690403387,1.0726925923357329,-1.5112485205023014
-2.2697174297969487,-0.9724046229631799,-1.2421526451097216,0.8425695745342868,-0.6773539698671052,0.09693214323087862
-0.3969699033721116,-0.08441611548351302,-1.5498117559696205,-0.04234135489125679,0.598198246420732,-0.3420534211139671
-7.116042072124911,0.758700690449724,-1.4144034675690922,0.17627701926441014,2.625863592197702,0.6791581422765752
-4.737065675731634,2.391288703835369,1.4186590878203407,-0.7063591046875222,0.8639848704674712,-0.1308805876593404
6.985493682597759,-5.434055541838041,-1.414589788223743,-0.11913499348253409,-2.9995921581421614,2.3811257688140595
-4.404712431857433,-1.268957559571545,0.23333362902976562,-0.9459209426698688,0.34541538378018766,1.1348964439923759
-7.24314021096769,1.4138966590215207,-0.43664429763928303,-0.033976711917328234,1.930304410417405,0.23057921901758602
-6.580057006599439,0.14993901044849522,0.28240151411805936,-0.5794283015576396,2.2279834611985923,-1.7785841138624443
0.9592253869865812,-2.9253043782279438,2.1335261955598903,-1.5478791398373417,-1.2237766123725895,2.1559724827574724
-4.229331946542412,-0.345719071008458,0.15736083514992627,0.24140248085546112,1.406253993643331,0.6235533375517772
-2.773304762822403,-0.9213774888006556,0.08854646204356098,-0.5275034014505954,-0.507330155394444,0.2327962527644224
-8.56504907066121,0.14244059724621105,0.4602737728542706,-1.0528021635421592,1.7476796772192726,0.825773982613511
6.347108323879382,-3.7041428565938697,-0.9752955639520793,-0.5779654088101447,0.2816222683213311,-1.3891897317680741
-0.48198499188240684,-0.8649191503513844,-0.9792741189350167,0.36099953438849397,1.7977461314856584,-1.236906848168478
-1.4468858374959512,-0.21341331289227794,-1.2795563784217339,0.20874079910328014,0.5662013857383932,0.7152236410945276
-8.399143855574108,1.7164748088817792,-0.12520998231998065,0.500419431686768,1.6749759357585496,0.3947699783120653
1.6033147137471824,-0.4517789891651554,0.5623305973285087,-1.213065201590032,0.55736890098997,-0.44422701676872817
-5.057027164263191,0.1716645010841984,-0.5370910416597718,-0.1915653765321952,1.3282171888018923,0.23433534928062527
-1.0686670384397723,-0.19633355346582815,0.3459248879707437,-0.7732770138471343,0.12023897531165062,1.246489203551012
-0.24315920776251332,-1.7176053591911002,1.2503863128557124,-1.3824730957799285,0.24721400347295408,0.2881817121050912
-4.279807151599625,2.063988633846097,-0.2408242572818936,-0.6409138024840492,2.3178775737077904,0.1794293587751598
-3.2989195233196296,0.6225109985441571,-0.9015540186373248,0.0114572110756192,1.4544307214017786,-0.11541891722036138
-1.0754385275208225,-1.7833187508158987,0.13309335652124432,-0.5890706162050838,0.8373213745936963,-0.37651171381896176
-1.7637772170774362,-0.772762694774828,0.4524892216974461,-0.9967014712791671,-0.42306625944825504,1.9649222143618128
-2.7922205876070287,0.48889470676719715,-0.06499399132310657,-0.25486796411602375,1.7645077044654442,0.18649762493047395
-1.698342988993681,-0.21243700414023417,-0.49734918775370435,-0.15548691528189096,-0.10795301250512002,0.5258619199444974
-1.134460856515429,-0.8223947239335608,0.8787103616148462,-0.9718899506494758,1.4696817975499927,-0.18462892623476118
3.0964498489917607,-2.4980406273205773,-0.10194881448244586,-0.013210656089338857,0.8037079425261819,-0.23664263025388843
-2.9195701956880056,0.4869951475310317,-0.3456892935038074,-0.13017769187425698,0.12860864322852716,0.5223455041946732
-5.569845070774521,-0.12338872319507277,-0.7453653254485806,-0.44726761554266425,0.18682099057839752,1.792651823397123
-5.666288219356983,-0.9933407699648797,0.34982209225929095,-0.5849978423371823,1.8974993314412196,0.9063464372617408
3.1951168387871074,-2.63480572861316,0.345636307877717,-1.8550305998643928,-1.0133421792780843,0.2387909880682048
-2.4014499573116552,0.3221184455225137,-1.14212974453746,-0.17485275495912994,-0.11226753368845999,0.9888547689125492
-0.4792040417989032,-0.13968765382733417,-0.9458486904156844,0.04073871106127769,-0.3765620708971921,1.7926923847919394
