Gx,Gy,Gz,Ax,Ay,Az
-8.686547999999998,30.853929999999995,-7.860168000000001,-12.764000000000001,-493.844,12.732
-7.194593893071076,40.848752590863484,-9.481540916413353,-3.283608782096996,-0.8468089931236469,0.19634279253624198
3.5932868118572765,26.35809504594879,-3.672288372694169,-2.9869354718128838,-0.7994211822973143,1.14887331486975
4.919215695925413,7.65058086051519,-2.9569778088796452,-2.875604190231662,-0.9590189681540826,1.5071327252072981
12.242689280954858,1.2997357431214458,-7.855217748038157,-4.1474079413256515,0.07085651880828903,2.298219741675794
-33.66900104392564,-186.9944280677138,75.74691447930223,-7.775688628550661,-2.559553901770519,2.29390084364094
6.777293449293265,16.11660819706253,1.8211862363422497,-1.904614303356837,-4.697621765151773,3.192522205181482
-1.2142876275470287,52.11195883954818,6.79586735045447,0.40303454709565883,-3.052836407002209,3.2520028726042125
1.5842443072598864,24.54861004445664,5.991299240924723,-0.6321144895206868,-6.002641757300235,6.42309698378212
-7.932617540903491,-11.004860118406029,4.428251832182909,-0.08726185986368362,-17.30896611392953,12.438128520535532
-52.20521329617229,-30.618217240221988,6.85917660966536,13.632216320211258,88.63251506046515,-67.41076734643377
-8.117287328293703,-6.224735135612933,7.587449584241538,-3.931847738964495,1.3274481354015881,-10.440506824274976
-2.005714478032558,3.045936135820579,9.304676283327098,-6.369023459760427,3.504085548528819,1.436336576575966
-0.3509545510825962,17.113825993981216,22.122397295449225,-1.7199476850534956,1.0989823144592856,-0.4004780325529634
2.537124975929667,44.62039195968773,21.843703835440056,3.415232455104434,1.9739687460053617,3.73075714725203
18.63118230978423,-193.8698990846176,-81.45928007969658,-22.661060551349436,-4.414589496806235,-14.572499080343352
13.827224560100836,-35.8491392735097,-29.40303632122393,2.1179493128153584,3.278756162068408,-3.5655306963823765
-0.21591884372920855,14.71903285380045,4.912696507478072,-1.8012269208461833,0.7163648530437725,-6.085989413633882
0.6953583924978588,8.848587461668801,-0.2721788037644304,0.2712880137636935,-5.136953534721471,-3.940295435265419
3.718331962710846,-9.0346656276532,-5.40640413892981,7.867066950910269,4.796480790767321,-17.122858463897874
-16.92842801681459,-4.002256911859012,7.8243003414452925,-1.0876132564170824,3.4171129077716085,31.58956142416205
-1.3900930655432093,-13.136121735287542,-4.546278874284234,-2.2448471993508687,-0.26415304396885375,0.5689566931615861
0.010669683994311896,-20.35391162514811,-4.3446189922702345,2.129569444881594,-3.241493928554909,2.923408288519573
-4.156697728874967,-18.314950023143425,-3.0814656810591146,8.233672316472623,0.25936643243911783,4.898779542987866
5.411580474860778,-20.394967776422344,-10.891123846413457,-9.52541360200738,3.3285715216888527,-8.742467330371044
-5.345156903172354,59.70391234128512,11.471796077863775,18.546275133436446,-0.5222897206389993,5.643209715632269
-1.8232584290023315,32.38626349596173,4.801583815331149,-8.140897441917925,0.8137140532695872,0.23735340741478117
-9.748172530703446,16.74015277657888,-3.091124071628677,4.980322825938213,2.3324201279144017,-2.376524648350866
7.669213632625832,15.785674566909005,-4.338016520402773,7.9227091037513855,0.8030852001294253,-4.409506733865652
6.602025397618136,17.276809817748724,3.6148298253412485,0.8796975633616748,2.7013904663263566,9.642787137485547
-15.261913793986443,-4.923867257952102,10.19870486347281,-2.8496011178547906,-9.469238477144478,-3.839511186517702
-8.472583613809217,-6.069067135269574,5.969892796800968,-8.194089366441718,3.5396748230315023,6.346730420135394
4.1870947724773036,21.721503120480794,-7.485808427179134,-2.8336270293137873,-1.9236479356044618,-4.236267303468905
-3.8077103918814625,-13.107142074950218,-3.2650158364832147,-14.964027377395546,1.7977866481400981,-2.4367236047570646
-9.643396497242897,35.05911252387793,-0.15713451923527888,1.9820732511433052,0.5606932347037963,3.564756637831127
7.506341882374952,-19.362355977537383,-5.248898187081025,2.365097578222024,-6.097826185645877,-4.453434676438975
3.788151753633872,1.4241082751438299,-0.6141915260534445,13.087676060144705,-1.5391182181659633,4.834691346541611
2.3608015481193325,7.547279976397698,3.0834666748987476,6.295424905607414,-3.8294405434897136,6.277448998371138
-3.6481326983419216,-0.34779575994867784,7.3498825334929885,-2.047072698715203,4.20504055788782,4.001800006894914
-7.269173338996493,-27.108409911091645,11.341941250112683,-1.8211321519846613,-4.759506968754662,7.859632981699879
2.2446265310984064,-1.4649363726258415,-6.950603003746133,-2.8171200527956985,1.994821636575347,-9.903434255763088
10.179615232804917,-3.964972773708192,-6.127154349075392,3.373916371099055,-7.1675815045803235,-5.33630174345205
-1.9482120742102234,2.8037359355373126,-2.820606483694621,2.029970245701453,1.5741870493641876,0.7753168378386375
-0.986892683970563,6.803507318576597,4.063877611089033,9.23708491014326,-0.5973183456658813,0.9508719989382324
5.553170472966326,-9.299415102110025,5.5148620807321285,1.7515510654184059,-0.07111370820512253,0.10935575163679534
-4.621432149812819,8.530699805320001,-2.877826950565092,6.939699626089952,6.16386100111023,-1.8643589438784876
10.021718287272797,-1.329821791398294,-6.1638974984848645,-1.1394764670380055,-1.1324632375595478,-2.0447751180849636
5.059459493651874,-4.565745480531525,1.3388290113162056,4.512389512877797,-0.7113101095194068,0.4666442907133739
12.45168730268787,-11.4981228013024,-0.8922939195529167,-2.192572910229191,-11.174919200384178,2.3869968490628892
20.727426289509175,0.8643691956353807,-8.887255903556019,-4.166950756797742,-6.574914413789855,-8.970655593631449
-13.658444763616062,5.286916802582883,3.339242223373743,3.1935066782949413,1.9646877810141374,9.144351877282121
-19.26378219123749,11.698553074275802,-3.247049193325316,1.539751697082222,12.411658668461971,0.15933653302584877
0.8278545487442024,-1.1886412800380657,0.6975287729868436,-1.0615598279664147,0.9167829524684559,-2.312640094370786
2.4745701891374066,-3.64656196989268,-0.7838849831730441,-6.512644723061507,-0.40779597921419786,2.429169682588886
1.6153921698917058,7.0767560498476145,-1.4672957527593415,-3.3938372572780566,-2.8478764354648423,-1.4691825617878358
-2.9538501123804908,-5.999107196829199,3.2709797693922353,-2.465058429278595,2.85689853097663,-1.8582261302115457
-9.984141858853759,2.248612874602149,-0.5544245962640808,5.014507145676976,7.0217111107444605,-1.4379846176894637
-5.080209763751148,-0.6876582532358531,-1.2286122346555204,-1.843868442291624,3.345507462785812,-3.4701048428436736
4.232885155808585,1.5622290830440777,-2.452920910322648,2.7388556360076657,-1.0404392734584296,-6.839619265052588
-10.046984719796884,10.760199005615078,0.04910586112224624,0.87831037896945,10.268828688188211,0.2176957606524743
9.110934199147575,-5.618567637334,-4.229402771216116,1.4146354776059282,-6.225487365487149,-2.863191598105932
-5.444524414804058,-5.53568524905023,5.5659448509947005,1.8002134228639561,-0.9688182703993977,2.7713719446536844
3.5002616242200677,1.2610010792026891,1.1377055935259162,1.695977550268192,1.9112805444991556,2.2525538834906844
3.613621355078955,1.724473471358659,-1.7735509623966244,2.187784892068989,-2.113375753989361,-1.4113804158362961
-5.763814238242071,2.2087099013312605,-1.9761917048425552,3.193841529844607,-2.6098311366104845,5.036303613982705
-0.7431081132391024,3.768782177402997,-0.019764198892816776,-0.6709357870833862,-2.78924948553525,0.6069036271992791
6.017331126670154,-4.6114873176688445,0.9279446613100388,-1.3922733312039917,-2.052533274477692,-1.9532029564224571
-6.045947955976424,4.565546238848583,1.4227773984005054,0.032228675131680706,3.142307583029617,1.9357021285153357
-8.117878334466164,3.290211866030325,-2.957198005335457,0.11693947949036954,7.901509398634875,2.163112060178845
-9.766779686734084,-2.1754838334064406,2.9188313301885374,0.0061935173661402665,-0.1256418855108814,0.2619597356631105
0.17927296307975626,1.7386433316485377,-0.0001693675986331744,0.9377959731545886,4.585101402145138,-0.7204906140634457
2.5717687512956218,2.719835996547378,-0.6477533791301786,-0.5768197461618458,-2.9261961770845835,-0.19894622439837908
-6.314248693178412,0.6467644095319403,-1.9183717407813703,0.24212602261081492,-1.5146253047368452,-1.7839016279695314
-1.873314166599659,2.431704428116523,0.1068205420740469,0.3283563909027099,3.892426375705889,2.6190188775560252
7.0597306889693,-6.854041338029017,1.5695812761474626,-0.5621564127375671,1.1416362085691452,-3.4121719015343945
-4.822650328664833,2.584893671848153,0.689923791440467,-0.7656878909406144,4.645938333097176,1.8410334776389705
-5.739994586813486,4.6162477445794865,-0.5547323202477152,-0.5656702137550726,2.296023452971502,-1.600174070162996
8.046627203921215,-5.938367596575359,0.44200110129809667,0.44692643600486287,-2.3478928441765845,-1.8033440717590663
-5.9016222478840525,-1.1822493789288675,0.8147726848737711,0.4397046459271754,-0.8041996728093688,-1.6120401478988706
5.5339884647388695,2.316103378044955,-0.11498462630580408,-1.0384668042701704,-3.5113090187299654,-0.7678620062022219
-4.410359561424142,-0.7903652313073519,0.3261488265355401,1.1921409889483503,1.4006121596947065,-1.9287832051871419
1.5249095961553873,-1.1651073540298602,-0.9785467080465227,0.9002450476665902,2.4830290277236275,0.17491897665668232
-0.49131997325608934,4.065488965057199,-0.7942694573946641,-1.540493038650844,-1.8971076712099562,3.7156416440557196
8.553798310817255,-6.058040438556983,1.8557133649373472,1.5830638620148818,-4.4894332768278975,-4.301766284377094
1.20271590904585,0.8448441616326168,-0.750018089240492,-0.16832856439022015,0.39333479459688014,-1.4544786940949588
3.483339109087236,-2.625109805861851,1.3024377553837492,2.6014726562696775,-2.0620577364383346,-1.1722396446413064
-3.8994804515516064,1.383369616991494,-0.3249545333183584,0.8735538930050513,-0.5596713941328996,2.6056168335327787
-12.885002855358973,6.918609557427764,0.21572562618513103,-1.8505526324759087,5.288397289153902,-0.34772119944524077
8.541697495482873,-1.5157842265635224,-1.1104695638868862,-0.9434280698312165,-4.109254597504379,0.24528527350643903
0.6092950734820826,1.5183809435603368,1.0641389008334705,0.9656649904505422,1.6309155390721313,0.28569705716200233
5.73260219947526,-2.8111062665330397,-1.0169681548176541,0.543384032411403,-4.4724861179804885,0.757887912041967
-5.380284120034099,-0.5965654723550569,1.2824250866888003,0.3848817827655222,-0.28868099580765616,-0.9116655970399469
11.201905549121522,-7.643390845747636,-1.4420135164730012,3.494472085806766,0.8846343988512728,-4.251651962197092
-10.423533448111463,9.671349348824982,-0.2217173006433032,-1.095132449413422,3.2011256997501425,2.6597762586762963
-12.934212238941416,4.207158172796951,1.1727956895349139,0.703961874951565,1.6360438558528865,0.9859961461917235
-2.313324982613241,4.397300189696889,1.4717120301957123,-2.896687418440599,0.4458014614515542,2.0576353390153255
7.946970327891497,-3.4664230088744437,-0.3866131321670837,0.31384920738901895,-1.4099929076056825,-2.8800086306067354
0.7718304056850882,0.7482407151768344,-0.11550181079955546,1.39683311685105,-5.939322512170633,1.6827606857607837
-1.4315541404364582,-0.41145560051336805,0.33080873199320093,-0.7044207485113536,2.8854691122787646,0.7607093465398773
1.3556933259879644,-3.81984555620351,-0.3796712831931398,0.6869441256761746,1.2871904843818385,-0.005599982235625078
0.6290897496187418,2.9462835987696265,-0.15327216823763373,0.0012963409424722738,0.8793990714709319,0.3432019590546007
8.558511273595363,0.18103676642780409,-1.1695941323816295,-0.857978962041158,-4.565864060202378,0.8632603177019749
-14.316881902276466,3.0999617053460757,1.8117891915791147,-2.242341262560495,2.8283436958113044,-0.10456894795538108
2.7534477906475447,-1.3671145671142515,-0.7525397875911003,1.4724959628507275,-0.6744912049892,0.4594492370503278
10.48866759689995,-2.5506675392281957,-0.5126404162221572,-0.9038362719748636,-3.848061232051619,-0.6999804435400165
-0.5335303557323448,-1.3076401647884286,-1.3867756043980695,1.6414031061695245,0.17479220446734622,1.0718713116875977
-9.448400014579512,4.5063275397426,0.5509829894447544,-0.7310654143256534,2.247350016941262,2.8174736664523303
14.888212203229859,-5.546434959588414,-0.9612653336289938,-0.88811924172839,-1.0510354005355156,-0.524236672074303
-5.956943275963444,2.8881716431781848,0.004121559155761956,1.0566436810691877,0.7541655279291208,-0.6428016530064132
-7.998254005445983,5.639501014966701,1.9277280234499494,-1.7428598346348132,0.9451525153615239,0.2955728822210097
-6.902242519601244,1.1050113881329997,-1.4032750840645385,0.5612834548383624,4.62079194066782,-1.358368029148711
-6.023846340622525,1.9250322384927325,0.5994231489139263,0.03999067619126706,6.877162214440828,-0.712789527831862
-1.1191683928357912,4.023330503134343,0.033137593482214456,-0.09112812583954505,-4.26052272281388,2.511669443277602
0.5526686904134497,-2.441651966421342,0.6611546262344562,-0.6982276457176293,-1.2594581487099554,-2.5046774920187347
4.255025049294394,-2.3231131668034433,-0.08119735318482446,1.808998891650044,4.449298194814777,-0.6162844290283862
4.027857200157717,-1.6365108818956418,-0.8661808240549393,1.5542908935912787,-0.6224293850496319,-1.7478283201756102
8.862012455197178,-3.4478911264395644,-2.379401210834411,2.014723063144728,-3.5209779503061984,-1.2505181358628954
-18.17163552312514,8.155755364003209,1.3606628540496652,0.5809748864224342,9.838948321548093,0.6313665938745444
6.549139255662121,-1.098178558724729,0.02724420704493752,-1.1370176357331647,-2.544259944793508,0.33943810239888683
2.972190368347896,2.011737828914343,-0.3769908376333043,1.73217974197438,-1.309267647634714,0.06343558284181317
4.98824180100677,-2.038532621734162,0.7832246836352621,-0.20163108330825763,-5.90427195633896,-0.6966012347104763
-2.4340158094493765,1.361480719918298,-0.5949440755499652,0.5616204900338773,-5.428206189346918,-0.13798076062072534
13.524932275799983,-7.508020510715135,-3.049910985469887,3.0207407440512277,2.707234936047687,-3.20033783441078
-1.6075668777470529,4.2534287894670735,-0.883998728664978,1.1536987599541138,1.7742487971568466,2.9451090613027393
