Gx,Gy,Gz,Ax,Ay,Az
-12.206601999999995,0.7303470000000045,-2.488998,-77.33800000000001,-515.5040000000001,1.083999999999997
-12.91228035773142,-0.6571513391627914,6.243299660408706,-1.0876830704540754,0.21130590055416143,-3.186388862905731
3.8491788639151956,1.809696529094218,1.7811424670124785,-4.838175906157378,0.7172676438968608,0.886921853016902
5.216945424124189,8.457162035948917,7.389497105754467,-1.8094308687115392,1.1469715142421812,1.3817070307021755
-10.769309462644555,-6.654155737983213,-0.33642957784159355,-2.229595132794208,0.5660799728630381,-2.1189550203394893
-12.354942264162203,-78.83955596757556,-24.84421644376443,-9.746808163043877,0.7168535467801941,0.05486388954800081
7.70822044477775,21.18256437009994,27.228010150152933,2.954956832316132,-0.7253829611198994,0.5997533812454903
2.35994896542868,7.2318773214008205,4.796899948230043,-1.5107469772702395,0.9232836017978994,1.855924000941322
-4.462257610967497,-5.084995509528161,0.2540599193634575,-0.44474195265543626,-1.5645603964235633,2.2522854129608896
-9.305925313690773,-13.23615811495782,-3.0338489196268754,-3.4161407852223515,0.7212666234417134,2.9212727929869318
7.060418663644125,27.981929008014678,14.361681636000673,4.902869916884671,-3.5569728502937483,-1.0021487404088534
34.54025932217606,35.746524088524914,3.8168186938431123,11.61704879487299,88.30452523277303,-30.77142781166664
-9.093331196251297,-20.40887679591192,12.715816179155118,-8.612086754501494,-8.774730319621986,1.2433018924512562
2.8387132568400086,-16.52732372312267,8.31906687864062,-2.622177302623171,-5.12829394663026,2.375892403195474
-22.788522126346514,-31.723150878006066,21.70693994846578,2.646714236770536,0.34949282900537315,1.2335360131544173
-5.171605859335113,-16.22494815570967,22.07455647898164,2.0466491654668575,-6.585501666660093,-0.8735657611024539
-4.990612251931889,-19.155090968635772,43.65886567351001,-8.951570928738162,2.6422588827616798,-3.1943893108826975
-8.872388121634533,-4.320050667213877,-60.82159471298387,15.098160888863092,-0.5157965898682201,-1.3435696744926697
7.604907840206405,31.51680084988244,-19.930378522899048,7.5141538277157895,-2.608742756849864,-1.651810444277684
-6.721504918040276,10.904888729888194,-5.5695483483492385,0.9030662545404533,6.269723971979571,0.2743676334018046
-5.418522247025223,-17.73427738057569,-11.960309022182084,-3.181027179488989,-4.745063096558717,-2.9141211032979175
11.087612512179726,6.892111315473967,4.929327501795679,2.7055042200334025,2.7168213666715095,6.136960246445092
26.250386166221016,8.640028303951425,-10.38260987222354,5.792326926703481,20.65797818477539,27.77856797986621
-13.586242483846155,-15.935583227055407,1.8366921173300084,-0.9872497736305129,-5.278968882305545,0.9203452609932894
-6.4256571664778885,-2.109007405914645,-6.156439501886561,-2.505249999778192,-4.388064457467144,-6.795454598038532
-3.7437835874103444,-4.13498248059636,7.017831682014581,2.3105667850021065,2.1897707898337395,4.277576869233224
0.7923325310293796,11.924121901404666,0.4508735218271287,-0.4122512366726174,5.669399633086291,-0.08020962232349205
-1.1172075716180312,-10.064039216151514,5.816032807007602,-7.055708249643498,-0.09759917391758682,2.622948395662621
2.632997226293394,22.50829278171826,-15.305958084014936,10.048283890112465,-5.157490063324238,-4.105844884810886
-2.3829739121236826,13.141203466650762,3.7637831257439576,2.4437729790532847,-5.690705043350432,-0.46567484559895156
4.003534212676238,1.669233267590723,1.2914732675921083,4.104390010071148,-4.221688939182627,1.561098874478164
-4.702236461025771,13.628001327431672,1.0141382662335219,-2.8185246972786606,2.2740933914645405,-0.9314359771979633
-4.156803866514064,1.8402106394911435,-3.3454616733982334,0.3863845956125349,-0.4070437901179984,-6.675070424773516
1.4883235303993938,2.958415652727516,1.5721001642609367,2.06023495728202,-6.267068507175495,-12.607008545151935
-2.063161020490222,-2.433148461462898,-0.7957599280962031,-1.8964318846760166,3.8449609071237996,2.66392166215325
-7.81403775995827,-7.856601032572923,6.058703356271829,-1.7475359170187919,0.3483395326714067,0.5151457773017608
-4.52652233012317,-14.052027945358795,-3.0811529846316397,-8.938598359799817,3.3983440761875974,-1.378749263355945
1.8722551510314078,17.425425863696947,3.9657234795055363,9.665211778522142,-1.6009522327391363,-3.8826972671595334
-7.6487632847744385,0.1567878963984075,-0.007506993186396471,1.4163419917479123,2.4524940949547407,-2.759247675587521
2.4356565596280086,-3.091368353178315,-2.1028019016774246,-7.44876834460547,-2.894698245825068,2.3622072024204517
-4.8171987559523135,-9.281769259489417,-3.60206573586322,-3.8370412116695474,1.4578616598588305,-0.5296740162451989
-3.4961747037324535,-6.973152894393665,0.8755837533415858,-4.227341651832867,-1.2909156871991596,-3.139799913377919
-3.3687398451133497,1.778925822737814,-1.1302881752893583,1.4410033436600278,0.3621973551329303,-0.5031145805443935
0.8566615470098426,7.326248269339275,-0.7001436904710174,0.9714031060490583,-0.6556770504484577,5.7310945424329995
7.968627320515475,-8.226332278194157,-6.646666302691084,-7.273819736210438,-14.38404459338372,17.119796041476754
-4.274427205653753,5.878789890823107,-2.187058102127075,3.12306982774716,1.7643684721740138,-8.162894801416714
-3.3466927239060476,5.688622657692423,-4.8578575135626485,-1.554618013913653,3.441475208516249,-2.661811095923882
7.007314700846383,0.8354287826441062,-3.132490817883469,1.3723120849437147,-2.7608437423858625,1.0890787178953585
6.146776362714588,4.018584837057231,-1.1039852298806474,-3.1489039724852037,-5.663034283889213,1.2203188149008821
-2.8197554576669135,5.461505360000206,4.1999654882515385,1.0580621001421684,1.849548178040311,-2.007829408726241
-5.677668283731316,-0.40251678348947034,-1.118489336771975,2.793228021310721,4.151777739056147,0.44091175269974237
-1.0268772629691296,6.049111868344601,-0.9136382179079567,5.814472976611762,-2.2350249382024394,-0.5173620576551465
-3.166931425747876,0.7088429908916893,-3.768850354875296,2.179744269283707,4.3192653428941465,0.21434186476974204
4.776430238305738,3.5373861447190373,-2.077153709814204,0.8737954779516117,-5.009692347591779,0.603249913600817
5.366082121805549,-2.14037816822602,2.3276522821305017,-1.1088366446407478,4.85179771936055,0.1603358638195156
-3.0594491397270653,6.503373020474774,8.3797127544683,6.181252449183862,19.37006455401064,-13.85961098100304
3.3965513598780843,-7.369558793969536,2.5165435339867273,-4.3729188482545265,-10.327430636526003,9.745845511733654
2.2113159537088425,-3.4442129640905903,1.4681101947696027,-1.9974225536261434,-5.597031301758946,2.603201914175459
-3.7721340129297953,2.168260610048906,0.39735832138825034,1.8961729614172929,0.7950970892867755,-3.059840780554695
-0.5875197252053237,0.4234048231356624,0.7518071554645711,1.778274137394516,-0.9732133705479555,-1.999336291300011
-0.648240925360366,-2.179922724365201,1.752143460513629,-0.860231122507009,0.20792547859146437,1.6915181926796619
2.1542120031861756,5.761975063614217,-9.736347497089382,-2.130840553745391,2.307206808641761,-0.7077052912775242
0.9765051571924825,1.5575377887294053,4.6843645417751425,-0.36689486242190084,-0.7589439366691879,1.319386235211724
-2.849547873737495,4.115254806590329,-0.6252191808056375,0.17862728661366456,-0.9449637279560972,1.2769460123906076
-0.23090837317613455,4.274440659958823,-2.406731775053589,1.360919673726951,1.2173021392063597,-1.3432759858470151
-3.8321431972742017,0.31252865022568077,-0.03310195261667559,-0.3996638663502645,-1.4565407109634902,-1.2960542069766823
-5.082853610657802,-3.3926083167190813,0.5275343231575933,-2.3291991487473105,-6.136112000275702,5.383930289222485
-1.2428992268754062,9.850025045763521,-5.0203865605106,4.170283379020833,6.363912418686658,-7.373569235576019
0.4517522788068013,-0.007226541335832337,1.3824250347113276,-0.6402287907417731,1.942613568934668,2.557452534443809
4.31210971628715,1.647929442651753,-0.8156799008771913,-1.3699136773339449,-2.4474821668491806,2.4250108500082503
2.6833421140325786,0.7792035328095842,-1.9293723724433391,-0.5839600499385423,1.1910650386015411,0.99675678270025
0.6440864479176056,1.8710705884215402,-1.3844634745034075,-1.463679262187613,-2.7691580826824236,0.6798672154724333
-4.535721077991799,-3.439868805562963,8.296174413828025,1.07257152523034,-1.462142388518618,-0.7076762427742841
1.9511552193787953,2.00786194411486,-3.28161121213415,0.42559583726953965,-0.46223735896670876,-2.4726718259555374
4.337456479793203,0.8474848453588292,-0.648435531231953,0.636499622982991,-2.4728045452876737,1.0945989898935835
0.8022115064515093,-0.0632989365011074,1.9201614052576166,-0.5363815644205174,-1.820695273024358,1.469240671709942
0.33072467942597816,1.4105947396344747,-2.301763396416633,0.018496191048408495,1.2976751348213842,-0.25379626380922815
1.70858407295731,2.216526928162792,-1.6461583349979794,0.894319467662037,0.7089792389234049,1.1582735594762035
-2.718511365878045,-2.0051849758372,-0.4126692711330321,-1.8085165720149496,-1.2273514696057413,1.7775954157814113
-0.22174851302866738,2.031747499615526,-1.168869471877955,-0.6690551925240455,0.2866755007671329,-3.3029955326395233
-3.2404331281812375,2.186360300249388,-1.6394180889994274,0.6679070332958176,1.001556174766258,-0.8670523350931529
-0.8568077627188714,0.6725058868195003,0.7551438229841376,0.18259890276951307,-1.6325689087093678,0.47807656194495984
2.8940472554090686,0.37257202461180317,-0.24733142768362537,1.5007778068461948,1.0518697654902551,-0.2776317860388542
-0.42801144613455266,1.252328868060395,-0.258416275095827,-0.8858759037012431,-1.777112624159769,2.744481138058946
-2.0001620746470543,-0.023920849763137186,0.3250618982745397,-0.8339289426287704,1.4658689844869333,1.0675913490040716
0.05578407465851232,2.4508034112225747,-1.2621172667974023,0.4303194126137808,1.9044592708918837,-1.0229494944434334
-0.4207062399786984,1.609558327609905,-0.25691575242014464,0.4337830510680625,0.21447741116560448,-2.1489128138475353
-1.3136746899225142,0.7631292842446031,0.9981646880930475,0.08289284063644509,1.1094674877133608,-0.9069296917497942
0.5221602490437955,3.143411450366546,-2.1014149769266446,0.5211201363999196,-1.1499292844878575,-0.17759367837939433
-1.4632902968945198,0.3151439120729674,0.7033137601312027,1.3994177686173388,1.436218688286294,-0.21768263047223624
0.16302033097942242,0.21813857598295994,0.027796191462567732,0.5607615792625721,-0.8060468976474768,1.2207556212432649
1.730961392181696,2.1445304792631537,0.7549423757814518,0.7567732846561204,-0.7572126935554794,-0.2826182783728189
0.13543213892931605,0.8409626207145569,0.4298361820987807,0.40397277334988746,-0.07168318448775912,-0.1876982528873169
-0.6188687833977571,1.0119309652840138,0.7988577604195655,-1.4799475869371217,0.46254213277322076,-1.2678677391582303
2.864944980831539,1.157449054793133,-0.7918480573725671,-0.3156207663305296,0.871877758741656,-0.20021176859178402
-1.6758944626073808,1.5822737527383743,-0.6660400238419435,0.706268820717769,-0.15316644614760044,-0.0023707119682918054
-0.8007380946613785,0.04520656880978291,0.811037654728564,0.21009782538945945,-0.6737996137438638,0.32782147378191395
-1.567806959622264,1.5766541960516618,0.12539123128897645,-0.30045143720065287,-0.33350299640788855,2.052245819298344
-3.3732110945993887,-0.3099106472292007,0.3744698272224347,-0.21790221322036296,-1.0293889755947796,0.5676124670578901
1.0718071930813367,-1.0641252166469912,1.2062208072385274,0.43544290470159863,0.1812033995930591,-0.5982923504880056
3.581492970460859,3.9324279510262627,-1.1259616969594304,-1.2309978354875732,-0.5588666162984064,-1.2408608352129986
-1.395231237689301,2.0037942323792883,-0.6823510084775419,-0.2909736954118831,0.9618237069205373,-1.1074524927158726
-0.4691453520481988,0.21468312213355928,-0.29766135213265993,-0.29989155344775,0.20730418693292837,0.07878895790156909
1.2026385417760777,2.6692585697029427,-0.7128999333001714,-0.4030739249245022,0.4956542853727125,0.6419820582730169
-1.470320688980671,1.1739104715366122,-1.4099728940690581,1.2870051003305245,-1.2304314319055791,0.2918736758166839
-4.592219402796711,-0.6246775609427047,-0.1620714621457391,0.41578698519541846,-0.38720549468585264,-0.5094409684231374
2.308010425336137,1.447022932603015,-0.0014975795334997433,-0.31576001820072364,-0.10805179906248019,0.20744236352320974
-0.4526538604921351,1.6648621048025882,-0.32563840845030206,-0.5577953364142787,0.0751353844624627,-0.0519621413950741
1.341133089800335,0.49525345218968175,-1.224044857243342,-0.20320368717420345,0.41285717344483197,-0.7152615363890189
4.918867036358527,2.4137559974284364,-0.047031900976890584,0.6082300200062468,-0.7278470081540259,0.5020839523087537
-0.2507934146661529,2.4073837305714902,-0.7148526703579603,-0.02063464198150733,0.04870610562303668,-0.12870767893575596
-4.958289551045519,-2.048611256942151,0.01671663284517562,0.6719769294936647,0.07963312621036889,2.3658027788913043
0.6678373840748658,1.31885573786506,0.4329831519492373,0.11894600832687939,-0.5994925675205761,-0.49317319240105567
-0.5605266779695259,0.09256856023911164,0.09698983578558168,-0.15122252962970595,0.026999288755737164,-0.45220055778734564
-1.756273390944581,-0.29281174227385187,-0.17050099658035087,-0.19243107838513424,0.02702412489493214,-0.7481545040377029
1.2989776055770461,1.0504490958404515,0.31219807061156163,-0.07609683852790117,-0.1567566026634794,1.1338783292601202
4.5642080717181575,2.710306163827099,0.17226885773612444,-0.46638129148787477,-0.3542120148089437,0.11544470873088944
-2.828962034798593,0.713785739821288,-0.39399366409592473,1.191367930197903,-0.6699834514796883,0.5536940690505721
-0.1319263087118312,1.5249833012635587,0.04596771353551565,0.3052090093565546,0.13302946509237035,0.09729961076717217
-1.1630486127723456,0.7237394063145249,-0.5506402617190695,-0.21246956185052193,-0.032773944423672485,-0.17239440509990828
-3.231719425110788,-0.31026524651413756,-0.4189430640478286,-0.5391934295372166,0.17925926943080317,-0.03823142921795619
-0.12086312431713164,-0.28169510888789695,0.12256184666289349,-0.6798411703496963,-0.13813679298495174,0.25496329832340603
3.418005631768198,3.5694452717420844,-0.3602140684253332,-0.43914704051704956,0.36734231008013474,-1.9890524937486334
-1.1128312214373641,0.9524281510302224,-0.1896064624335307,0.5291960532212516,-0.5212229986977721,1.4746452773043068
0.06524705013038179,1.3925943720247624,-0.26914179346942924,0.3074560889915516,-0.2897864256873072,0.07855572279123002
0.5347334899249176,1.3221064452260631,-0.07022184844737933,0.2993085777136698,-0.1578955299434846,0.04297399624338033
-1.275073341390999,0.18871150696832228,0.20462466979871513,0.29510137785687635,0.5987375062503053,-0.6685513241487212
-3.0101188905300647,-0.025200211554509133,0.5566913474038213,-0.03591208683970775,0.21833375438581534,-0.33065226270661335
2.633413967501682,1.2647611240910708,-0.615379862628785,-0.7333721135240459,0.2597470920103141,-0.7067251193498921
