Gx,Gy,Gz,Ax,Ay,Az
-11.921690000000002,34.648442,-12.247314000000003,-3.8000000000000007,-422.544,84.434
-4.0649791596534905,31.889140027915946,-7.819490933367731,1.3914024552587652,-0.6151456684578327,-2.438383836954291
-0.4419695361595255,22.03422050080201,0.906273087954397,1.5888591751899914,0.6182352124776469,3.0733172916619678
-9.20653891631506,23.06529443148143,-5.22626946453017,3.578516766222422,0.31036606145748136,0.7275845855256462
-8.217890918496089,101.47900722031088,-53.700701528105405,0.5115899377554036,0.6695641100976253,-3.2932053853078234
3.3684028930442604,-36.83178721182233,4.461678272862737,0.8526901422290654,1.8454257512971934,3.268963421117769
-7.702782703405979,36.741604864465025,-0.45757461275947153,4.845039069395364,0.6398528241893363,1.4096660848171425
6.668457728063738,2.987332074563364,7.486320631948696,1.340428422517145,11.759176704305832,-10.511350303480727
28.844177781458153,-12.083911649690851,-4.605205948653548,2.95570435497458,30.182923619374954,-54.81457106850314
-3.1233614294394187,-9.13817832353119,5.889467455130006,-0.949631300873109,-3.4315882249772294,16.098778747962996
-2.188766861384982,1.4878738463752406,0.5669569364587929,3.4136814360501493,-2.6672264941495025,1.3032805790793276
3.166830723310788,19.30976395413849,1.5709209200917178,6.207582638762378,-3.4924881270570216,-0.2710518652350309
-1.553071558088173,70.66996642357014,46.848430355842915,23.202542045097616,-2.3996260664227353,4.397260032911151
5.58750307887941,-31.185498544210677,-12.044657488716409,-13.715009208554966,-1.7795639046458003,2.0064358620838156
3.4577098246250584,-2.7577567744196987,5.056309667011974,-1.951301934569456,-0.05166890349060449,4.054142222495887
-2.757004010679142,-5.486203385484902,-1.36863674260477,-0.8902218120214822,-4.186989424530628,11.933204914040088
2.1186690516316657,-8.199847966338695,-0.28242950497726493,-3.2018891298838774,-5.405768166019378,2.5310078611634665
5.401925178581823,-31.187847713862144,3.1264980187189,-8.928381472154296,8.629794695382511,-0.5349120778270269
6.93566490502614,-18.05884336690676,0.5917047447906514,-4.9204000160491415,1.0440083426225955,-2.058875251250488
-2.2337927609708013,-30.111203551813606,-1.2592002904887698,-21.207834596507645,4.343729727055208,2.492182250973943
3.833321898897716,-30.703283117447285,-0.3192930201270201,-3.321695771732726,0.3877612531945429,-2.204209241331947
7.286822517816435,31.837527121302646,1.7158119381177463,27.810844812749806,-8.512819291848704,0.4361727030615186
0.6934375607885837,0.24439480014730175,6.270437206278374,-0.1351357648667173,-5.640039436957938,-3.929251329527286
10.139549109736947,-0.6035821512548356,1.0670136170018774,-2.554132170140187,-6.24791229704003,-1.3467372624137495
1.129431367877284,11.591271870998321,-1.314211318119003,13.340825787278956,-1.2702245705807371,3.2152179767732587
-15.384149375224546,13.937886155795251,-7.755591518837365,17.41327533372482,-2.1806812948066896,-8.971219997252566
-6.692020615141944,0.744262333784763,-5.456788591731452,5.173928289208352,4.682580431628381,2.3166484351226035
-6.157458141742919,10.923019306969353,4.0285067611305445,17.8077192773111,-2.21119998372202,-0.8327412666243098
-11.946728362958043,6.380973482434227,-6.426104214713047,-2.980269109482355,5.134333884915864,-3.2698531880806874
-5.855285382224436,-5.233627743329755,-9.844522430324965,-22.634992057135417,4.589159138838261,2.473922052960403
-4.21882630528302,-0.12107471177030504,-13.533766007245891,3.81732890970404,2.15880263677375,-3.0248507491299628
-6.70961371772096,-1.7466136364131302,-2.8288330738948693,-5.14766520353864,8.230878189880798,-7.981331110089293
4.89912584165713,-8.558896676743846,-3.9213848477674773,-7.180077773460281,-2.5138792004508765,3.8218746171473175
0.5733995781069967,-7.104064590536158,4.920597668914128,-4.127032303969746,-1.8249851343598178,11.339082251011549
-2.4008366729313915,1.850985054780068,5.322453625176399,-1.3125856102676359,2.2419071173092737,-3.142711352154347
3.351678892250068,-0.255397049064646,2.989485845195362,-6.948967488961162,0.7636931245472929,2.1974592851492396
4.5635448970702495,0.9353863269721865,4.211657251388058,3.731006818490736,-3.594395924431364,4.24302154005703
-2.1042821166220795,-6.488220366402192,-0.3778452030495947,8.442578401524777,-4.519094267171755,-0.7892996821959315
2.543802848655907,2.508905948676803,4.424839831050697,-2.697632956323795,-0.6319740674522318,0.784307748044167
-2.921538235262741,-1.091782706362272,1.6324081771476306,-1.2409331183439445,-4.157478409588428,1.8186053695781772
-0.8755053570581897,-1.880974271800904,4.03771058196561,4.709556012997427,6.466581592595482,-5.9312741555831545
6.50567335900435,-2.0683419327597092,-1.8015807939723834,2.089402008953179,-0.4963947560436559,2.494661142377376
-4.594503909487093,-3.1798960401958993,-4.654404034024873,2.838530136092464,2.20696455021257,-3.685659066807824
0.5535964348279085,-6.104074237984906,-2.6329058701045276,-0.8519007085145702,-0.1706696642269141,3.7884511934954017
0.8393476087100429,-3.2855611283068384,0.612925321490434,-2.7179679977749664,1.4689244253122271,-0.46380108972852274
1.6090682133994392,1.6499427131195716,3.885965984867205,0.7935891325752524,-2.4601057508865445,-0.1762780293590036
-3.3525872512338895,-3.7485030219724984,-2.5194115103610835,0.04136083267092139,0.030536125027001315,2.2885341417889946
1.843952365256713,-3.3254106355563993,-0.1969960258504928,-0.26521829961931487,-3.218768965777131,5.354100553821166
0.5427434866968492,0.13515401765408552,1.2607267571262584,0.0973766197785868,-4.319595238339929,-2.5222559041769834
1.0584352407837598,1.198315482923992,5.1100893981701425,-0.049046421707635846,3.7696942040773256,-2.1449547859941944
0.7246923609667086,-0.6400752336578526,0.1577692502567476,-1.3181346319025389,0.9709093499314436,0.36592985671027645
1.6021719597996829,-1.8573103760505254,2.45537346056906,3.063161202161034,-1.202433639205382,-0.5859967087318639
0.2770331900427272,1.075886700590015,-1.14932269968635,-0.8947566934858433,-0.8441363988335546,1.740240455091612
0.27084425743674634,2.2045600984550635,1.7296367954059382,-2.144535280098793,-0.9956955262170044,2.7854440097513944
0.4828360620477965,-1.5783896099025898,-1.0996515629970425,2.305202859049168,-0.8011877529568039,-2.9985376684913954
0.7462220515085689,-0.21279053188095598,0.8315873339957691,-0.6352047195210725,2.2742894301489143,-1.127224095252842
-2.8811693249628254,-4.690996963589868,-0.6085383006705152,-0.09115556533079339,1.6779328213087403,2.16086527979078
-2.2708558053286896,-1.7424558735333058,-0.03904740359430314,-0.5912410194256705,-2.8800685460771525,-0.4190201478872232
-3.0600098872897594,-4.046402512262459,1.3492142189497818,-0.23559774803025424,1.2016979221863484,-0.7296760674027238
1.7534839756618759,-0.07897427015613023,0.6906452254867045,0.04429600284885016,-0.9349963002757223,-1.443674535896909
1.041395662077182,-2.1200502579551426,-1.3008378840812262,0.27167886547816306,-1.0853714196541557,0.1397579667042247
2.356081063106802,-1.508424341397377,0.25239800435433524,-1.2529687133551328,-0.7756982090297233,1.6115333004934085
-0.25264533175277204,-0.38621613178918457,-0.04141457356866163,-2.4523211160400775,-0.3138901790230103,-0.22672507849293005
1.7212509756136054,0.37489830667540547,-0.19910398003790597,0.8294738930888956,-3.051963376234636,-0.04719104457666168
2.6637418983615797,-0.5174865871630527,-1.1429278485224619,-0.3210603828041969,-1.5932487681238463,0.6321823539342333
2.2245345122463402,-2.397919814547042,0.9335705515487877,0.6680994992163946,0.32457096302360977,0.2022637214583637
-0.9167503877320661,1.8345714481211741,-1.1455729977949947,0.7417886106442171,0.5029567196419574,2.7747995275130544
-1.8373442827032076,-0.6481446076242174,1.1252683616024501,-0.9421453222398622,1.8116907887581184,0.10993408951734451
2.3753418578033725,-3.1682406250856205,1.098335736523086,-2.0491120204241637,-0.7480943292592208,-1.9305339408882642
1.214071373381464,-2.7274672774141786,0.3824965844993147,1.6901313290390005,0.6912244649073807,-1.1832972473869043
-1.9146094887107385,-2.3519244863253608,1.6170686321223755,0.3545339497779775,1.6367161965337447,0.9280795901776515
1.1297223215207368,-1.4953021049513704,-0.6863224960461758,-0.9876025752233619,-0.3433694152161666,0.6549169576159244
-0.03295193311031808,-0.5870432892888588,1.5281404499408575,-0.9882733751184454,0.6034707707759885,-1.1598675470101822
-0.6552189213647933,0.8820870539944753,0.44763621420824173,-0.5206276895760382,0.5248810450765224,-0.2972371278708943
0.5211911948132848,-2.179869082952393,0.1761675734053686,-0.45592120786959606,-0.6345874183327955,-0.6183666358746778
0.5122840879794821,-0.7602576078551776,-1.236549549834866,2.2940337570127975,-0.48266628105629095,0.29921231032488016
-1.18432731047493,0.805942030014128,0.7043243516925421,0.30838394043935624,1.4318170799223753,1.5991207482577836
-0.5552618294476828,-0.20765628099083297,-0.16710686249916618,-1.7623955202923598,0.017142437876412786,-1.2097321281001319
0.6413732895103554,0.9743096720205024,-1.3772196047183414,0.4336624842267367,-0.9872486957019074,0.06318160949291562
0.907294043189282,-0.6802988379670354,0.9461758831225993,-0.5933727429077859,0.7068000455062372,-1.3401768175264541
-0.9411641855005493,0.3854724984364709,-1.6779833815317975,1.2302301553017585,0.021051472855514675,-0.46803499513001245
-0.6490526319879673,-1.68617133249816,0.6759779108525326,-0.6794978669503785,-0.9185153245076432,1.6283317648376725
-1.375502886793711,-1.5731798260995427,0.48859886970315564,-0.8669469186629006,0.440015544731844,-0.6083510267772148
1.299638717251216,-0.8250153045693827,0.8470151909257255,-1.3600876486990983,-0.43234829957900023,0.38672350924901244
-0.7348309154159638,0.7500491887677594,0.7935669940257929,0.46699314704711437,-1.1387896333832983,0.15545497885289727
-0.3842156364164579,-1.6823514149444159,-0.4355996450418855,0.9726793201217895,-0.8041917832595997,1.569404240293744
-0.5043634339473141,-1.4205311430112604,-0.09522525831485829,-0.7587950762848775,0.5940008292017807,-0.6281837102505956
-1.5825822392987274,-0.21890715191435817,-0.008187945377316708,0.43597665198008895,-0.3437352915631041,1.6997479648588343
0.24176360540512898,-0.05014527079680603,1.6177841937138893,-0.7451265246295973,0.16689557034986358,-0.3296164829695458
-0.011639592387071351,-1.0586789853266718,-1.1102912167111643,0.5353371448183383,0.30341084389938966,-0.574929007602136
-1.6440706263152216,-1.8541197769695892,0.2716117033920653,0.3761287527524621,0.19453738269114215,1.8192578458968816
2.829622562570618,-2.3693739312038864,-0.2419351778271373,-0.256246988589253,-0.4381674331031266,-2.149031871424114
1.145179381222957,-0.2981871460406511,0.46667435253865763,-0.4929578280312744,0.5005734564979979,-0.3318140785536006
3.321302152483495,0.4725821627594853,0.17620315222246308,-0.17401579442129056,-0.24116415723903808,-2.162682091963471
0.5787637375894734,0.28239757003192123,0.6447980503500784,-0.025767318438266795,-0.1664649953214869,-0.05559115434133294
0.8766027197478168,-0.16184779649794157,-0.4158125529357761,-0.149778193114386,-0.0061976073693283396,0.0693209790940057
-0.07687586996890605,-1.7255190521855852,-0.4226946961005113,0.18979376268328252,-0.452485737413026,-0.2770768945045363
0.8288836127901927,-0.7383776647744624,1.2981436523296481,-0.22391170101389368,0.32782696330434713,-1.6518685591080122
-0.2133507164942779,-0.4307837716580136,-0.0328456305745457,-0.36533049855766814,0.343083239811965,0.38333550377394543
-1.451758356772764,0.18060546230235697,0.6975397576969261,0.6995458940209058,0.5138403603782397,0.9716270102301544
0.30537294197531406,-2.373803236556207,-0.2992923280627524,0.12599477468320291,0.009721345340494236,0.5310342247848535
-0.650551704367613,-1.773123446964333,0.3817000579494134,0.07563768718808106,0.19454042798067625,0.19879974834784764
-0.08598359114770882,-0.46710635523613564,-0.41319218856538,-0.42022752558233734,-0.48882306044775664,0.20695882404630805
0.30587610471102844,0.13967077050853238,0.42846166016396336,-0.07302179390277963,0.07702074129141365,-1.0500039267318422
0.06649162689472166,0.38405080368922584,-0.12393699983135026,-0.5790203343026392,-0.42629800357336034,1.4866776760794662
-0.015484685610291427,-0.8967325119889651,0.2657638833519126,-0.022839848405743435,-0.22692875380392907,0.5865852041697807
