Gx,Gy,Gz,Ax,Ay,Az
-4.566007000000001,7.658718000000001,-2.2624889999999995,-43.343999999999994,-719.8980000000001,-48.46199999999999
-3.3753711611740633,14.499878757312452,-4.180558711689749,0.7201915357208182,0.8614035098306905,3.8362168908786267
-5.4829497776699485,23.426222140242533,-2.775801844359257,-1.321213487780415,1.6021711294560887,5.961921932751762
-1.7135727517184847,8.04999957237847,-2.0879075147744763,-0.81741881027719,1.3347059539386947,2.0548944119246366
3.5156327514881998,21.939456631833657,2.999397052632685,1.4193211525456013,0.9277068019435557,5.009793597803226
1.194569949327352,19.500152629790733,5.392864567079652,0.9432733150785784,0.4905466329175973,-0.5299164667637304
28.93322823619777,26.88078888583029,-9.390101009746408,8.843814090635808,4.3712629008606,0.11553336177022056
-13.400199443387564,-12.68617018505742,-5.134409410743877,-5.76542559849292,-1.6013353837824642,5.832782613436476
-4.781368065869998,-12.525569921276388,-8.728970125837657,-1.6021447331103118,-0.1627148984879504,3.848453927597708
0.3508948722548234,-3.1262784360296143,0.9095077345603202,-1.6004559424210139,3.0277293849871967,8.90774108871968
1.077728504076117,2.4671432621981726,2.6029815654388138,1.8315974087722648,4.599684292204788,4.201219037632429
9.212521201132402,3.620339166920596,-2.7942979933426058,-0.13311444743996648,-0.3102064367927475,11.274081567130631
15.640492742315416,14.926278443482975,7.7860236406605265,3.6072271793355175,3.2682552475132844,20.99470231584216
-12.846980093626906,-18.893634056556362,-3.507607128250093,-0.8241541909651714,-10.523436507634987,-46.62372071183181
4.253156054365387,-7.719742258872607,3.208733605507357,1.3644040441423904,-4.548881880164559,-10.468807789470603
0.5008022494354024,-5.5547978322354545,-0.23326815817440938,1.7671716939893163,-4.892027831115761,-2.7656435165048174
-2.518834931354643,0.7107210352574926,-1.8300922770593604,1.5988676391037058,-1.7458849732916903,-1.1455617754868
2.215662043836755,-1.8481742679039652,-1.9672796985231764,-0.7125454905955784,-1.2343339694453377,-3.8092246558767324
3.5117080485666325,7.484231467268522,-1.924042575316689,2.992730392019178,-0.6641352506740096,-1.0521184273808168
0.1726327756152056,34.14869476362907,60.52838076225448,3.080947905295374,-5.635094812684991,2.7094650756805527
-1.9895317852704832,-28.331527565250163,-2.0318445915140066,-4.321759743937017,1.0846204102508499,-0.7088228752460202
3.4103323335457354,-8.121574276648195,0.5418117225982719,-3.23398982509808,-4.159555154908486,-1.657741647163082
-7.203395438566092,-6.920728730578879,-1.9040172097049681,0.2627771101602383,-2.5164992603316256,3.303085832468165
4.068320334270512,-4.122889310654038,-0.4016418151754857,0.4883644769069083,-3.8469062410024213,4.329768916628705
3.853240337698261,3.9825251249644253,1.62128265812256,-3.053121519760439,-0.4836537542258452,3.929335588415489
20.446575132190027,1.6933280109749975,-4.239367508604127,0.7643675623261894,-9.847586542063318,18.475276663165012
-5.506106935452545,6.530901655791925,3.824311802421032,0.7863580071153167,5.983530590694435,-15.09849696060251
-4.058422374093328,-3.917935785607744,5.330025206827811,-0.46608281355102665,2.548702372837381,-5.07201712392688
-11.637775360311569,-4.605600046004625,0.9475738292387685,-3.8665742927540103,1.1874914535243573,-6.854576316893748
-1.359653305592768,3.328600679621454,-2.3379823841145697,-2.1854612362179537,0.8246606191248981,-1.9446189155739493
4.233847599337112,-2.1508992832233975,4.25863944023037,-0.05235965818588517,3.534021580447787,-4.563752805960506
4.5051119396077715,6.55592081052969,8.117446739898721,-1.1080448206230564,3.5551378191228897,-3.85113178035828
-22.554161037437865,-19.75720105047075,-11.934934434336919,11.120432966845154,-0.525682378732013,2.1513472328306666
-4.957384968038166,3.6382317566011855,-1.031716416985282,6.329875141142281,-1.0817384744769019,-1.2021625275975067
-2.303972399323089,-2.50416407884647,1.163801238739843,2.5833113373003367,-0.40248132785556123,-0.8261498548067356
-1.1495217139762202,-4.88262979562911,3.0361128032014713,1.003106769167375,-1.8275965227342743,-4.285270874292637
0.037267690887949456,8.02506039968918,-1.1288462096165635,0.7790139631848181,-2.5709050893439604,0.5983630038851973
-0.8230574233520283,-4.414934569398422,0.4456944278579673,1.2977165899588623,-1.121213301766733,0.41373273647458486
22.019681392965083,-2.5252903065960983,-0.3220331208182432,12.920798075752604,-19.712486034159824,-7.971693644652329
-2.5384564934547633,-1.4380084244849474,-0.5093875253480471,-0.7476006890244933,0.8361880687597528,2.1405078771539428
0.3633559932642747,-0.25453950047617546,2.759253752266609,6.219022545035166,2.7049224121924897,2.7554710961132773
-0.6376958800308126,1.4587579614509143,0.018920823144802146,0.5929904036496285,-3.5090017355082517,-2.022240069120206
4.824002624285717,-0.3870513145847294,2.344448675460706,7.284220949073848,-2.222496773128844,-2.3720728751378006
-2.774487688639864,4.714663648151724,1.8545481435720808,6.069182186916902,1.9481141243633067,-0.3594611435814983
-1.3060255556367926,-3.7765372986398997,-4.627605095351143,10.212392800492685,-3.1189675880338097,-4.229618463322698
-9.337825475471885,1.915485443258986,1.1444512242047682,-4.993475969800949,10.491284976362746,2.28373551967384
2.445347484701855,-8.045456758699837,0.9315290316179706,-2.334029982637076,-0.3790252449402647,0.35635515827260633
1.1659940443421668,0.5569850860892744,-2.541053740429297,-1.6374249463877937,-1.8946825063291408,1.791042337011965
-4.805009649364582,0.9736399195119905,-0.726801527180554,-0.2498138305646691,7.416578064600237,-0.2988685762879649
-4.637556727923933,-1.2158974794536377,-0.18439625941910975,1.2039416753492793,-2.5761476914658052,-2.2328439092275256
2.0660566758581638,-4.526754436102023,-5.50070861597942,-0.3652427842140804,-4.866974594092092,1.134294034665482
-16.180955940729923,4.127302800394333,10.759796338476674,-4.674314229371216,14.905800651690782,1.1174143131304017
3.0764365020345625,-4.7920184609937,1.2993702870429416,-1.8089543373002201,-4.523021114212288,-0.1120397592893636
-0.9240112240872147,-0.4611253299050051,0.02329129133771783,-2.0832214999291137,-5.187440922217247,-2.137143618446188
3.0986688014238264,-0.4012245118578015,1.5585447029533364,-1.4621373859625755,-6.11424844747512,0.7954250516049026
2.6997487130944657,-7.251196672571477,2.1648363854685133,2.034972789917755,-4.2754026214689524,-3.2086885579924713
-2.126065840316138,-4.9603156627976235,3.1907287273600895,1.2711507672933298,-4.8156594482432284,-0.0789533070353701
0.024897370116978124,-11.507796325948851,7.185042053939839,-0.09500309900622561,-19.468581534632992,2.9297104927250484
-3.7080648066485904,1.5297192905793568,-2.9226686098494925,1.6015698806774363,2.73830237302469,-0.6484590558501009
-1.2317925858679586,-1.8535386538402654,-1.0453828378725132,-1.3685920946481498,-3.7229136791078394,-2.0739131132162183
1.9735146864135376,1.306187263968334,0.06693723210559055,0.3749732467342053,-5.147269225307367,-1.0176736017582204
-3.481824324305129,1.3924189981726718,-5.367236740127048,0.04160764544096357,-6.4988516536508385,-2.196393887345375
0.3422873902736646,-3.578376736665658,0.021980973034926743,-0.8986220620999945,-2.9177233543659256,-1.5111641952698256
8.060519970072207,-2.1998808049116487,-3.875810408837082,2.3829686097437976,-15.380491026795719,1.2565078216221015
-10.836231037045518,-2.6233990300366097,3.576959369343551,1.8634817003909205,13.961572598785667,-2.4065769778953343
-5.0408006781677415,-0.5351380010876887,-3.6976774301437603,2.3506748239412945,1.1541885120897106,-1.1340582652553308
0.26167182957218266,-3.2332130268045205,3.1965615901139177,2.9383939139835586,2.0518717976107412,-1.0249650204621612
2.946937404369252,-0.9225971476283046,-2.3479720157894572,0.33746912796774514,0.5912314488949589,-2.783887879420312
1.2606558300918653,-2.2935156823246245,-0.7557579821445017,-0.24494409135176587,-1.363733990542837,-0.6147851406579414
0.8147729611568253,-2.839130188516353,-0.9550869433401671,1.2940938971866502,0.9275045078240627,-0.40792643583355814
6.8413081634300585,4.0272764231078995,2.140363706309408,-9.31083194512844,1.4725291222451955,6.76208049825143
0.683869914915511,0.766565528137746,1.488252937216185,-1.526562732524384,-3.0875037591269026,0.8880334545513812
2.4401748853082132,-3.580029896214736,0.7152530418943019,1.955622536245277,-3.440444187764794,1.0841156241711083
0.5512828971979942,-1.7184034271713342,4.2416128119430345,-2.16134158420093,0.7388813140469628,-0.912746742291118
-2.9623968943471297,-2.2625843238315295,-1.542460091657221,1.4639069370486426,-4.8258643632131655,1.1158227929693374
1.5177801487970761,-2.7378863277168777,0.33715300053337094,-0.5905027007491741,-7.9410291446034,3.7173082252834653
4.81984015924535,-4.56283647340795,6.785362861905483,-2.3947924010311006,-12.471692794821136,7.667947616416848
-1.9997816518914928,2.7566350089218608,-4.672552452544812,2.5300171866420342,-0.41735154650536455,-3.5121616483566287
-4.233891148157211,-0.7017397227124026,-1.2205889015412956,1.378400114546957,0.7820921344234971,-1.916247783996386
-3.8553016783800897,2.0630149529262507,-0.69201091571342,0.9430559581376404,-2.675793967795016,-0.9649237446315279
-1.5188278971438773,-1.714078688958753,-5.277999116896375,4.084851797192883,-2.9348917544432616,-3.09600442203679
-4.87959243730304,-1.1849711122660191,0.7527545271152865,0.6339479133274922,-3.727717008859926,0.11067236378912026
-0.8234051870053587,-2.8336031575267393,-0.7941964858059434,1.1689054443090374,-9.284983471816785,1.2413311149494983
2.2313003865941896,2.587603142330436,-2.4287629522433676,-0.20868119625685388,9.692048124129965,-3.3836855813023097
3.097814468825969,-1.6838589689165417,1.2088676902678104,0.5244456260454438,-0.6840216768237382,-0.8287607982040892
2.65600874157514,1.2637297944654762,0.35287905719277457,0.24297440291093297,1.4619850175521094,0.6686339024119099
-1.5328149659741164,0.6897582789732757,-2.809069288607853,0.9786044436474162,-2.8516709836665814,-2.0789018188945048
-0.182268988619408,-2.1643870692093827,1.6730745942586966,0.7423666565610607,0.7298401794395186,-0.9567208768116438
-2.398682649972633,-1.8589949851287075,-2.170446494625786,1.3305458346806207,-0.8008014394185237,-0.39154681805776875
7.967850471454527,-1.1506750005030533,9.184597989070014,-5.945987339478679,5.746458635577404,3.9078982186520843
1.5247972262303962,-1.0064435918195787,1.7968588132034151,0.696428248670141,-0.7562761573581036,0.649356648683477
3.908110355448241,-4.456225385771928,3.313894005954036,-1.1082322657381356,-1.4736107534855352,0.9968294843056364
2.866702510539551,1.9909961491616326,0.6796582288086425,1.1889794910098181,1.3560773425045287,0.12778888703857505
-2.6339011367964025,-3.380420212579482,0.6129737737336391,-1.3956014017363485,-2.990835590547645,0.45373290689433254
0.8752557004457673,-1.694055578061295,5.163801732734382,-2.277250345672285,-2.3525016892871333,2.358658966287977
6.325733547275702,-4.156276927776087,9.128369720240068,-5.153047769177319,-2.721280824422652,6.530109376362748
-7.783318127116484,-3.330222472033964,-3.377138222052151,1.0394716998295659,-1.3960515990035496,-1.6800957572244781
-2.7767323499242105,-0.5644168002350216,-2.24632604620607,1.5800574912390717,-2.720262761386225,0.5071478396533107
0.9271336419399041,0.9353310271710917,-0.02172912033355273,-0.47380801890503066,-1.4990638377117007,-0.945989854974264
-3.337797866048926,-0.8235280578680326,-2.15860389828999,2.3438381343244536,-2.9625232519744142,0.7790147080094636
-2.3252896003509087,-3.165683175321445,1.0334487239709855,-1.3300422984222986,-3.43915233717296,1.7683226624969164
-2.1101392437400337,-5.964201639260887,3.0536127565013045,-1.2624031687831403,-1.2361588747331846,0.7243141731567311
1.6666032223506697,4.241322913400518,-5.054422850071064,2.979726603872261,3.1540206075456503,-3.6677720782636416
-1.3197917354969302,1.634591703500048,-0.8617037210200491,1.829940863264408,1.1825775055710577,-1.340069739549618
2.01938397041266,1.4624377356004805,-0.5623095980479821,-0.20307346273961324,-0.912972022650347,-0.15070149359037732
-0.1853046936621161,-0.05153574251971743,0.5245666072824428,0.5695231317123131,0.04646325387848349,-2.093857807982861
0.45353568446596215,-1.357260890517384,0.2925359429389012,-1.1393915301419633,-0.5489394135095773,0.9416721750081909
0.24256631215279523,-1.9453952664708467,-0.5463711270121028,-0.07341697430147376,-0.8790496600025479,0.6443311672330225
8.804895708832236,4.3407334951383625,4.265321098526615,-1.0363446802323897,2.943888254225002,1.2507433624268516
1.9107517417700124,-0.5862948227044724,1.562441100972344,-0.3462923276891683,-2.552225728003024,0.392406478985059
-1.1066052328903897,-0.7614415588032173,0.41416543380384585,-0.09589012537574115,0.11304623643271516,0.9475861984744369
-2.382418954923104,-1.6203129321856666,0.1694574610737632,-0.19998371801897263,-0.35264079305067564,-0.08422549137904939
-1.549125625706795,-3.761029473288346,1.8740780640190176,-1.2282137330580793,0.5387173637645508,1.3879934461972558
1.0964659123111966,-1.857470025398494,1.0339867421418347,-0.9196028778440247,-0.8650855473335753,1.5280844986019282
4.17434106949929,-1.1046514142950377,5.093249559096895,-2.3486373020846827,-1.274481884019682,2.175247431685341
-3.808030736984416,0.2667560697950446,-2.856668343923317,1.1543521690019087,-2.3298001287945995,-1.2473683048308826
-2.6842763322374714,-1.9006330017572184,0.661904615077358,-0.661605596103618,-1.1066875697024074,0.20142178915068715
-3.62593995453913,-2.302237441027926,-2.627612649295439,0.9604854107310715,-0.6590884754994684,-0.15754723807605842
-3.6746038323913455,-3.0693376864807966,-1.158791030966619,-0.5951212533056395,-1.871647538390967,-0.4705500269463402
-0.19096325695949457,-0.9101038796198687,0.9291671698646475,-0.047994260303430236,-1.8316296888261157,0.49072778925227234
-2.175277443912686,-0.6925984427366194,-0.9029516788715315,-0.005454645313931472,-0.0905138856244454,0.6316977183448823
3.960831057003894,1.8079780791066202,-0.16368850113114086,1.9894481838166342,0.015697508371199875,-1.7253882820719038
1.0316664571712804,-0.2601430649315347,-0.6250434904585669,0.716488798507251,-1.0675149516081144,0.015150472884174537
3.8787332427713572,-0.06874671386454834,1.292208199161899,-0.7218765546924975,-0.5744006407560127,0.8659809847209226
-2.3153110317271124,-1.4854211554665013,-1.9942299064192737,1.5247283440125055,-0.44175320573806964,-0.12652336902803318
-0.29341843288949454,-2.4787487489762454,1.2797890640086285,-0.9698576072061289,-0.5855643766035923,-0.010618192298276319
1.9154812934419199,-0.8547368481968498,1.4146039675132123,-1.3365680661945483,-0.7921023077895332,0.419821175765225
3.556978431014636,2.046025180174689,1.126553049126618,-0.3155208105457701,0.9997122994459786,0.403635666410887
0.08551190474730663,1.0954964384745982,0.1239563130984378,0.22495796823785774,-0.6761812654088262,-0.1626282288613755
-0.20671974444089936,-2.064023942341412,0.7373491025331502,-1.4004708962189623,-0.8658016661513994,0.8310602044755294
1.3055590527167493,-1.4702563651082163,0.854205568879054,0.0096881810666134,-0.755979985469929,0.46124089269624674
-1.1658236359721594,-0.9414648229517085,-0.48914882326856524,-0.3281635051034273,-1.457283892113884,1.346015018280706
-0.9104537119234543,-1.199211262747154,0.38659781682537553,0.026536562933858976,-0.8922013448166565,0.838975736443527
2.1620514277751437,-1.3931722128098698,2.7221340508558063,-0.8547206151340099,-0.7555555461322041,1.8390616633115613
-2.6365812382132243,-2.717955751299949,-0.19584144313918989,-0.5550106040277615,-0.8133815673353941,-1.1693243404888152
-1.6217764619850787,-2.097367076629687,-0.2238143370860345,0.026107573794321937,-0.8941398850476953,-0.0627238963821718
0.6566043386495786,-0.584276758544222,0.979338562967367,-0.8303467651766845,-0.06654041502852692,0.0746740432179358
0.9630102204655713,-1.4925780110619462,-1.2277117758758307,-0.09147695431667029,-0.8555456423544365,0.19391000705411077
-0.40346627014736414,-2.721850381207545,0.5448945416585914,-0.25980574239586246,-1.3166471177696766,0.12009930394588286
-1.776753519182068,-0.7941149495349646,0.7254107329312094,-0.4606282530270841,-0.45591250470608974,-0.7342219100591345
-0.6184516507613023,0.6616216714463794,-2.702408441901464,1.6056789725999832,0.3244433295514544,-1.3570956598101234
0.9999546595234932,0.586750928762506,1.5977003897948683,0.018975887150244758,-0.41666109889391234,-0.3435015238515017
-0.3714703536227267,-0.3657376442637824,0.35387978437395134,0.3017952993681792,-0.46389194242851417,0.46460586922847524
-0.762039635487477,-1.4446578932490022,0.6678884962912416,-0.2174426803776408,-0.2676910396786238,-0.1829822485262993
0.8295062360886442,0.019470117498337602,0.6141555152281128,-0.03952277578706745,-0.6104139389524335,0.6666159431058414
0.4724493056798642,-0.8519599435911072,-0.40991258169714884,0.5341199377456569,-0.5706840828945795,0.49189381337697075
3.603228502383721,2.2590527656940935,0.9778515454502862,0.6811638920527714,0.16397491665034186,0.6981190848840529
0.10202918296770841,-0.9031749387433317,1.6096693652690115,-0.4201283472150376,-1.3081022181130035,0.5012864316362902
-0.0523252105488059,-1.3762241919468148,0.9701498605914678,-0.9879022461376338,-0.4735523278099595,0.36856929517287984
-2.220797690885252,-0.5784148709115867,-0.45401183514536586,0.14529815739123886,0.22396913441493388,-0.2993429995899881
-1.042737850127428,-0.6691903825098777,1.226433095576303,-1.374712025515052,-0.3946059651110244,0.7479661875603222
1.1879473437107848,-0.8836350231678554,1.3745382062939362,-0.6643080216625522,-0.9664787151465495,1.0634416825195387
1.039118397562466,-1.0889471501633312,2.4809369380152737,-0.8528816858101931,-0.5563833306634742,0.6182703133621061
-2.679721419986614,-2.100585375240072,-1.1509178572967684,0.5649968608318624,-0.9673815528455592,-1.1253814163048779
-1.8561157376099378,-0.2439971359898458,0.3650097778405539,-0.6684276603160496,-0.3609949540815988,-0.006193127648665586
0.1743653708251508,0.040618678480327686,-0.9230258486554641,0.4796759913430139,-0.3080147257172513,-0.03380325473430157
-1.203241573896744,-1.7081457429478297,-0.18783877475926825,-0.3919087429253268,-1.5220060216341635,0.34881202230776387
0.5623563764037156,-1.2640127743152938,1.0850831213870473,0.11235656145460754,-0.5641120878099926,0.2980767454341258
1.2795306427365054,-0.8848990837639479,-0.30822393151441246,-0.001014903088591479,-0.9937737315304214,0.7488841100836232
-0.48286837735254323,1.0989050490579975,-1.5840152121092803,1.0230112633767894,0.8265452158673458,-0.7468102943927182
-0.08821717743574164,-0.8737846796554857,-0.9843923944675581,0.06032292635298614,-0.916948849270468,-0.15872172644440952
2.144560776451549,-0.6089066669724938,0.7394936776050844,-0.07011918847368248,-0.5142976876720999,0.5518051446412207
-0.5119015938245546,-0.6580538070103505,0.2373266250136977,0.31676820236263104,-0.6235819896621765,-0.36102125847380284
0.6825127475532001,0.43994601966474034,0.6315381348821071,-0.16328323213137236,-0.3833695909353734,0.4911986203136918
0.3544182939052734,0.9847819410919385,0.4585173242588582,0.04330201796583877,0.011030792058119743,0.014720503648086691
1.5636780620699313,1.0571002673494263,0.5442234355134578,0.3252894674499124,0.3098423603380125,0.21311395741661587
-0.6228532348759319,-1.221492006232563,0.3889773538162906,-0.26522968881353537,-0.38334564778751196,0.2582682172851668
-0.14022389573443061,-0.4085817461206058,1.3573614541570245,-0.4222285022473011,-0.681479195928034,0.31197747852714186
-0.4232236539714034,-0.547510477846846,-0.6242825977251816,-0.002383862546649046,-0.4664826369512672,0.27460522628741396
-0.9384772561285608,-1.7198563204961546,0.48902484554028747,-0.3816856794810145,-0.4114591677246748,0.6145878072971838
0.33359843713390847,0.2786043098144799,0.6112852347710119,0.39845400824030863,-0.6923340123930863,0.5594775913177159
0.9264454053821903,0.4922067945027151,0.6145369661208513,-0.4107131564789555,-0.036211824701257445,0.4280343066971995
-1.6493922932590759,-1.2519909936654128,-0.6621347257530663,-0.5586992068218393,-0.8727403789064504,-0.1956986533265384
0.4944582457823005,-0.5725849362719692,-0.13511925480749154,-0.18487539582254955,-0.378741773521456,-0.10161976646928131
0.026754626469908116,-0.4940316180577543,-0.10706948488150506,0.07345133063923623,-0.6820753499425168,-0.017952300218897627
-0.343566749789586,-0.8918194123277992,0.159048487478962,-0.6007470394822554,-0.6462633272536591,0.7367700112402323
0.5775478520245685,-0.4580876410565259,0.526009826934231,0.15129559521742167,-0.2904275526407961,0.10858901632305612
-1.0360123860722559,0.2406119110100522,0.6204514792155372,-0.11635910903441316,-0.43956156874521335,-0.09038004674658953
-0.08106755742368593,-1.3250485096021598,-0.7327309708213022,0.5344819571624846,-0.32041058160070285,-0.8793023003638012
-0.2701530102488561,0.5527930242470176,-0.08651010642146983,-0.4188108498542675,-0.4141072709619551,0.3433526289588928
0.7397916457008409,0.028118521434369936,-0.23209292271692927,0.005850729101865598,-0.33774239803245565,0.03272762371495774
0.1570480871039739,-1.1049511711322026,0.3753533940779714,-0.37978180757715496,-0.6898923611082629,-0.24352711720631148
0.5403925187687684,-0.16481092377467005,1.283138093720568,0.33491387674423434,-0.4999392783647643,0.4827698140985224
