Gx,Gy,Gz,Ax,Ay,Az
5.660640000000001,18.171072000000002,3.470979,40.782,384.714,123.05799999999999
2.121092092492827,17.689503761484932,6.239530696939835,1.96880755110392,2.6280974532190853,2.4876175228264965
7.4911465366102385,29.1231862282778,6.7865061125336545,1.4086248078624048,0.8603969369908889,3.5221639978004236
3.6601386952075283,23.603887253704617,9.669365202068033,1.4514939716143915,0.9218207340092258,1.7865628218714993
29.465311308744376,166.7334634514566,68.49395823088672,19.143194000176514,3.9469540891001027,10.595442553139849
4.3960916358253055,11.900471184579121,5.302033920110643,3.0237603872566803,1.3774460748541697,1.7278483635781177
3.4906234583102878,9.602865082974207,0.38895097315967836,3.9656076493941113,3.9862524293969357,2.321631639520982
7.157148311947784,11.188248153227969,4.2453773477616945,1.7621189588211124,12.270405221066198,10.967854013966193
26.188123604490805,27.561732695729404,11.49840342538555,13.844040239397144,86.43593420539037,63.82782179417169
11.881295215546952,18.254394596761095,5.523842847622605,2.365580976474352,22.47337093442188,14.942241479736587
4.695692328127242,3.518106610417498,13.702436318848065,4.578971098889267,6.053597020329431,4.078721206697136
11.161660880669992,46.383910663138266,18.254074509845744,16.830796993664904,3.1329883060206805,7.264198093833961
10.892444659439517,199.33358696831644,53.20570052886304,72.78426866493379,10.593868828937135,11.454321304627086
4.080110371708318,71.39944750801864,20.191299294270728,26.682892958804764,7.2190983312047985,0.5198020930941191
10.767817242129738,35.61154517665128,3.30976683919436,12.21800481756061,6.190682119997444,5.7795349440646095
10.433757429449486,23.360553913174158,11.209344823285756,10.386863866507147,8.412829728513461,15.013431196176562
32.16155940921821,44.239386884531086,26.12573277076937,28.957085559534082,31.541707294414408,42.333119173423235
15.846469648538422,26.983712482943876,9.47901862789354,15.146599321875913,22.278381187878516,23.411253854130447
12.984016184474465,9.934092118362312,4.19753245813341,8.13191718280919,6.304763022397726,1.2712542590654112
9.480865692344706,13.016530487710973,12.364717211695298,7.452619548271925,10.92880293987113,8.860931552676028
14.804406619358675,9.599658868676059,13.208742777713354,7.9676648117842515,4.740116689760437,1.9177546966157308
16.410357701543628,6.486319589595412,8.651300508071841,4.1103673423231095,5.757548833769167,5.164856540242908
8.422436894492511,6.338936794903476,4.074057091723562,3.7268534017237194,7.252742733994698,6.670827516100483
10.261405737853847,5.983856009530295,9.771022324811806,4.789008699772765,15.106680779488503,12.81102068225054
32.682635623187906,8.512251732933553,6.526744631280405,3.5640008647431163,23.699232986505418,18.454688030786315
36.07801817095531,7.554273131685275,9.173961165917387,6.698576172784552,23.598984201170307,13.509136657072576
8.965470910220475,11.287422041032146,1.320787556674718,6.695754054298729,8.272282036563189,5.752827714237893
11.253989371841975,16.87267208707579,5.9373200509469815,3.138360123185426,12.69874851895184,4.237735276389685
5.955866126508512,7.218610387612282,1.2060763044294294,3.625098419086662,5.509419247272022,1.8763499990168766
9.070018537871764,1.9220840909564643,4.460957509992832,7.025097075320585,3.397396685164987,2.9557785438323503
10.320067757207486,5.662526419955969,9.376482981230067,1.7596542541465192,13.79569731498397,5.105813241886058
9.078382553486785,11.589213240270384,6.102297536426248,6.339151266742167,13.297826627678608,6.605923924261846
9.446700064587702,13.691440822734473,4.494776182174285,4.979402500263921,9.730814902457697,5.663785946889193
15.354210845715683,16.09942057092225,11.32244422186469,9.443785903303688,27.545113399083437,11.253395800597701
12.197471039442277,14.954727623962249,4.459298332420064,3.046969457971355,6.7922160591264245,4.009078645407877
22.739707113653616,15.621175110347789,8.758061609730307,4.888584309830533,6.306158932500599,5.48748197304144
2.5205269765329947,6.267835684574018,8.751751099462545,0.7601971478097067,1.5530067967523413,1.7464677059200562
15.201753712571458,20.460553745290984,19.18064624586408,12.92137615748931,9.405893746879293,2.311469196105311
17.542876808147973,4.359882499482033,8.724240282588076,5.020956015258387,4.719884798521488,4.190678489333352
21.904588485688297,5.306789473912858,1.6112482158271908,6.818855292230228,4.5136827132669906,6.505616506490785
16.920269756109963,8.75187867223275,3.123808877073298,1.2015908267501771,5.963570177722967,0.7258147154546356
53.144225294554204,4.923793454487483,4.256965563167651,6.917115981633699,16.408257805078204,11.497514244306567
27.171276855444624,4.164700973141352,9.447575084240892,2.162030930439595,6.639212946422889,4.793007055333878
25.47797777457105,12.204000210906669,5.141680258023714,2.194077539800242,4.06991004909673,4.0033172823043
9.042125155430059,6.969899854743669,1.4010357858883122,1.4679821784440412,3.0507292275365234,1.888737338019508
14.54562443885861,19.453388868642712,14.42999239244595,6.038914442896826,7.131901316455703,7.528746147281555
16.858660322241185,15.133140600304325,12.652644991861234,3.1039187333303238,1.9755431015223048,4.265700376017008
19.52671530892998,7.327739663701241,6.59652004445791,3.4719571912392584,1.636280052765169,3.614590934850201
7.219794168348284,3.5697661396067777,0.5231371520673185,1.0359792411713482,3.303680656387636,2.445898590333505
36.65875721349411,7.091597672145109,7.410948348297295,1.366120011249794,9.48814058876408,5.812712290420508
29.663740724872124,5.623816978316146,4.49185031638531,3.566043140604548,6.107969255993329,6.17817159099473
11.207328065073616,6.891156107560495,3.718144395068072,3.392129189690714,2.9655520768969987,3.592073058876702
8.097879263356171,6.323594558313663,3.426149104044587,1.2858117216733442,2.5404965729746065,1.5714459903665976
17.74105500851509,13.96426277090483,4.380900309270544,4.091202643704969,7.279346872457996,2.0583589544930674
7.401190705306324,11.686472530253976,6.028522244682142,3.578207315509929,0.9271262863827877,2.004420585142838
12.330994560575833,2.398503806941747,0.12144762949179587,1.707530485640576,5.362886548091401,2.0220666949172634
9.929766544240026,4.8873285143839595,2.1292008686950856,2.518989634969469,4.485404452415417,2.0034088596920183
17.71136757338482,7.46318465933248,2.359077018391369,1.8612849985273583,10.6916446211237,2.3785934703842404
24.140556521924548,5.270093745464223,0.319978195732959,1.1466597318139056,10.014848309646851,4.014544889556488
6.124064095508191,3.893617187823298,4.775441738640763,3.232972923473265,1.454538276138364,2.0940453647187276
4.541568708622095,1.7487657382013178,1.473818410705237,2.6751959385698907,3.432391762341769,1.1971952268050856
9.185993293847012,5.176615947556387,3.232565496294931,4.780895938346651,5.207065247817625,2.1073897594790645
3.308772238247709,11.52650574527136,5.096710176677614,3.885814990924195,4.300119191810479,1.1783763658457824
12.588241484932814,2.4062846590154425,0.8515529186408086,0.9462545082791157,6.681678193415621,0.748139131540191
9.583312553692656,6.301505104361711,1.1565868179575505,2.015427153958216,6.246234432891325,1.6644918117229799
15.687795734482647,5.141416801770986,3.5382520468218477,1.2805248923781218,7.894970297600872,1.8843067690798112
23.501045892979736,2.5855616079699746,1.046667075423216,1.911720430580095,12.624763107025336,2.5756783466031443
1.1979937796621234,4.676771152767136,0.9388942011616875,1.0745093094261826,3.5365307700361477,1.8301014135309337
2.9721123752887744,2.1044391007414447,1.7319175140380696,0.08151485343427564,3.266999562400354,1.2988707752033115
15.958263284075096,3.1757200484264296,3.0699270921306248,1.639159189924571,5.352393642929957,2.086915654897791
9.106626227389244,1.609273205942827,1.0938548694099035,0.7399741135602859,3.5560578573958495,2.097500458069192
12.638125355039238,3.063991387053695,1.2349563854086074,2.614709283906991,4.095980361175448,0.6671312109615948
9.535486292391898,1.7015650679868215,1.151568566014966,1.3889018255364047,3.697551276468123,0.6310933517539653
10.862934888798746,4.354750163900587,2.210719857267906,0.9609121702260667,2.4832244195644195,1.7728059931843647
22.749050479909023,7.460238260547422,0.6956385447271497,2.6776216788481335,7.20849392225679,1.0847229069548991
6.683094763896268,1.9960530848549127,1.8145714505883066,0.46301744701308467,4.762719056759434,1.1415953953757436
4.170377535317028,1.8726714582316029,1.3114255780764956,0.7040834747949186,1.6391074147839093,0.8850348171134793
13.882748227907467,3.073681082258605,1.3885790160380156,1.7727536270434874,4.759716237077404,3.082141469011716
13.084865204395545,2.4446847280886588,1.8898019583392962,1.6510846144915465,3.2156309848341573,0.8235145066956802
11.128555537547607,2.4986959083119222,0.956817744076856,1.1803922782705982,3.949168242617066,1.1923575700538551
4.813656378123691,1.4811306876071846,0.7419296722820664,1.33514053119367,2.2449770267982707,1.7171627464444692
4.863235778649958,2.321600634951102,0.7365277928962751,0.3320547958979831,0.3029044458762522,1.1302605867179067
15.813163848009214,1.584051034245128,1.6148732948928366,0.9073930428452719,5.183410121860706,2.353015531643141
7.68678557046659,2.777895379502076,0.5228603796966629,1.5432804060475476,3.1605561749232525,1.6192201957172776
2.380335910080167,0.8951232149208456,0.8483307916994218,1.41851134776144,0.4497112739940112,0.9686473774868253
9.71033868020552,2.6172677798101196,1.0090520472562068,0.9527858236870699,2.9821915836471513,2.6380878776539145
9.558422400232113,1.0478007334799546,0.5941340316525459,0.2403587061809697,4.250414640306291,1.6354197189124056
7.231709084615971,2.4457132857536834,1.6296265475224903,1.036618022561404,2.9869763497107136,0.29223647000557657
2.325314500440743,0.8360548420892714,0.7834554704628884,0.9630451672539337,2.611733316686612,0.9376077988834051
2.204343551736819,0.5346837133370872,0.8622458403344303,0.8183057573900177,0.731433755395439,1.516860140279385
8.55160236970201,0.9541048262053632,0.8153732944305438,2.1284303508321476,3.123186612863464,3.461119775637387
5.797751917166115,2.3923141031165134,0.41600435532451496,0.6582041246025467,3.5267889641964256,2.5175662219797004
0.9009055942610182,2.509722977185311,0.197634079025359,0.8494859007072316,1.687061727636624,0.16784476757658165
5.0521111470524325,2.160127604639588,0.4278708913493332,0.406449156402778,2.624812112620218,3.270470239601814
6.648649689758149,2.103655904420615,0.8301561651677891,1.5498424991293507,3.6495688001395523,1.4200863897826492
4.634459119530648,2.044764136419245,2.2138396287698634,1.515694786442223,1.7090870840184145,1.7421666348585185
1.4924693319563112,1.633470820218067,0.3770135533856348,0.7396946136033802,1.914850400165818,1.1436237174645103
0.27195669915603593,1.2668013697491585,0.970740408081442,0.7726621945721844,0.998094718303543,1.4611688287862221
0.0,0.0,0.0,0.0,0.0,0.0
0.0,0.0,0.0,0.0,0.0,0.0
0.0,0.0,0.0,0.0,0.0,0.0
0.0,0.0,0.0,0.0,0.0,0.0
0.0,0.0,0.0,0.0,0.0,0.0
0.0,0.0,0.0,0.0,0.0,0.0
0.0,0.0,0.0,0.0,0.0,0.0
0.0,0.0,0.0,0.0,0.0,0.0
0.0,0.0,0.0,0.0,0.0,0.0
0.0,0.0,0.0,0.0,0.0,0.0
0.0,0.0,0.0,0.0,0.0,0.0
0.0,0.0,0.0,0.0,0.0,0.0
0.0,0.0,0.0,0.0,0.0,0.0
0.0,0.0,0.0,0.0,0.0,0.0
0.0,0.0,0.0,0.0,0.0,0.0
0.0,0.0,0.0,0.0,0.0,0.0
0.0,0.0,0.0,0.0,0.0,0.0
0.0,0.0,0.0,0.0,0.0,0.0
0.0,0.0,0.0,0.0,0.0,0.0
0.0,0.0,0.0,0.0,0.0,0.0
0.0,0.0,0.0,0.0,0.0,0.0
0.0,0.0,0.0,0.0,0.0,0.0
