Gx,Gy,Gz,Ax,Ay,Az
-7.740032000000001,29.092979999999994,-2.8121540000000005,52.36199999999999,-530.0699999999999,11.018
-5.777758536964032,16.380678023674047,2.0339681459396277,3.266980429437746,2.0687691129715398,-5.934886661234876
-1.2857189305745222,-2.4365370787338363,7.311172344013258,4.057474856331689,-0.7440146085221924,2.0781467560587634
-5.060386512612766,4.674626577474912,8.294331387083826,2.886713076675618,2.452976576468064,-4.148102547762307
-9.532333162339865,2.384822764772796,22.150624116417507,5.3369123158841765,2.239501327197743,-1.6421809904714033
13.605669226237383,92.42116222726008,-22.84556543814626,5.8549355829860055,4.06737938517186,6.7347610843322165
10.756089911586846,-12.35232301083858,4.4208175991901495,-1.7871254431749277,3.9488879752948134,0.9040672034286844
9.723419852813803,5.542192683205508,-0.5102022981505361,-1.2497948790896136,6.6638942986474685,3.6775444953481875
16.18845981063213,3.332627197367845,0.9773839116593723,-0.9380961277875575,20.224935692054686,9.404009225454832
40.659142351113545,21.10509485500875,10.836798397989572,0.5198719146358948,24.18647523298228,42.12837221743386
-24.256542738682842,19.63761195096271,-5.311552971471272,-3.5986280582839747,4.0369467781491615,-28.79409251773137
-10.107794334457495,-1.022823762170809,7.154180747299947,-1.4178796403568181,-3.9611362873174194,-5.5862831949613
-7.758628248482068,18.442956211771286,4.321764975330292,-0.32204612064922244,0.8953343702148171,-6.105892242105972
-6.4937602469796785,-6.430399640313482,8.559612664122572,2.79855180147742,-5.013194248176267,-1.6775211755356148
-9.597417714893254,-64.82940705450815,-68.15028352197265,5.259301275225157,0.059010783099898045,-1.6351331326472534
-5.870186050711355,24.403235554359863,29.972089851786805,-2.304903117643711,-2.092456912557696,-4.293935279593081
0.9654466929321607,-15.648627142315807,3.0911084845729424,-4.675742055383236,0.5667563088916666,-10.086894665085493
-2.2864934336390808,0.031350491758129984,-0.6804783317243014,-0.8740132160917673,-3.3674818080895075,-11.877847824001964
-2.671683130708338,12.874252166357829,-11.596548147327379,-1.2954211834480207,-3.8581375566591074,-10.070596117223385
4.602101580796003,-30.498497484605295,11.62794694588838,-3.979199473488296,3.4028174734374694,27.772000841540567
-1.9877866826035668,-0.4108278494625308,-3.7479403707443586,0.17005584867402362,-2.8151737663674345,1.399610488202533
1.7932117416387614,26.476655678617092,0.852301266571763,4.555616669914517,-0.6229217083238643,1.673685147401692
2.5851769950690353,34.64329686921069,11.026404607077152,14.32579511424248,-2.6235128781929125,3.412153242105341
-9.413622084442087,-12.808567879750228,14.5391092536486,16.720698485068183,-5.188669526668259,1.9073958525778723
10.597387023087578,6.978176609769747,-7.102559008601132,-12.426826314301668,4.5709436307476174,2.117764921170522
1.5623716470942384,-3.1575437688305046,1.1406780209482328,-3.7755778426872975,2.13592223696266,2.791731945450427
5.520904247429538,-3.4776978852599925,2.8919189754991548,-0.21439477115476904,-4.5457935224364014,1.574762454063447
4.135893642275942,7.009186942031537,-0.7942994759510565,-0.25526248968002285,-2.1797023608494093,-3.6799696786810037
-10.124766813575617,-0.6475346880308803,1.900508002632159,2.2641394577177465,7.027703784239295,-0.6303775494180106
9.008822365048037,-9.365644863407303,-8.620041615497218,-15.476790700057242,0.40194501314213127,-8.116495443525958
5.489564803794855,2.411515034539674,-6.813583496229736,-7.793824214669376,3.6634289173469874,1.082882718485282
-1.0577665077469984,9.785673907396617,-5.971017166733997,-0.9299999313504999,5.708087604428446,-2.1080529056929262
-4.281604903330271,4.625161521561077,2.841058054943985,5.938982410425438,4.340354449627556,-1.8154559133778747
-4.657208352073484,-19.977265646979266,-10.191906148936013,-26.864480575838897,8.234569490379798,-2.145587513197612
-2.1315903673569583,-13.286893400203029,10.73642915779454,-0.2397592687951109,-0.11533881927864265,0.7742927473890795
6.162406839013134,2.2314395779439344,-0.2184112103261161,-0.3559901422275551,-6.684465105878561,4.76119158577099
-0.024754542930286005,-6.020548436901743,-2.4014942590500836,-5.164813221682313,-15.493344014436667,2.1938714381135123
-10.179926740665476,2.164269740224614,-2.0654303733934674,5.598115385179053,2.7899490860419265,-6.1573709694163545
8.201100977112556,-12.494751931780113,7.860725263954822,-4.861421373449417,-9.965520349067809,12.297331511716061
-3.5635898070642433,-8.854605021936253,4.4360574574712395,-4.400690852069112,2.6053024872799213,-1.9931413253230907
2.9201851813673794,-3.831653506638163,-5.404938392634527,-3.340525316443747,-2.0087562377573027,-0.030928214264623277
-0.043678681070454584,2.7061272607606788,3.0191088033342757,4.952187314544259,-6.337429944191282,2.1460821703579445
-11.347593261077144,-7.254663811252788,17.576006051415494,5.631139205716178,2.0653706689614912,-0.8010012438705515
4.0121420520885795,13.336709589357978,-11.118985893718733,5.880525487609358,8.39693001644056,-5.172221134021707
4.333395264776875,-2.2676068089880146,1.2901474694924542,-1.1930909091572441,2.225367795271044,0.4593941638396597
8.073261268212836,2.3237929987182775,3.034203093091829,0.46485028504595616,-11.678271698488574,5.2381991759712205
0.9887756816451021,4.022625247768966,-3.2178433267636857,3.070200610705759,-2.7640915787223133,1.852966918953192
-7.253960936742581,3.22116625027732,3.0839717600556114,6.167086135452379,20.723692145495164,-10.084429993650206
-0.8316001854824383,-1.523636231791186,4.981556610801967,0.2175881026037587,-6.078656662930598,3.7535920860183603
2.886731614194531,-3.1054319307822658,-0.7606035231182346,-3.289891376761812,-6.5150871965350055,1.141167610303544
4.848834742733226,2.8511533870226837,-14.164125359655644,-3.003390854280398,0.7025323326621338,-1.5160906503688658
-3.2453976008230976,1.4346394471686463,-3.743305979201304,0.5303879763759778,-1.2736100893391256,0.8280572940122348
-4.255678448269576,-7.190187428439997,-2.7284104160534994,-7.681540522922151,19.12519706748944,-6.200791302063262
-5.436972899685471,-1.4519024743426514,6.922017155323098,2.2146027965825437,8.960013768444863,-2.370940777293435
1.8629826678180896,-1.1053267115328653,-2.9773591995082107,-0.8112557512733924,0.8395421843637734,-1.3537135053803526
4.882285970874068,-4.15474241851487,-6.3780058877589845,-4.19960374143587,-11.143621233233702,5.108234050173872
-4.678530490934005,-0.09627618363287826,-5.1909764851942715,1.0584406508362068,6.012732591304784,-3.3198923753565968
5.213345690314223,-1.3254743986893311,11.204498883240122,0.7081338488819455,-17.331916598633097,6.638026033684232
-2.8432343909925097,-3.206282245974359,4.945178713018846,4.119566210085869,8.879037906403314,-3.424524039419932
0.18170112630189994,-3.9769650368813863,0.4474022208132036,-1.4746044567710561,0.393137936637048,0.7711776324001285
2.963104031378527,1.4356499003219656,-2.2129523515319223,1.705354743608041,-12.740309498300956,5.98894536499791
-3.8945464436307202,-0.9133702691868724,8.276050090310658,3.6993750024491985,-1.0926177741989216,2.659259941820025
1.8510174544785951,0.32172390286943764,-9.439702878383747,-2.5005300648534385,-0.7345153514950618,-2.966491667195585
-0.07166617245732354,-2.423951923101666,5.476833898128942,-0.8352499732876648,1.5974767766615519,-1.884941636306534
4.554796307337343,-1.2267424167728935,4.388157163382227,-1.0545050866432146,-5.12408901984248,1.3275216070591807
2.500465147673555,1.633544556163501,-2.3496869403914107,1.2599584564052067,-0.002230860952593172,1.4074391412754768
-5.68357996145303,3.0093457005998125,0.8082375360361789,4.3778568607515576,17.277032678181985,-8.590143585404995
-0.49531885609458604,-0.007189577170546357,-2.094579446643677,-0.6147671411345761,-2.065794087086095,4.553195775616984
1.551752851351265,-1.4400737869754292,1.0773587347223317,-2.3946128890476426,-3.89068792425652,0.7940682646745123
3.5238083696231097,-0.5509669103281389,-3.1905324958486494,-3.439071395238746,-3.3685494640062617,-0.42377268351609243
2.8711296347414352,0.7045613878791694,-0.9542345425361252,2.4016419664382194,-6.331948576206996,3.097377601640148
-3.13556276486202,-3.5020630872555936,3.8092259257718704,-2.456330109682504,5.314350860584154,-2.136211695045869
-4.684542877325393,-0.8014327424378929,0.9923600195324674,2.906035335505324,5.388456333199795,-0.5969565921677308
-1.6671862934855954,-1.1096121083266208,-1.2114860953904678,0.4583129984621903,3.0895082671863805,-0.35169858391925235
0.8235282223223299,-2.3301552862052337,-2.649112104921781,-3.5085094612496333,-9.72091681030508,3.9953964280217065
-2.511406917087174,-1.9592665986356865,-3.4437744791157106,-0.17691936925092377,3.683930944553757,-0.8283968760179832
4.53730957663459,-1.4016885515865685,2.941328570639038,-1.8972224658132437,-8.355967361865748,0.6459111079918656
-4.658019575059521,-1.2031637108636177,3.039898092660899,0.591809384457262,10.144816160927977,-3.302627650024216
-2.8672958641731308,-1.016830487997853,1.7414027545744633,0.6513698421899421,7.081347684558521,-1.8373970448127255
4.583305955042108,-0.2552623247443967,-1.7164419474902795,-0.2665872892529342,-6.837178025233525,1.8769131962627226
1.2455644863754756,-1.147903951592937,3.341274785517586,3.100009755106718,-0.5086118581859758,0.554423253396689
2.170152251798451,1.0340750044157014,-6.842793692583877,-0.3614102397562986,-4.325289694057369,0.8740556521077884
-2.048813110077207,-3.0421975456926713,2.404226925546021,-1.3512880007911776,2.826987382336927,-1.3720204145811634
4.229868066389945,-1.9999351352054926,4.668935580889582,-0.73757311471167,-4.470063126529546,-0.9663904134050366
1.7391225082476618,-0.3173320838516738,-0.41940813610595684,1.604112846899679,-2.152262690736692,1.7973285968151842
-2.2213730529861877,0.41850038324024813,1.0729387471704162,0.40165607290436195,6.630900232090336,-2.2229101357242924
-1.7546094323593489,-1.9560835933282157,-3.0268164108002673,0.7154977955869789,-0.05091182319074372,3.6498665086407143
-0.4108506095063796,-1.7423042040427978,1.0527290517432382,-0.8704897098505219,0.33101779461148073,-0.38891913710585374
0.9081301405675294,-1.5630516254164126,0.20826947462286421,-2.2450721106610967,-0.7740857455678946,0.6316202157141676
2.6628693172555407,-0.9715057751273308,0.43578576089760884,0.02507867548239734,-1.6084390629916316,-0.11242643344636905
-0.8557219840885578,-1.6874788466824437,2.9993013732899723,-1.6113092800432074,-0.7601959390414987,-0.25700991433168197
-2.0480706954710413,-0.7651658494882285,-0.5797488316954483,1.6377248012103154,4.38880449054871,-0.8670418006962052
-2.2355393015339478,-0.21352789323477916,-0.18666455523701317,0.46837769961386916,3.4563267410747174,-0.5924068194269528
0.6541237858078011,-0.6350279832795881,0.04678406042443628,0.8776302166192829,-6.430533561600839,1.195271445574226
-0.878653551466815,-1.292512290570242,-0.6772499565014308,-0.40757277563105065,0.3338821395073899,-0.7894911695756727
5.049835579262697,-1.1099142250237652,1.655225751664135,-0.4595032511003743,-7.825293868564211,-0.060908028772955536
-2.4805416300082808,-0.3912783783464642,0.3824611462156983,-0.16605253240004944,1.156279069966648,0.96035423773511
-5.089453732100574,-0.556663965936713,1.0874997252324115,0.8455159242343874,5.24933443168872,-0.6979573928419794
2.4696614788884217,-1.5632673520769897,-0.8367457392687061,-0.616735644140989,-0.9956417352746189,0.202904231241804
0.3235452313296663,-1.1786049487794659,0.9500908575824478,0.1040007686731827,1.183868454369788,-1.1188052439899197
2.6009587889214543,-0.3939336344893298,-0.9452530046614982,-1.8149711496370664,-2.623953082385047,1.736667659651144
-1.2152292138637577,-1.8452744644840877,0.45595536364917816,-0.557293396018114,2.7650615914800163,0.724195418979038
2.398711180419829,-2.7321670962100724,0.5044126286729069,-0.792900684687188,0.4214400574540784,-1.4163565404239575
-0.12429166554379484,-0.7848143260043371,-0.2452089591015177,0.9778300410983232,0.7316421126782207,0.9260563189392683
-2.09115158321924,-1.2747080698448239,1.3779911860942866,-0.5223561969339857,3.40890073088415,-1.2112857732090876
1.5373702510415033,-0.33358350589605806,-1.5059450735995104,1.2578188737937515,-2.020277968741305,0.2702225395478142
1.745547283120555,-1.2936294490608047,0.00029789100425983706,0.7836973836400465,-0.05017536174441295,-0.7222756383065143
-1.9865830386726557,-2.0492842027443503,0.9177457571698886,-1.7667879741882713,0.014507893978445652,3.0868032290170664
0.1722538202999098,-1.6944260190356641,0.03522577513645134,0.6148559666600576,0.2234034691918494,-0.09245531472099762
-1.3384389610323337,-0.7979728040564111,1.5838025355316125,0.27054385100643663,-2.2783848920961622,1.727276372775726
-1.3385239507033497,-0.8790907476454697,-1.3477979870013064,-0.613570274799016,1.872337139182385,-0.9405249328820238
-1.470025752765077,-2.056836182509001,0.41156990339830396,-1.0736506806619233,1.6176489721937395,0.7076098247777668
-0.30361263723108006,-0.9834953180250572,-0.27604080568700645,0.87292483371792,-1.7693732074468116,0.3844317238443932
-1.2210427041328915,-1.7391907040891295,0.8638886195878754,-0.30096740999763916,1.1332542217858224,-0.6231526513934393
4.570141034237296,-0.4267475476368411,0.36691692100700146,0.0989897781372997,-2.8338225459704938,-0.7532595916932052
-1.7888105806737138,-1.382707872226408,0.21752782872535195,-0.9427699161404847,-0.9600021879240853,0.7511949466906128
-1.7702065045368554,-0.40498059473349385,0.48809601217764464,0.4625597745203873,0.776252056671747,-0.19246288440461234
2.556160078314014,-0.8992810257812591,-0.026952106493637107,-0.4700027500147389,-0.9061240832398965,-2.107196319453113
1.0177971724364143,-0.943599021772106,0.4677397277936258,0.6470077133190127,-0.6060899942134822,-2.391921011166584
2.1808004721260574,-0.33640604522511186,0.5903011852345282,-0.454042563984135,-2.7209164817353497,1.5576932622292756
-0.8881926163785863,-0.445521747574705,-0.0753419361876437,0.39778674447733575,0.3925072850535679,1.2229096797702645
2.174227387633777,-1.7498852387116073,0.3131730495972539,-0.11218427490287886,-0.2543634688808113,0.5814294462193627
-2.3929751822773415,-1.162937982675155,0.5511993147032661,-0.6192853130242122,1.2387721259494526,1.1793939120592147
-2.896178020448157,-2.2571169601644074,1.8564879675631945,-1.5775341024524134,1.5216852301405137,1.6702257918033225
0.7810841924642632,0.19405840979292285,-0.1563027912169374,0.5430243771841423,0.8654283764559003,-2.0297565356420773
1.601762875372387,-1.5978252862507358,0.14556507146516018,0.9429956162231878,0.7069313456284444,-0.6249933019229101
-2.435268705741335,-1.5149771811453925,1.119096518578789,-1.8242688935408289,0.9327950321295406,2.492680521192826
-0.03170010320114171,-1.0466222306280417,-0.17633730723377722,0.8632665209576181,1.4493330272232556,-0.8217785708799263
