Gx,Gy,Gz,Ax,Ay,Az
-13.783832000000004,15.310077000000003,-7.813569999999998,-6.998,-624.624,74.51400000000001
-4.394682741046743,21.825922535367933,-2.2987849837962884,3.849826530287358,-0.7248550101441914,3.773811610904143
-0.8526072665183895,25.365117200884395,-2.941855935048311,3.018122530955862,-0.8731257893813601,1.6705191403325432
-2.510923068481689,4.305074583837156,2.842258198371566,2.245084544673071,-0.5629295739385191,3.432918207930115
9.329929654451226,7.345096348249459,-0.4746515164654447,3.203228022736539,-1.0735424173677066,0.5640651229767513
3.1992584846114474,19.59739197013178,-8.610914304012024,4.042686585939403,-1.9889295939966964,0.41475392875201633
29.41249918560277,41.219817804128986,41.62055160676931,7.016211816636808,-4.957015288888607,-2.315473102955407
1.7213815101077836,16.890285875635417,-24.20629713424028,0.2894082067172832,-3.8496461340800785,0.32528773692407004
0.7674449368376248,1.8497776706934843,-10.160822230226396,0.15665907946912805,-5.864478743725087,1.0551171068734326
6.652622064554845,4.646754652687567,1.4454352450577521,-3.3970140246858707,-7.625332949335465,-3.475808082426818
-1.6720233741539299,2.3427272741038214,-5.469836776291934,-0.30234702961255044,-6.919836372654044,-5.127732393987031
2.634037860684619,13.286884399702775,-2.451178036224376,3.0730952991456624,2.902491724257535,-18.021012674648627
20.0035397203956,4.0997890138030835,-19.350025765018113,3.6778805008054043,42.26086536939756,13.071605410895984
-12.135389919234145,-4.733842772934937,-8.685859324389776,0.22155523348756823,10.010853089648423,-21.899252374810107
-8.99644013443936,0.35876392629649967,2.257801176451984,-0.8053024462835978,-4.618880631526279,-7.638134989856783
3.237343446163692,2.0626564478866447,10.578632463129882,-0.16695944785275896,-0.17645148353139972,-0.571161381928106
-10.227650532371674,4.539471949639412,6.134718159416797,0.3176453196070592,-0.5039196868434205,-1.534153068910667
4.412960447601466,12.902954463079176,-3.281259997368094,3.495386986338671,1.3028707390227485,-0.03528189782808902
1.9846891789073386,-38.1453677467835,-56.35622108167718,6.942198519613827,-4.864473530677761,0.919394732696053
-1.7335532661927462,37.838662443279034,17.331261118055792,4.622101542381499,3.914047799193515,-2.055221300785576
0.669907834056036,10.817525570620024,18.684762491228664,-2.248516335799525,4.402890394826855,-1.2307662237359467
2.3914025160904266,1.3944794510404348,2.868279077271584,-2.631354525965936,3.321169814649971,3.6256740860070047
5.8903630231236885,1.0479184737637668,13.823822446842012,-0.9457967377120068,0.6266382441828963,4.888910096198654
-7.1366062403353485,-0.5188347342793049,3.265552495174626,-0.17198819940854804,-5.829632237785254,6.371380269487046
-10.54859088688017,3.0566285873928454,1.0545108073948721,3.4588224915380477,1.0690872376317442,-14.006371516374779
5.651339551543912,4.502233494037144,2.9760120474440455,3.3977783257062515,-5.435821734092432,15.664973709165967
8.119541768306503,-6.1066062254252635,-5.879521877609388,1.5615363299104643,-2.4031705989009313,8.745675903275307
1.4077126985372932,-4.713380246629592,3.2456858009702962,-1.8692026886038358,1.8435296408151685,-2.2788742727885865
4.971132053190086,-8.486551498130764,1.1718548542423428,-5.027990205082454,1.164906134177936,0.42225869261832405
-3.7976804870260104,1.9082365013556064,14.970170072857124,-5.701237710749783,3.791504798763487,-0.17628891704101013
-5.21109567787483,-4.450654009355374,0.06399803894177869,4.66440693681816,2.7076185334415266,-0.8375156821026768
-2.1735130371417397,-9.606183621678785,11.933572509897042,-9.985268805767596,1.7976388338408282,2.1843153096947554
-3.731110237511807,-13.121839312209204,-9.078589628253262,-3.8819708822075905,-2.575832100777517,-4.118382404676657
1.343539139385058,-9.688714971841653,-11.628816033534758,3.889667725872301,-2.248950087198291,-0.003695603115129842
-1.2411217488009836,-4.304894184973311,-3.4476333171725506,0.9424731764279219,-1.9062828546169115,-4.263454047030711
10.961364246879866,2.556787671378182,-0.26235812118635615,3.0213528018040785,0.6529538024085079,9.373547377546421
-14.805321926874187,-3.832911275577027,1.1747711514693742,-3.1476196790399795,0.185207454620676,-5.958049270685807
9.510592882856015,8.002262475082498,0.3749845406693532,10.538436937191097,-2.559717215524697,2.9766344025444913
-0.9385099154401293,-7.06230888024852,-5.59667642977811,0.45276000484446643,-7.221089541465034,-3.254827336911548
-9.68915420945892,-3.7383122200161862,-2.82916955533435,-7.670574815177983,-1.798513870038005,-5.344504815756683
-4.616651517050547,-2.417123741475612,-1.6938187437245966,-7.188283466469201,-0.6483446774432293,1.1922281790347
-5.343228464277001,2.1808390474649046,0.6654519027763413,8.156987031998451,-0.8039852816619003,-1.5641008953338367
2.056975278474732,-0.5967704941581657,-1.3041256549808415,-6.164329244878365,1.019537774812418,-1.4482679930000533
6.653107739557995,-3.118312074529541,-3.3047764120174055,-0.3292552702658451,1.246692884984072,2.2046277187121133
-0.8591123858360104,4.501181294476719,3.195776894908552,-5.447818900596278,0.593387372589726,1.1761826397654453
-0.5695811775645685,3.6195061182907415,4.0034450455267505,-6.234101751201409,-2.5667353338697514,1.0753813506484233
-7.194622006781578,1.3617697331959562,1.7198514148622202,0.9645886491003084,-2.919093711094643,-0.8013646472649656
5.449996843042231,-0.34822561964577486,-0.7303938127379217,-2.7704063930316827,5.521897106120612,-3.0951573362344087
-3.6340436149232636,-3.0135359735483926,2.656721745853876,-5.096835002271166,-3.208722454069263,4.40366785910812
-1.6090665186289637,-4.679650265022055,0.05136984904802566,-4.721602218081218,2.246780733312716,-3.653258217700181
-5.667314162410095,7.216917472025888,0.9422073581131257,8.190770576500238,-2.637950690877154,0.1507475338278016
5.949884190581599,2.189944184296548,-2.109920134898635,1.342656002018054,-2.6390323051577385,6.43616079326988
8.727804228840142,3.2157425341374584,0.4747726487962025,3.664482539068146,2.0876213198034628,-0.13021274365864377
3.919603932542292,-2.4370852719145244,0.029358607011137405,-8.195651572385664,1.904802342598594,0.8084130919674821
1.721474394176579,4.339051781222185,-4.761345886362151,8.981385784693947,-3.534917848124015,2.349904716463413
-2.9483011614839363,-4.132510076863808,4.088694886235276,-1.3544414932391948,0.9093664177437815,-3.792091001492885
1.6044275733605007,-1.8939471156385264,-1.025322833586091,-1.4699296102710733,2.6385433502280735,-0.9652604191955694
-1.3925484997481596,1.1655569906104772,-8.41198198133199,10.964354918037674,5.307905776431876,-0.059505776221367546
3.643517731809552,-4.567476922474812,0.5284020728347238,4.044089282797198,-3.1614773736023456,4.1388025615976805
-5.063318905121912,-1.9038525775359956,-3.494397903612928,2.1566873383558955,-1.225583141366945,-2.2934471827856284
6.021579310352817,1.0988800033914938,1.5484859126770596,2.707937347640274,6.653514561873401,-2.0951906852230406
-3.760349446734937,-1.5188645034452875,2.0343487010268584,-5.318983309950383,-2.417335658854665,0.6201615420620592
3.249442758949776,-2.3602623635799107,4.988634912659309,-3.1877935100117663,1.58362545594463,-0.8083442288531795
-2.887163788895561,-3.532514170893211,3.3136145698906914,-1.6277929111679623,7.966233250541839,-7.069232762332547
-6.665486237239738,-2.592973668459314,-3.462049043197329,6.132883902713331,-0.7324779713991441,-2.3375206423583563
-1.748267924333234,0.21257732323637635,4.804780246036914,-6.106515438731059,-1.0873965635838374,-1.836864389341164
-2.3971692607817148,-4.118635182856732,-2.1462298561904447,0.08864249229591292,-2.68199644846507,2.887654506930521
1.673715064566177,2.479184041294937,1.2029396154602385,-3.012189312266766,-1.3515171337650496,1.0709646371918582
-0.971770682580891,-1.685749970504147,-3.1329100741877465,-1.9816323027418865,-2.2372435200770986,-0.15903390728953268
-1.337249579290397,-1.6557116295873093,7.388218802238116,-7.763037449966853,-3.928913137328469,-0.6935366433628404
-1.2745039043430595,3.115147371988991,10.813395500247358,-6.517670515905673,2.5414714817606985,-2.2572809394512077
2.496595951585042,1.747262905626442,0.37511461975985405,-0.4333291091488445,0.43759904635204083,2.3528928097231914
-1.484916929877891,-1.477314221894109,-2.824184630060266,3.4078822021868365,-2.3561053119450484,0.33461567746717724
2.3336495849430534,-0.8533582266345704,-3.362363761845261,0.4875357566794136,1.047970905429969,2.4224497274856898
-0.5654554375513953,-0.2242030259846437,-1.508906978218465,0.8543114374263159,-1.404294150152883,0.2962119502738217
1.5633272658138655,0.16729333418621023,0.3726849640060987,1.0542963739437836,-7.307486627519754,1.9486959731578781
3.768632950969921,-1.8373209747049326,0.44384860899204825,-3.0549725565216885,2.62804001965924,3.8111053872284057
1.3801564770194283,0.2504110454034376,-2.5180021828505517,4.730134427901204,1.5512681376090347,0.4331005653081593
-1.0200778659680196,0.7254121577275403,2.517016789762996,-3.452462598840664,1.8199911109181823,-2.893395709937099
-1.015956327822477,-3.7594302166840974,-2.3839911796781856,3.4727637383986205,1.651579405529011,1.5930866940247694
-1.035208038239439,-0.516242044421345,1.3815797188692844,1.6678832248623878,0.9355655280996568,0.3468903032854101
-0.3371088588595262,0.22088857418363517,-3.1760262369518015,-0.35382890837286685,1.5673122909589545,-0.27538808789617253
-0.9012368223584784,-5.030562081746095,-6.108746460083424,4.165940518218216,-1.3255723312023393,1.4121541366294987
0.4052246669652676,-2.8276492880282196,0.9447043471218055,-2.4899630473397902,-0.9966801503283895,0.10020242716017694
-0.3261924284115819,0.43106902372304945,1.9375352711457663,-2.2485505169969797,-0.7605138507039128,-0.03205862375476132
0.13799573435013446,-0.8504185754176037,1.657721191977607,-0.4432059412428466,2.604298366021438,-1.709558414375096
-0.5741921123940298,1.3871389514339447,1.3890607758277773,0.4898103100089653,-1.025301536123348,-0.32171656746908933
-0.806077388358529,-0.4831792645139478,0.08607978245157366,-0.0044172067823339545,0.0926436207064254,0.6391100289211316
-1.211560618397506,0.4731138894400119,1.8148366462065593,-1.3833635928514587,-1.5664453363125312,-0.7386222345319993
-3.2868078175779765,-1.9052740079651458,1.455509293427819,-0.9715792808467043,-1.380423567460173,0.9540184070420996
1.5689262647935935,0.43322135150888186,-0.6117587811855587,1.1937055525418203,-2.0784314460678672,-0.40508682018164993
-0.3834822516501654,-0.24818533436517576,1.6324883649372228,-0.4057290695944963,0.9658635493442849,-0.07231951319321966
2.1313931102227364,1.6485268634442303,-0.9900752687744162,0.08376297511181516,0.1699245906236595,-0.6428942581678609
1.3765068190970344,-1.1572100138109207,0.16379594404082898,1.1454388734158043,-0.5319498053922344,-0.17309582123215878
1.0088844040575347,1.2485655178292718,3.042965407105778,-0.973919267818348,-1.9541651694229114,-1.2130079550342334
-1.092147024742958,0.6404383031492414,-0.11766071823219448,0.3743681681954202,-2.7368378008903984,1.369073807270026
2.690383837137034,-1.300534741152582,-1.1389118516866505,0.6281745409295092,-0.17164519754066732,-1.3562559810640242
-0.02668587676255396,-1.699653454003126,0.05246902236963835,1.206134285110092,0.6321386812681462,1.5063316550895796
0.6948262151381015,-1.717952369034243,-0.6215231787065522,1.4054894535623637,1.4100936976590834,-0.952968814788486
0.45110171968189816,-0.684361584817804,1.053227283123093,-0.49288953805204366,-0.0885252051586122,-0.9796309258455207
-0.8684561166244004,-0.41550036315481365,0.21122632036670655,2.61399401040093,2.9404924475309873,-0.10451754506801253
4.322898671713107,-0.651469393230382,-0.1461330025148489,0.2623303039986352,-1.1802638464022435,-1.544723926791034
1.394413722497002,-2.1804908853670573,0.2779912570311117,-1.7674127343376487,-1.362378842754798,0.17503543796953802
0.3012819014471749,-0.49267870283003634,0.17513682680960083,-0.31671774399084746,-0.957277381142196,-0.16482554852318215
-0.9326585818211655,-1.6441279678113274,0.6598616867713113,0.291505401085178,0.3415765780558786,0.43210361662980495
-0.8380840548323327,0.13319956185661436,0.877979309240882,1.3531462720703054,-0.9874922979975977,1.1559894357417073
0.8193100849657863,-0.38639000280600844,0.29640354379207257,-0.22638368352630064,-0.638643778922859,0.6383792028923012
-0.7894816961895381,-0.5353818799339535,1.6028587167553987,0.6474049934591894,1.2639550635594643,-2.4144322507198126
-0.576860812539996,-0.3760174783959114,0.24757308428096295,-0.37477213193326475,0.7458825819132776,1.2293991207189991
0.3889963046118966,0.30948210992507813,0.06942167992606496,-1.2071122509461727,-0.5507462351862226,-1.2543314558668879
-0.19828177630026636,-0.6994702377568611,-0.4116454984865797,-0.4735263307006552,-1.491867935649078,0.6129857419421877
-0.8185815681534327,-0.2618508950000117,-0.24608354721260214,0.021292668644877333,-0.21615307841759723,1.3031464186066164
0.9122794093271446,0.13125722995614764,0.15013743344718272,-1.2991276658928412,0.6959519657886477,-1.1506207467673712
-2.592896924400957,-0.7440997803398343,-0.5208870828433927,-1.0229129350443833,1.0229616590883497,1.870312831848271
-2.0879311874089708,0.14361570264158183,0.8580415434861013,0.49465983017329784,-1.0525134091772332,-0.5552975853292074
0.5593437568561506,0.21246036577170302,-0.07421767973689603,1.1835964246401698,1.463061529963642,-1.2879727228550095
0.9968600374401884,-0.043417286457238746,-0.7259399977196382,-1.065867108038708,2.1082433900810362,-1.4499070857549012
2.3808868170322253,-0.6211566439801175,-1.08782441268518,-0.19818501344051356,-1.5892325067213975,-1.6153217840190517
-2.0470039750116698,-0.8976589421310394,-0.8783077640615649,0.3514096047113443,-0.35789457471310776,0.3156040558565719
2.2286773346313495,-1.4022604841967483,-0.5037404766438984,-0.7497134078787645,-0.5841669730950694,0.32029275593334194
-0.1785290045906544,-1.315734576103101,0.09265293445658704,1.3879501441453816,-0.420634254691283,0.6652650445897783
-0.8552838643891065,-0.6633485592718265,-0.33125603791910563,-0.867374455958944,1.7771425445118414,0.917453240888987
-0.4268019749673665,0.40480977887525416,0.9107812886174042,-0.45607507012328474,1.6391494620280784,-0.152879524675044
-1.1809151099783868,-0.20503462961168412,0.26809623505546853,-0.43828966082409837,0.9454896522090991,-0.7999808568989244
0.2096465882323639,-0.9926868552928221,-0.07185091705203835,1.4904264431276113,-0.8434694753210052,1.1357736737666735
1.182131104464075,0.6724291626508825,1.2717683824793298,0.5410010015371172,-0.9446543745498029,-0.4268536807511216
2.0222394900027423,-1.0284399445595584,0.09299496826501602,0.6284404196719195,0.677489913421299,0.04648083512351997
-2.6335868497166546,-0.9304545395725078,-0.44858444432379957,-0.9871217833752299,-0.014037741629231992,1.3604252307293505
-3.066813703729129,-1.1102950694151412,0.1494410386785742,0.4931828995807523,-0.9421967801789832,1.797846769624259
-2.5027472578163628,-0.03824165951650074,0.9104887225535195,0.9211159382316723,-0.3185148991803609,1.4300713408527854
2.238693016541056,-0.3463801712604665,0.5972961005050983,-0.10511214954077872,-0.03795511490047068,-1.747365927439969
-1.792406615433991,-0.42526581314030704,0.43543868201983993,-0.2309714281355949,-0.5658420160735063,0.5490391946272017
1.0553387544706379,0.109542998121691,0.41429623641011504,-1.589357401326809,0.0035965577029052898,-0.8665273965577598
1.512251617895445,-0.7844469067946491,0.21397990722426463,1.9288326295033953,-0.8848659568486292,0.32876801124985733
2.033350767349849,-1.0265759520615554,0.10723475372210056,0.7433094538093293,-3.539316636993284,0.5668226820676708
0.30164016697143103,-1.1109753260518842,0.15214060613065347,0.7017226505342304,-0.22632309237266068,0.26820495234959657
-1.7049594924281477,0.3306221842073861,-0.1793181383238811,-1.06603700517297,0.1738999753635152,-0.8749077502723701
0.29740807776981715,-1.4807336737167014,-0.8224733475998728,-0.0023306423028029433,1.2780360679985066,0.026739874057901847
-1.8757846365463586,-0.15331712523917468,0.37142295398011366,-0.7251628314801606,0.0667170073956657,0.5716083513655796
2.3281584125620314,-0.2923746534154282,0.3010864124809495,0.4115616434230766,0.7281957646505703,-1.8578436396690625
1.660605817042267,-0.7230746935189032,-0.1502420264176736,0.06520636658799658,0.957670707497174,-1.058880288394473
-0.12484004235873888,-0.8265752525105737,-0.8320996810463316,-0.9777087227483608,-0.15103955567158128,-0.39802968932912625
-1.9153949814725908,-0.828386708587623,-0.20008899111815165,0.6880401178223639,-0.30102392735283484,2.5262484600855815
1.484308391797748,-0.6862249778498002,-0.0002210186300611594,0.020171616294866815,0.32361592542830775,-0.9616154040461526
-0.7180250628772912,-0.2219274657922276,0.3952193766522322,0.7949107444061152,1.3625370061129136,0.07717521379023204
-1.281065612338313,-0.0804787970338963,-0.6588990709340341,0.22109064802227213,0.7748104991970135,0.21694081464256285
-0.6155798098357989,-0.5541640760148401,-0.007396573732326717,-1.0102927002602138,2.095894796020814,-0.7962547198591362
-0.30960144458472816,-0.276973093863217,0.08224301173432558,0.5110206823019555,-0.2303309329623017,0.2637964096657583
1.8390213600715914,-1.5668544901159405,0.505576883664641,0.25474735057186854,0.6217782476811171,-0.41824214577056484
-1.4715891574820066,0.5058272385525269,0.37737794168692723,0.4563266876459684,0.45721574544891097,0.21212834003586678
-0.30895403776921804,-0.28719334248623374,0.1488753383898219,-0.1215751521664325,0.629121684379855,0.013287959394754911
0.43605406461387797,-0.12484066154483026,0.050433824466341245,0.38585299054265804,-0.737221136324733,0.556206032375571
-0.9119294828602127,-0.31396660934273557,0.7049689091165358,0.026777108395634852,-0.6058279477600266,1.1108410944775708
0.7940932862298393,-0.39197719260846114,0.9338296215294852,0.8142486020373123,0.41110510061887356,-0.9116995991258701
