Gx,Gy,Gz,Ax,Ay,Az
22.748669999999997,8.390035999999993,-4.199916000000002,35.38999999999999,-749.1479999999999,136.25199999999998
4.345324796255991,25.51954199481095,2.824475619494809,4.033452362579536,-0.22663799025413078,-3.210072902261653
11.138057499251637,14.15872525494491,10.413591548397333,7.217581352960348,0.9894021833588658,0.5194089891876005
0.9643377820941075,31.402400336516212,5.890068661814997,2.075585904988475,0.8473548602770347,1.3997167631357963
8.511276905052446,-2.0613640371495396,11.440388482536973,4.414020108152163,-2.135041237286598,-8.390534769449637
-5.808338263731005,33.47235467067806,0.6040901723770039,6.6939217385445104,0.09318433743238769,-1.881520507747573
23.06663349634747,35.40156740449159,21.56133803391674,7.3574461949734165,1.3178444059148497,1.0910618068189168
37.10027322855257,-18.962937617473166,67.75211341913362,16.089480966861974,-0.8092250207358898,-6.694403105490036
-47.61121117151711,103.60321859513229,-102.01718557061179,-12.359249575145224,-0.773999772499628,7.031255181265097
-34.40806716905357,-0.367859820673317,-22.450792615299736,-10.164286529648333,1.8380655287988383,5.130561445094832
11.230842686042536,-58.17188187280537,-17.722951146573962,-6.9749726508250305,1.4287588841528196,-1.2782877016937941
-6.432369360811667,2.270751110508133,-18.989038819177747,-8.063842967721321,-0.9960290323948466,-3.55172897107998
-1.9600641636720684,32.63965907590244,0.5431930486440677,-1.5768250633611007,9.842964513306743,0.8831148645616806
-11.84010425942304,9.489689424171592,-31.376424911542127,0.03951482086813618,8.70911004977901,-7.051285681408613
10.8687035096116,9.846353032559756,-12.48407351800817,-1.0210088079899924,5.302178095360861,-11.58237551860101
86.8806297919992,37.340067988849334,11.272562836832755,-6.392986430274651,55.05619646617716,-18.045574237173856
-3.1263177721713493,-12.277686810776352,-26.255918795954795,0.7648473887197821,2.2301945861057817,-21.629914472948123
-15.847363979910725,-17.91818877180631,-23.926805744808213,-9.686772475957357,-5.60045097494939,0.6327478269246587
-35.11478542832295,6.371290261823093,-8.63658262865821,-3.080688905908621,-5.888463998216057,4.612862018714451
5.575661120382445,-14.918738480247553,-8.713410007543516,0.27586480330473284,-9.104674955366892,-0.10942409712807674
4.206469159618897,-23.38791979963141,-14.370300823111812,-6.902214600389113,-0.23848425628101652,1.7455497153118502
-12.196639842064977,9.2254771309989,-32.25629433370647,-3.2432726005486177,7.608002205263107,-0.5600068027797782
-9.609500625894565,20.840026641353198,-37.57657237820324,9.062667290799574,5.022343851862293,4.810232360502404
29.252843196333032,-11.291658780245491,103.25675446022436,-8.913451862517919,-6.542094477155796,-4.055329900357998
22.80465252646125,-0.9271531828222876,59.437653660648905,3.2390698442111208,5.619647976089681,-4.545157615929443
10.589143152890253,6.691703390429763,19.509952031533928,7.720617101174964,-2.8449483916194502,5.576004851023907
-1.7775256081529203,-0.978427866848075,10.249144529996256,0.7976072274021463,2.959785287008265,2.3063680093500967
-7.137052864267695,6.356630286698511,-11.958300810017763,3.1277954133488044,-1.199645365375024,-1.8512355414074702
-1.57223888083919,-10.301561241081165,24.31123369766,-0.3427635554443214,-5.899906313107195,3.925363713858511
-15.279872255899658,7.8098331212706995,20.753413870745305,2.736880564414533,-4.274604127470815,8.377630690033143
-22.05536215121908,-10.148156302232792,-8.45355839888944,-2.3995377936213154,-2.9683827253528308,2.3400636231495735
0.81752409468967,13.636675096114017,-17.798608494455387,5.503997186025309,4.413076009019921,10.600353405557813
0.6988074525927814,15.374667893973655,8.814233837369724,-6.364286276301513,-9.868929958139956,-3.842180168533187
17.266885827864748,1.8575803933649686,6.097259567211012,0.9684764848374737,-6.701210899817292,-6.237752359069205
-1.014493201324954,16.230395531744648,-16.673003453640607,6.787748151323564,-5.268755568632706,-1.1213937724294998
9.2956726157242,-8.400216673602017,8.187304267444977,-0.20428452085433513,-5.906757861371537,0.4597382846466235
4.269120248459831,5.1625838845617755,12.976630220846285,4.215852515395008,2.2569721307712443,-0.16916180308901296
-14.191157489874854,-3.202335346969374,-19.465624655125314,0.8367304033286227,-7.554886176365198,-12.060545833108282
5.431578227968043,-65.62872496574028,22.51697612696904,-26.012759542477383,4.265827315984804,-1.074086996710475
-0.12297067632944583,-14.249773171710611,-4.708827594243865,-1.0172169773868627,3.335009668280672,4.949303337769092
-9.121529318110012,2.9390767093362165,1.5651456530473642,8.304086292534574,-4.335430643214968,-3.874184004974877
-1.7370291112525855,10.699117944768874,-3.2320610302056343,5.216747444454132,-1.3761877007986496,-1.8648694032938198
0.4176427000900427,-8.537308522051966,8.446337426389281,1.5136708671340802,-0.0675053878920222,4.148800343537385
-7.385245191751866,-6.568157222775209,2.6085058371283294,-5.733992126769273,0.8677593547206417,-0.7002962350766467
8.583827678971899,-12.780049822857913,-7.31446801469523,-6.131241474707179,-7.781242563744812,-9.134899260095386
-3.2026500146497945,22.760672146672192,7.058849583621905,12.967561984596209,14.635456990956522,-1.6854944757679953
9.342661248075165,-16.599998653890047,3.080903364338057,-6.386943736938487,-13.26474010736902,-5.355213727693724
-3.8765701275467404,-9.061873338127677,4.347923923304157,3.2525207244652954,-1.3080894242886436,1.2539508770202699
8.336852589729748,-2.0030614435738894,-0.5090082160707066,-3.7906843131878802,-4.2433411529460106,0.35093286721830935
1.5727680907779111,-12.173723247318314,14.45566311094492,-11.053405833121156,3.307413309615456,2.961603651928187
-7.71034653832052,4.438632050482317,-3.4087383149126422,0.6549349005873268,4.633226959695573,-2.860872104079301
20.168238732698722,-10.41893491816723,-12.688293833674924,-10.019500829036526,-9.97449026524349,0.019091208351737665
5.350937824985339,18.488810851555773,4.504945496149199,-2.175863533187253,2.1046901307790624,8.133698562378164
4.014358256539617,20.634697807719828,-9.08908361407382,21.487175329425266,-3.052137147343325,-3.7277325678444235
0.03854030857755042,15.117291296605568,2.7892773204141106,0.4176422835225293,-2.3952384425815625,-1.8866850075357386
-0.9699124405344091,5.9866794992909345,2.2226630008262025,-3.621184800562,13.756223241089335,-1.0284567886135445
-9.809213744339518,-13.042203696898985,-8.913328523349147,-10.234208659489168,10.583568330046925,-1.2777579159580168
-2.9799604102991015,3.5456847511281318,-1.3775985359580878,-4.21947861098966,-0.10734983271559884,-1.615165075630015
0.9388671901826049,-9.12380068007583,-5.779197079251283,-3.7335729802065885,7.528678305770176,-0.8279109345763476
-26.56753693333312,18.807819052769503,3.7290786416692705,16.41783997728012,5.6846242953022035,6.178221592148358
12.964149327331867,-18.145103172973506,-6.196140772096044,-21.302351484786236,-3.810766377711835,2.7295933106883665
-23.763240114501322,3.508074146199046,1.9102337242445384,2.7716190089712156,23.97662687886893,-3.0796392703443356
-8.011649573835582,7.490415608588576,7.338847082028288,10.63028839193747,10.944284660749746,-3.5637579357132507
-0.44128850355289506,4.7795401031802704,11.011451513235048,3.5076455090137513,-1.9815743509899635,1.559470685066663
4.877394330807636,0.34637576706008577,3.6193058276207437,0.6592949476309451,-10.705010904843963,-2.155812422539468
7.840632972611192,-5.884074907895039,3.905448982405732,-2.678640731530346,-9.01894392147485,5.50309450723769
-5.2589681649580555,4.7159653249164455,-0.7551231016802735,12.016700032523016,2.358218410759158,2.3685868361495164
-0.5559374248605824,-20.74790926270567,3.706980891168849,-16.608563621117945,2.974333540747547,-7.636402483806616
-2.9893000928781484,-10.134422892752111,2.3519821399509016,-7.431970105990764,-13.312584990167139,8.343444596557314
3.846816895086498,-7.930966992862276,1.4634299999947993,-5.190614905375621,-6.389668037657549,2.5686015343987263
3.23690602459767,-5.861273405166409,5.156184953326866,-1.2814193940030305,-8.359880728141835,4.6107814163614895
2.712964617408451,3.0349252068708084,12.942421171379399,8.450810310276639,-13.148092795027184,6.655464221767222
0.9086508261045316,0.24583166477379598,-4.18019734714359,5.65038030955693,-2.260734160275386,1.2829004118096339
0.7893828442398049,2.7463108505343845,1.6982605452513835,6.538517904801704,-6.01853555171638,3.629600176636746
6.364719849427709,-5.82062112615524,-6.165994274064504,-5.745735331438892,5.710670128612346,-5.676854848675487
1.4240493945896815,8.595054412345165,12.771105611576862,16.98667251890059,-7.829700748734007,0.5447998511681611
8.390022295721291,-6.149071667634493,-4.91976647411268,-5.77118107719362,-13.701111754117907,9.348795255165578
1.443510038594737,-5.146087110359588,-2.4787117049902467,-11.461569077838481,-8.203423630959866,5.1296542393076585
-0.7857562664967268,0.003531272316914913,-2.912140589260567,4.730135038233452,-3.2805082283863864,-0.9426478644860427
3.060957677819614,1.5825100702845876,-7.022738536549519,2.876979878685786,4.995061302017078,-1.1128751533823784
-3.0477704556456016,4.249823515100966,-3.8596202687821437,5.394447120664879,6.600718716133004,-6.947904046565084
-2.9141034901955774,-3.535983707679006,-2.4507928276480633,-7.594042181115749,10.84890103870124,-5.746283583562541
-6.432779739998984,6.847377394862223,7.8652232968233555,12.4377140203067,-4.036388865600406,10.670926890484239
-2.7219025495215883,5.9713962439286,-0.022895980324050328,5.291028754280936,10.946696324617369,-14.441772205377974
0.8201549795125436,0.8485458995266502,-7.348589160097697,3.545472681849829,12.509640857870341,-6.911896862683409
-2.326977719495975,-0.7433346968968056,-6.832144432359547,-1.2502783493433463,-1.7598857228406317,-3.7228725358786763
6.952400353432628,-0.8610321225094588,-2.013004674609901,-7.700492730382883,0.977052599000072,-4.116631835089845
5.604808691800967,-6.742716245144644,1.685219132861441,-7.240000935932824,-0.10282956025041064,0.7822752620918654
4.6628409329790745,-3.469306652660769,-3.29117860701876,-3.7446674304350704,5.711723806540461,-5.226720363067072
-7.454594329090595,-4.427991281432449,6.676672219858618,-4.041777589343015,-0.8730019042081067,7.036145183698144
0.3486814640004068,-3.143120838244352,-11.76994624839414,2.328627842322005,9.044169380795754,-1.677539578177735
-2.566321527180743,1.1314895463504757,-5.1497891626542245,-0.4262759348612752,7.747990412977349,-8.674215531366753
-0.7946927078325996,-1.7479821592234646,6.692368388486921,6.953358884445786,3.521897882921246,-3.3136210963994395
-2.4451753544383212,-1.297460182131056,0.9782370817918062,-2.558051395951127,3.160841361627262,1.5490822873097123
-7.326311015164297,-2.360389902838203,5.497740201852752,-7.053481210588155,0.14074413231769833,5.8195648685117485
1.3049703830173127,-5.130209367845687,3.566334186037526,-2.6319363494387504,-4.599151019544976,4.746106317691936
1.1535050964487528,-1.2753328549122926,6.245449144295375,-2.1851749858093314,-6.162600923737343,4.525321689671262
12.474743421697298,0.11472033076872751,-4.865500333943414,0.059707598714849874,-8.388467764994175,-4.490050049758826
-1.173998044061519,-6.312875825544733,-0.3951076736620429,-2.8472942738087017,-0.6170542666683949,10.810635777674644
-6.105499056613349,-0.6715807312702007,9.73104818594653,-2.4689912371378786,-3.859730593811288,7.817982573826023
0.543128529502616,-0.42310396923940097,8.820838574905586,6.143604930601229,-6.28001133218744,-0.5657409110639207
0.3023194462719683,-2.3835104999297294,2.552622967861891,6.749167695544347,-2.643904764191583,0.8622724780359756
-1.53309479628544,0.04962336182331817,-7.65029626798175,4.2099721036706015,-0.3498106843154384,-2.519240568580328
-6.7457754341379825,-2.0432426760731333,2.5256287559485244,0.8273743173243876,-0.7107705008568628,2.8830439290140393
7.5848937496101065,2.5172430902883893,-11.909772868388247,2.4482379924048714,-1.9523809915070292,-6.499707050087513
0.29266378616330807,3.0905608932971074,12.271982604428224,-2.7337938698922644,-4.896334952249198,-0.25530638678644574
0.06233454952255979,-4.651716670790385,3.1047477969750084,0.8383485376937221,-3.811662859890898,5.105858713017202
-3.648262768747737,-1.293308139769854,-8.825662308359435,-3.9366114257721163,2.8929104898444833,-0.5467075676156036
3.478505378992036,-1.0281870258406411,-1.7207958010642401,0.1766070377089429,-0.8385565128449143,-3.265437005384486
7.3163020046408,-2.160544069091757,-2.436443768389212,3.134092950406217,-2.470319499552394,-6.102589021230168
-5.885593860828657,-1.577507887757724,-3.4670178348468985,-0.4366058923809094,5.595721922663823,-1.0591087393558793
0.827418992077857,-2.7844299796552328,-8.402963398462555,1.0095677098681528,5.629114323106619,-1.667346925717247
-8.040899179913353,-3.4155180280809567,1.57567584678007,0.4773662577588118,4.144443582086322,2.885124140475598
0.04819912350839339,3.586524545463424,-2.010904293844845,-0.6314660628342255,3.896814934027163,-6.116466594197821
11.339510768633337,-1.1889273272112288,-2.201625408051852,0.09390652562559776,-1.0418168654162145,-4.420716103588943
3.1649928912482936,1.0219555779608356,-11.162582580139434,-6.427015542680234,4.5885008595750385,3.252336090976936
0.26387352063777175,1.595416622364294,-5.245383895011118,-4.266881834728208,1.8071217262262627,1.730681263003011
-1.6864188177164492,-0.5537679043417787,7.721031966652639,-1.6860996549899974,-1.0375216720832694,1.567976540797097
4.898370611762237,-1.8693529267836628,1.9463113900962692,0.9287123060669723,-0.458399498884881,-1.8169441491451426
-6.371225282610926,-1.3698858738423305,3.9161447776481886,0.261988202486807,-0.26393144179588135,6.4324784109843804
-3.8968046231621436,-5.189571294910624,-10.3414950004732,0.5478550342234663,5.587913368715323,1.1170125972698441
0.6847156995388943,2.5984181509537327,-4.799681947651944,-0.8975347818818269,1.9285910674354672,-3.19381044843058
-0.004661168407560701,-0.6086430334554804,5.923554828116254,3.1794113302614724,-2.2745362523543053,1.3799226260058437
-2.3299224704373254,-1.2838573249267609,1.4889559503022698,0.6642438606091023,-0.06498337049501957,2.3211654444631726
-6.871937370055352,0.043022195018002085,-1.1932152688324855,-1.1397389819331536,0.8945409146055312,4.25805402709947
7.323353743892909,0.6340768694089919,3.2631658603082196,1.6648783539665815,-4.584092325160202,-1.8939087820385554
-1.2282818200014536,1.499005105163619,4.584774844233517,-0.7030122994245136,-2.1581131536107785,-0.47942195762369977
7.216829155397423,-0.7323081423149161,3.320591328659268,0.31659756354187607,-3.8312893087546422,-3.340655810072054
-1.158659356358559,-6.67276071744707,0.6378454413242147,2.3212215985317384,-1.365691366056051,1.8186825465575753
-9.101503128355434,-2.4345847115451678,-0.401512535927719,-1.3354501832309529,1.2036755670647357,3.581965600463116
-4.512797720368994,-2.326433403139471,6.625164722879793,4.82104179187842,1.2895621658537055,-3.7209420090476
-0.6592227149537866,-1.9290424925732053,2.522559173198878,2.080821055184403,-0.41565121158915513,-2.9093041161948157
3.5815649323358114,-1.2763248907720293,-5.466563401512879,0.8149776957594627,-0.24112270132181746,-1.1889900652294427
-0.8345479887409049,0.9453674264627576,-3.3955301520388046,-2.2822723093998714,1.9894541486670851,0.9620047373712051
2.333496745076895,0.517464282034254,1.3486765279086272,0.03233796267053386,0.1602231998270413,-5.570867571466059
1.852089264025896,1.2142975249528136,4.52033424522622,-1.2029514204613572,-1.4996535122092784,-3.106905753139376
2.306586284318212,-2.844837898702263,3.425818665420641,0.09709705172781609,-0.8594181348767593,2.493296732177744
-2.5407229725867375,-0.844191478865645,-3.9921346660290546,-1.539037280127884,-0.09229920047104351,1.3042334649848986
1.7652943135076065,-1.7608198435583047,-2.4660880099547184,1.1292567043568236,1.2466635403244641,-2.9569143055325493
5.835872411620441,-1.9469308352487047,-1.4120225277420748,1.5282691386019809,-0.2241072533439749,-2.6926340620922966
-8.67681015898713,-2.9088246645864517,1.3737689395294685,-1.2833961112377303,3.790895130327342,2.5699245591144813
-4.259606567718061,-3.8304202650167634,-1.9138129593629003,0.9443702999385222,1.57764327588565,2.987567196034099
-4.190087919912707,-0.7213895949287163,-2.993648929941815,-0.9602567105751735,1.6333823576695032,2.1132599330520074
4.393080889758391,4.822038286324975,0.4427958822659863,-1.2617701411563143,-1.7355224744708924,0.7925169353734791
10.966946257819162,1.0538622562401183,2.0390047390789228,2.3490681443380534,-4.6420392515359055,-2.895178419194686
-5.832663579606314,-0.3883851667688025,-0.6659427318618704,-4.220611171263757,2.7720341629053786,1.94596182948399
-0.9966150876914426,-0.20505141028174886,-1.0740646695111893,-0.9808803856423945,-0.21037941049827413,2.574479677109421
-4.059587192935508,-1.6303312459177217,3.9061651679718645,1.1105948720629497,-0.2379394475867766,0.8264889127380086
-0.3423378012318459,-4.920064253837141,0.36161883326034394,2.1942814141860882,-1.047905376597524,0.044559847483140236
-3.6689870201342307,-2.5445879686942168,-0.5174535444087459,0.49911481043382344,0.9766217937480859,2.9791998730424503
-0.6789607077481157,-3.4652094320468336,-2.8813869174174456,0.7355116776040102,-0.4884323101261753,3.51738675651284
-4.722383863124892,-0.217439557590712,-1.075451653375016,-0.12353919226308716,0.7432455804489373,-1.3716349269413426
3.9585746526754364,0.07588186899886562,2.814565271911947,1.2291087821608826,-1.4301952102732132,-3.4978067487886833
4.318413369534134,-0.42986784915396525,1.1097187443087582,-1.2762610229728617,-2.5319490329948175,2.478517494340672
-4.761602240675692,0.22449585318752896,1.3028866127786844,-1.1275166081290655,-0.5188656465996659,1.7017206506400266
9.872291771925097,1.3410055583906857,-1.6622350882109351,-0.24381032874546343,-2.7046271036714145,-2.907551296129018
6.133067090263642,1.6940572695985128,-0.5298227548179408,-0.05408748795200258,-2.2421015612623325,-3.5371966504623624
1.4286130596436628,-1.5200361682817305,-0.11038805821868494,0.5630237888733297,-0.3823131960324104,-0.5637703159713745
-2.40367974830467,-6.3509231302875655,0.49550450082360653,0.6584405647056466,1.2196966969286946,-0.33945871495264
-9.137253133536268,-2.0679671681654597,-2.5290300265305086,-1.8106638901890924,4.9792256002993325,2.0754234712285204
7.441999258140462,-0.7477605764451896,-0.9675339871646406,2.524614389458826,-1.7491580677462062,-1.7559026328654008
4.832129073715102,-0.38381319847681034,-0.24121323950388113,0.8968497024795355,-1.6836737364751322,-2.176267976798755
2.7457153205215596,-0.17391094739720264,-3.0524422150647514,-1.5784870472442774,1.9749943006078612,-0.8366661719155057
2.540188906858872,3.6824558089958814,-1.3071521736453016,-1.6390752758817688,-0.405767299396241,0.20153535929985522
0.4937249430752094,0.26181257878851605,1.0027426756235,-0.765482627290243,0.651952230295897,-1.4483584278142776
1.9863941979487219,0.0386960980615938,2.6420858051173792,0.4357525521999406,0.37915619020357527,-2.9128853096209437
5.201005378345312,-1.5834927106792764,-0.33601228641133335,0.7322792861110567,-1.9041639476349879,0.625291716897665
-5.972246699311237,-3.1941732856339815,-2.175869918002889,-1.6808454439349312,2.639053726735409,4.214165611052036
-3.794271384496306,-1.835111957487296,-2.212348806872728,0.6536536298741675,0.48718604058796056,-1.1618434306916534
2.714195993250996,-1.375006235371501,-0.278397755902545,0.3999409521715725,0.9015735927542236,-1.5907228070197896
-5.656204474262231,-2.0312867261388288,-0.060486082210140735,0.14925564480108536,0.895479435768132,2.642424580199014
-6.578123410735825,-3.2012646811483,2.709645036136986,0.2926632333042223,1.8904448827713496,1.7243582407722475
0.2599547608664657,-1.867084881236008,0.2865097777680462,0.3353317558094324,-0.45353145000098044,-0.792771021822066
-0.3739771310482799,3.838981367002233,-0.4929260023161355,-0.5733249841269965,-0.11161041502030145,-0.3030708170073927
3.843013109086339,-0.8608744664506667,2.996516397712715,0.9281907043971829,-2.016432718957505,-2.340013892171495
-6.5547621931349696,-2.454755469139346,0.8348267314089646,-0.6891352053133519,-0.03173448256863809,0.9277008051472011
-4.403241381259199,-1.8002475491713015,-0.18780506617089865,-0.5152205608045094,1.6113624311837595,1.662214357367965
-0.12649366089700265,-1.7847464644642554,1.9684306832134975,0.8849762855306136,-2.046378541216942,1.1182340990211053
-4.354321772440447,-4.976742688498425,0.9597039596254734,0.8798008626989242,1.6131822650184002,-1.3911703108221707
1.754370099055152,-1.41281274621869,-1.265713013397523,1.0559361602788582,-0.714674131151624,0.41923556990041244
1.2799660992824777,-1.3951495934415785,-1.5985378125938605,-0.13076785546306857,-1.0961295000751665,1.506254678984103
-3.569015209885124,-0.6467988896175975,0.40437731667601073,-0.5644902406429513,2.3458172052810893,-0.20823901064354766
4.6049440048569465,0.7005409792990238,2.4304471584552645,1.4204769847148029,-1.7333063472984034,-2.711345812321174
6.219216698497138,-0.17819645705189763,-0.49307703002397607,-0.09696431237164432,-0.8846681118884537,0.06114866930121125
0.16552446830637516,0.021186255576887844,-0.5827102355833663,-0.18809298393138651,-1.2224943802671668,1.8176928396282137
1.9930160632849387,0.3821320256570792,-0.7506644827516415,-0.13679076051755926,-0.7517844121971495,-1.8929755271785367
3.993285574286828,-0.6013471744187567,-2.7535973015212463,0.07043974608629527,-1.4148696183728788,-0.3978727649288232
-0.3973488050482885,0.23196743407603299,-1.0104906514710252,-0.3456573491756354,0.22450983490441778,1.6839066346175873
1.0161098665157084,-5.89051798869294,0.490305929167162,0.9084046050686139,0.02587292015852262,0.9843203769765669
-3.1509613347351393,-0.6055112267183504,-2.0997537014540955,-0.7298057449108586,1.0630164793069072,2.3406978235319116
