Gx,Gy,Gz,Ax,Ay,Az
-7.108525000000001,6.513336000000001,-4.156822,5.146000000000001,-494.14,72.60799999999999
-1.8478204684061477,15.89142973177575,2.4352060945670173,1.3075176945465332,-0.26766836658854154,1.6651382827830652
1.3987200641554673,10.800215125049673,4.94334651120794,1.258449017210306,-0.5938385299614156,-1.155362999875323
0.33662561636858795,22.711409567883386,6.750535137714834,2.772362602036126,-1.0836045444456142,0.4835458064294629
15.172253336044575,60.94140272476056,6.347334236088658,5.660688437773693,-0.8451200698946864,0.6652733555799766
0.327279417127574,-42.32365355724672,4.217390025481128,-6.263907318588637,0.9714262615972251,2.7651696818186293
2.963754436624307,-13.274572824382522,5.558784230973133,-2.8185346869860237,-0.5508771988484752,1.8377668905581939
0.790734624807427,-14.27291879770716,-0.21628543675546763,-1.5237220553969602,3.0649778767493823,2.3153351614917046
9.433563820194054,-4.611196156723174,4.452986574774891,-1.7820532410258088,5.627611313798759,0.2646377390779402
-30.62533947134264,7.6782320653985945,9.724512194751483,3.342862784903301,-22.24557593116805,-13.917501752957573
-4.28524889030526,3.175395390059957,0.16045937174085978,-0.08130224332561589,-1.863619675413636,-7.121916832446383
-0.4135746577209449,-2.2772412312827726,3.6371571807351355,-1.3001635145953467,2.091929881832975,-3.7171518467730977
-3.5943705320013364,-8.118838617672345,18.670773676536992,-1.8449933530559717,-1.6037450975122727,-2.9633528597000627
0.04058491747890747,-20.28046211429971,107.59417216111254,-4.065567750715031,-10.167328363690432,-1.7683857868093937
-4.316254485272217,0.37950546550915853,-42.2470704237252,0.7099546813257688,-1.8838292727578674,-0.26488443265568995
-0.16643223826981426,4.805861317771928,-16.225999196879606,0.5426322322267751,-3.31443456168073,-1.359695658655608
-0.3811852341312305,3.5078008484953123,-10.3704601455911,2.4134827474750846,-2.6342487798200063,2.1831500442291656
1.7815653523102968,5.5725386713691165,-9.043752629904006,-0.9948792688252688,-4.219991454643991,6.69306907691403
-14.944764805740151,-5.452928031287273,-11.344130851365932,0.9100754607356415,8.115857030532371,-21.32596354878408
4.555765614663648,0.7897956167328521,-7.648780477916134,3.471629377873425,6.2967371377643815,-5.1733192344300996
-4.3354738536408775,-6.811558827923609,-14.249681928291142,1.9176403168823217,1.0901447726399756,-3.404359182500933
1.9070292225614536,6.14579747205114,-9.193890472214575,1.1142401014303878,1.8608306721531243,-1.8287496434062989
-3.7964089079554073,33.975348474040025,-9.628228216951623,25.69074687234739,-8.147238157536918,-5.536795098892578
-3.5638558626343992,-18.80113299175429,-7.485543013107015,-2.274366458294106,1.4348796147875027,-1.7782618596744573
3.102057640152263,-4.986559693504334,-4.560798748769214,-2.342958197019572,-2.1053474972040136,-5.959767885451948
-10.403501032873834,-7.721184991147637,6.658123664418039,-3.7736647721596976,2.101252613285811,-0.6654032998321242
-13.862210565722185,-4.292913256915851,4.049091167323308,1.199118366975467,12.803833646408659,7.199339571958433
18.45028344003334,-6.0185642863563,-3.9518102749674613,-9.832102870868525,-17.166681318828775,-14.379745381122984
1.2291915782319194,-2.140969270324553,0.6042804990594423,-2.4888492437590104,-3.049144286419956,-4.516564440371856
-2.9064550835355707,3.8289166926145737,-2.9749698910247133,-3.360504725799092,1.7651436434485483,-1.0301407051030362
-3.4678885946375093,3.7617010738517243,-2.028492713123688,-2.1335273349765016,3.5019212453587434,-0.5649878603838571
-5.092226506702545,-14.190741716390093,-25.90725048172231,-9.330916671971304,-5.962062378534226,-6.884045186710479
-0.46375875517907933,0.2776087318491247,-4.116173016789009,-5.819525000168355,1.641118868749179,-0.6412177586173621
-1.4081995938287142,-1.748277539051902,0.8759465811806013,-1.8019995518109524,3.1285943383118706,-4.263657818530858
-3.344195399689693,2.7913956770616366,-1.2288855342285563,0.23343576865255322,1.1120517562863033,-5.502482115298926
-5.839264389750205,-1.836952470329629,-2.99903304383266,-4.396394990703675,-6.033517395448975,-4.816378746526197
3.8431421785619158,4.841351959648568,-0.6126552122313547,4.143392925568812,-1.8190444011745237,-2.068221614212658
-1.9490232633884035,0.932868175414709,1.7252044727886762,-2.9232897874965844,-0.23239931088354904,-1.223364729590807
-1.579482803955319,2.8904237457445205,8.46909801555759,1.786963549845073,-0.265034461171318,2.6724791319968655
3.133185105510266,14.127094622050251,7.130535381434279,14.34368101446637,-2.02218595994708,3.817179727487845
-7.972206142908865,-15.98776335068317,-8.542420471276952,-13.63463578597717,3.1535192474685996,-4.181551677689652
0.04679596025510946,0.07433968853786777,0.8401568165022861,3.740243032505837,-0.7529305547695293,1.8644014749081865
-0.3687864680064105,0.38050562854486847,3.3751851581577426,9.430696957808197,1.8131566300308766,1.1857296287574886
-3.760498066043036,1.3706090277622947,2.0486219502634695,3.738651497619353,3.730870336882412,-3.18548270261377
2.085423988112875,-2.781287596861356,-3.1275318506136083,-3.613944525598383,-3.930072233206565,-10.954698444412305
-0.12031107953482378,-0.06520055928482005,0.6638251892200837,2.055478235552638,4.589535450823806,0.24933597556538967
-5.366013719017633,-2.7857274184380367,-0.6384526998731124,-6.649877620009098,0.8594474003899226,-0.6315111810984455
5.451600573194349,-3.4926661026890122,-0.3711100444285356,-8.393254488902022,-3.8786101498937735,0.0284510783337107
7.108962517817414,3.5314567094795173,4.193635538881528,-9.775210204577904,-2.931730675064806,3.0806281461644405
-9.95251012583699,-4.176901985822008,-1.207938517207772,6.928788548675214,-1.783368836545729,1.1706268996452167
-2.3182515286141485,1.0114964601362488,2.570074040802125,2.597029462283228,0.006728828299058076,2.735253766434573
-1.1857595154470828,4.421274243448275,0.7772166131135781,7.1711534004853235,-2.7587649325420958,4.978054038574293
-3.794486886403259,1.3153108675918956,0.48852909077225,3.9601873134039907,-3.476050756570605,2.497861397776532
11.73481831925619,-3.811093218209095,9.028471292416036,-0.3628637891858584,5.126992696539064,-6.482895087391477
-5.020346590444034,0.3748902715744433,-1.6165885983497672,1.9919063060622295,-2.4825645727663694,1.1701934730971173
-0.4172270423609308,-0.8566758065496294,-0.564161026320039,5.3137280925743156,-0.7197951690760226,-0.22337661304382128
2.5950382012785713,-3.183874688056327,-4.836183972287795,-0.02110715906571725,0.8888122215441587,-0.6724210672024901
4.586947364727038,-0.8249187088057294,-3.1857602053510385,-6.926737061651824,-4.904382625782877,0.5266171222497362
-8.318015589698554,1.728120207687387,-1.6468618017292778,5.918218787657855,3.8842833086469684,1.4642126243061897
-0.6209382195162626,3.070944741062797,-0.36998634465888464,-0.7024843396911422,1.7264667193313399,0.52554173413384
-1.7949671152727331,2.507402121392318,1.9174853585182512,-2.439226263007048,1.2236564135086505,2.584137653266631
0.34773629490177593,1.302583685749116,-2.41587860452682,0.5805322170397248,0.36473103278071345,2.234971285348901
6.215905636008182,3.0794119543772283,2.5985795098740674,0.1093697165527284,-7.4787663981510635,-1.0002849100150935
0.7215371351835662,1.897444887253815,-2.0277106560064113,2.775685200517767,-0.9316323838691616,1.1510460116668688
0.14554829123014287,0.9775087111109513,-0.27128722194689214,0.9647269588099892,-0.49807770942264407,0.36565807059323674
1.8973007904530887,-0.855998134230807,-0.020659823620148204,3.2859383628811125,-0.1947068960955055,-0.11937480341093738
1.739588455839812,-5.8272513274334266,-1.8820406047984966,1.8280705777425983,-1.1776358287247806,-0.3643761742432353
-4.899534524631785,2.607820473277296,0.8767635175231447,-1.5884630686113406,1.5446368672389514,0.10457821164310883
-0.6126321198161503,1.4252022510588014,0.5302745211707407,-1.3519035323358752,0.6201673694224479,0.03678534139219572
-0.9204384599296219,2.4967191195959795,1.9354647762147958,-2.327185544026169,1.9836101373491364,0.5452752140632456
3.303076859688403,0.452675693195609,0.30444530641103573,0.9597365562219179,2.998048165145244,0.34797406773555734
-5.124135831104075,-1.259944418348443,1.6602612471501044,-2.501132544152292,-1.5989371442917406,1.85770397410421
-0.7941267837506918,-1.6931482849169668,-1.276324176597182,-2.020222051575546,1.7211986145010922,1.055067410290946
-3.3974248319618656,-0.4705343234333994,-0.05409838400980427,-1.5300272163719522,3.3400818237649355,0.344132006568527
1.8719809087313954,-0.08169968407355745,-0.22875069682287497,-3.2831713482122913,1.0734252726009001,-0.5536981420821331
1.8528733428954225,-1.934914775230834,-2.8253859531476064,1.8690557163426327,-2.9307137684148223,1.1329792356639843
3.6019851358600308,0.44795173694380397,0.3757514908900119,-2.0855763144162403,0.028493871240378832,-0.49070811129819425
0.7261574420874228,1.308548375328377,-1.3270906002925322,0.90874628439009,-2.9240879923712995,0.5769279437227787
0.48744659044285565,0.3267720767284284,0.6602231750708324,1.088664846204265,-0.1561030261165027,-0.13934669036695851
1.324184788111524,0.19316891895861477,1.4105639829671812,1.877659833640138,0.38925411706947155,-1.009071243960367
1.9277073644150553,-1.6316464516316054,-1.2187453086614621,0.937900792101727,-1.769995286350094,1.194563475407075
-0.972949804998168,-1.3909920711493062,-1.0543502155922826,2.3846706109710065,-1.8314791875328866,0.16839375652240637
1.9743909542626765,-1.447893319705131,-0.15852039951203395,1.293595492129676,0.1943910071084822,-0.5682277681653906
3.6412916221363294,-0.7600433432241355,0.1669692965148669,2.6397945880088725,-3.0263068408369023,-1.3036211497779537
-1.705682970987988,0.4594096058953563,1.6007134812675337,-0.42646100965981587,-0.0329214813683229,0.6868105393567612
2.6970620328786437,0.2851272695699746,0.9341790676129543,-0.6921523484786333,0.22157706541197186,-1.4296342585018467
0.7743400155723584,0.4264765549628991,-0.14686937638087277,-1.0105975156436031,-0.29805203138901026,-0.09715358889250122
-0.349329198664589,1.310889176838174,-1.4937473674918298,0.9003012112531636,-1.9349934606750172,0.7150976845900354
0.5454735305253794,1.7670903604795278,-1.0813987813037083,1.8838825978318028,-0.053450302342644085,-1.013855126606892
3.3733767312451137,-0.3126665614673348,-0.7839569565039156,0.7603062222576784,-2.2398666415280335,0.6881402241553088
0.7581712225000515,-0.8576563299664323,0.5379052583409605,0.5632516725774153,0.5281690842829158,-0.690277092778076
0.9613347879158793,-1.6396136442953189,-1.4507322538988043,1.243604887140901,0.45180992990153457,-0.5540218981411285
-2.648752693948733,-0.7730827029860363,-1.4916710469157,0.43097369601079755,2.467184480165729,-0.9891618013691149
1.536255622531567,0.8426602163459027,2.386685961048095,-0.8253199238988151,-0.8189205811444901,-0.21318515457613785
-0.4116879355630665,-0.5730505333625352,-0.265693095775952,-0.06606814712533225,1.7716129887776055,-1.1462644194418754
1.1597092039263424,-1.1342039437055613,0.23050833907289853,0.4946027180530196,-0.29691550647214393,-0.5190840508326339
1.2630465143327454,-1.3177495200786231,-0.6724472392230397,2.421574827337174,-0.4968578957583852,-0.004046084531494576
-1.1488563936796685,-0.1915837606626874,-0.6279256307241903,-1.3947992550684438,-0.48367180437997515,0.9045025222837059
2.7912313154714847,0.09268495744958713,-0.37100299209631354,-1.0288546745822316,-0.764155693796691,0.11662358456150906
2.568264883005573,1.0009588763981005,0.8112764061744184,-0.9495310328268516,-0.49138541332740854,-0.51368829484293
2.4332315946803083,-0.996651223852558,-0.3034770379597932,-0.45501395411213297,-0.0659574735601483,-1.228384692193569
-0.4003712064614975,-2.1111544327769973,-2.0609478097900826,1.736630971674262,-1.4285114379596084,0.6135397369818949
-0.3763926472197143,0.3947225712536128,2.128936486733125,-0.6687983259782563,0.3956240937202993,0.00444269050355095
-1.298969906533093,-0.9515316322962332,-1.1669262152354936,1.0359261952274528,-1.9671482047057183,0.9236293691638562
2.437383200904219,-0.2797695472192231,-1.0659255338469842,0.7218524196408663,-0.026542844252576362,-0.6782073211717936
0.9266352776629324,-0.5471513608836779,-0.7745232505531146,0.2147867590373421,0.4806712881038425,-1.1078628893020188
-2.8538382057626945,-1.850572330838042,-1.5364396389977562,1.1567661497376978,-0.3588410260187414,1.1632438599755384
2.787209803418252,0.7579499020044184,-1.256182153214508,1.2524109045985865,-0.2914461704332152,-0.9705224672504421
-0.18524863128459174,0.4059673303383585,1.1155544142317828,0.06762495106346705,-0.2551630282041202,-0.2628829250713526
2.13025982033379,-0.21900736020390127,1.5516019375806684,0.09018993472132009,-0.9377983998474549,-0.488590766693324
1.4712671915719537,-0.34153990748208884,0.4918111267563241,-0.5454104989859525,0.18459932375506077,-0.1396129597277083
-2.8616390172155257,0.581775881209247,0.7168111427787129,-0.8726012584633136,0.0799698706599526,0.5863702561379018
-1.8478315593553576,0.6227326035298875,-0.8642269928863708,-0.9964008380738509,0.1677475841408788,0.8626793271297909
0.7656124605699993,0.6660142879024874,-0.8405838042807482,-0.34205716132121583,-0.6425437813370072,0.32798972218292943
0.8769204728274976,0.5695361481845782,0.4877364806963738,0.24516451207969564,-0.5633306462844313,-1.0534891883094297
-0.8914390235261087,-1.0561851713213575,-0.6768267262295866,0.19426315397681831,0.005598979168729784,0.3282816990200561
1.8814899216589618,-0.73426013644761,-0.43358718870322416,0.49255456237824563,0.7181652895609233,-0.9892660607186128
0.7259646331481961,0.16436123216596438,-0.2731268764213134,0.6085979129774663,0.2463257252488376,-0.2606424645430067
-0.4425410700461576,0.9237993016430236,-0.6667387188076974,0.07111658619962655,0.6501903583663178,-0.4500894574712582
2.7667110815870957,-1.2185299635851705,0.4925181974264684,0.16833929468654152,-0.5641550593639479,-0.4657814961855391
-1.2964864701556233,0.5669012550584641,-0.49764110645385684,1.2905158321348402,0.44508610540005344,-0.24178111719715728
-1.011572068144638,-0.18258827317855755,0.6089050491386563,0.8861551593596275,-0.5622295322502667,0.4117247834963418
