Gx,Gy,Gz,Ax,Ay,Az
-11.007406999999995,2.5132729999999994,-3.4537299999999975,-20.349999999999998,-496.1279999999999,-12.161999999999995
-1.710887372182066,8.29894257918683,3.676765871410804,2.2616489357098137,-1.0707153175673951,-0.7124451745610614
5.026688025107313,19.578247025637136,4.076712675322127,-0.7919044359521988,-0.5939626682092015,-0.2721974830162352
2.526996090669033,21.7637483417202,6.473132147143264,2.400164881008533,-0.85429213826376,0.7584529571891485
29.34905954886015,50.757982236097675,23.98162011776509,4.339367366125599,-1.5272888617077887,0.6649582792204223
-22.882378695262368,-47.64906948527974,-37.1277532062715,-3.3991432852073773,0.0068920625319370266,1.5814397065581467
-5.070921698438891,-5.973643268279217,-2.747714725147395,-0.948888783000147,-0.9449539024228868,-2.7445347946867784
12.196633888742333,7.654699216597354,-4.354324814863956,-3.8083473553791176,1.6447530599731328,-1.400919832249281
9.33606649513133,-23.92876358898463,-14.63033022434463,-1.8093008666212622,6.636211244295782,-4.413331562398884
38.45178127357411,25.39009828250993,-5.355414339806092,2.427531541482808,62.27197848118242,-25.06693099271338
-15.239182484356641,-10.156137688225005,-12.890812871802533,-4.666004565320934,-11.417758464760816,9.322038473245417
-1.8765089986425378,11.154420416605408,-12.883183446427454,-0.8740347825645677,-2.6835444120486804,0.8346161937404464
-7.3172366421831105,-9.162562229124479,-14.359797496228124,1.0934556494143786,1.3866807028149222,-0.11399194628415554
8.550594100906247,25.539018202396537,-26.90943694952238,2.217457319190615,1.5774227027611243,3.568549319465746
10.658482983498416,-33.04218309492157,68.94863146205277,0.22869088190078135,1.0592451945359773,0.8692350333476557
2.6439044484553085,-10.047200576216984,9.084258892051777,-0.13056927435792082,2.27149812039137,1.9383999807842052
-0.6927141149513871,-14.351856061276127,6.618324433656219,-1.3320218924371119,-1.2016917934086433,1.863713388804875
3.896016517064708,-6.042206040028792,4.035395877439267,-1.5145736001181145,-10.917455533046045,5.135763992647627
7.90206895270148,8.898868579312131,-4.435997302989508,-0.2834411301048754,-19.098861219641545,11.340485927958383
-0.5293003644908261,2.2510284026896024,6.181171619520185,-2.1226847583712365,6.786351979965241,-6.348046375782325
-1.6604845362852603,14.500022235516232,5.7495839746371455,6.952473045403655,-5.257889189721416,-1.3571869747902654
-4.360431647368688,-3.597242156205874,0.9437310022129157,-0.6973866878147714,-0.2775930849877117,-1.1337777884288782
2.9583063447653655,4.566274465440171,-4.283273669423306,-2.026937388308191,2.6386484088555706,-0.28815555279228156
-3.0426505073609573,1.9712883598414979,8.191937202603146,-4.6378471147264975,0.2955759798058989,-3.4787094283434423
-5.469221488372795,9.689795680114955,-0.5677204418985385,6.498623474211399,-1.202178152835313,-1.6907968984386423
-3.9977271127841285,-3.4503635654754987,-3.8883035720986108,-3.5173805146323103,-1.321748583899144,-4.87443533501338
-4.840317156869035,-0.9416024309864506,-3.533343812756117,-3.208491181697016,2.3990425825105213,-7.408284475808881
1.9833286145148974,13.69030701301086,1.2830380123410718,-1.8668963376553311,0.007846899087103898,-10.707797503970472
-0.37371747941719313,-10.470059578239473,7.252468669081068,1.2925589733549472,2.406973670595495,11.761976431880369
3.774106458180578,-5.97127141977562,4.235256134736775,-0.9572092760848887,0.09314741020400574,0.8798673017721779
-1.3391070067810191,-10.235008342260757,0.20693618255419488,0.21038248362490997,-2.6539440326654673,1.15597291920516
-0.7189779166981012,3.3556010716834486,3.11886674550155,9.161764516274832,2.6048410932434236,0.8508096203483373
5.703525547737621,3.5263864698049208,-11.817301493036734,18.438771970482,-8.201600780439483,3.200939672210774
-2.3589417039980196,3.242707390371117,5.295241393325222,2.630708577610874,4.170676811612825,3.4377247455621323
-1.5194248808603783,4.7707233915751495,3.4437755996899315,5.102876054069814,-7.800949677019186,4.335334518288075
-0.6549446440285991,-2.0838945029724334,-0.8811357631154085,-0.8522593796246836,-8.483529570998456,6.025780185376962
-1.1530237304743336,0.265716470583401,5.570475275134488,7.975514998558277,-10.468622180664347,5.911707348741921
-2.9050230304394695,-5.820576552996728,-8.916876591547274,-5.076911108677722,26.732487711570972,-15.55537134848672
-2.8181142663144505,-0.20096419362775808,-0.2030217272876182,1.1046528721505435,0.23685389819082014,0.809654412856106
-1.2479899801828271,2.169628342753488,-2.2125123457297033,-1.8422683506480722,4.982059320707094,-0.6942644658116599
-0.16847651321613677,-6.476156972467968,1.6637776082446103,-9.128902063714971,3.6562844613453604,0.423031203999916
5.108296696403848,-0.5969302440711282,-3.4140448212805086,-17.083169263949877,4.962270624067241,-1.0901489745311226
-1.2956772934766965,-5.021489296751945,1.8641305447431475,3.15514428538857,3.466929523461647,-2.424947939222867
3.7827834211856133,-4.505603895719816,0.9822520521847453,-5.622700769674794,4.843295613399762,-3.8143388632692714
1.62358639380561,-3.0315635354685013,4.678200656822867,-0.32355801823636954,2.19687336715731,-0.03567276853844814
3.3417512599121566,1.2984549073246408,-1.1309689660906836,-2.439924581741256,0.2584209712895542,-1.7277017857765895
-6.757931445636153,1.8480729757099517,4.37285131679175,3.8402453759869744,-16.470748794903823,7.664732557624177
1.673341025086078,2.8085521736188976,-0.014504793301703268,3.5407371788512227,2.28831364094001,-3.233079935838948
-4.415073798805251,3.444221989765919,-1.0015739696980588,5.383456778996079,-1.9655819721201397,0.1514543590254962
-7.287222988664967,3.2252083508047393,-0.3451486344449233,3.6999245317978886,5.133782126924698,-3.5089430239629316
-7.904866384974485,0.5867857288074199,-1.7834750732100462,3.9813605505918805,2.7598084351229275,-1.6687776554561862
2.4056606458318903,0.10311573266982021,-0.546831818735753,-5.153259902831873,-2.6149043874082185,1.2674551149329745
0.749742583677901,0.3275162986225201,-0.18738475638658658,0.8776830929318661,-2.378966470864101,1.4607326019155036
-2.554674405528945,0.4960477421289769,-0.6854182024653246,0.7369578962775094,2.2349315331514603,-3.062369015203835
0.682650990872319,-2.411329795042385,2.3787137903258166,1.4488833589939936,-2.07710441703006,1.6208946927711738
5.356898583949899,-4.19153297237113,0.25097223786687195,0.1691739308709418,-0.009113255243528684,2.0961042064149247
3.7995331568599573,-1.0536918414592957,-0.600067585347133,-1.5047366775377131,-4.53058192172994,0.8242919929588959
4.20990615487346,-1.7947052377912047,-0.9703106405717707,-2.4417702430975186,-0.17946687940465766,0.6883540520883229
2.7561868616926115,-4.31607271915827,2.7877259766593823,-0.8889308862936178,-3.2490929936004025,1.9813087925400041
-0.679405358433185,-2.26435805091994,-0.64498024851115,-0.5406010063876756,0.5943192704382739,1.8538197019239102
-1.8440469980131127,-0.709859931426781,2.186879932640663,4.437849621168916,-0.3782735901964803,1.557268769755946
0.45192168319427717,-2.051358256720627,0.3842648691315581,-2.0112925712387,-0.16675844803611273,-0.012973708862152877
-3.290500580793961,-1.7832892583344426,1.0635558923205057,-0.0727342652331546,0.9632295784722384,-0.14276671093278892
-2.324563260395757,0.046243929679789075,-0.7071278471033527,-2.0754842933421624,2.215442972076071,-0.5275588333346428
1.287618807173798,1.0783169467445668,-0.5689522166254558,-1.667129589468972,-1.1246161488092552,-1.2693922402328797
-1.4202808623521355,0.3096028063375282,-0.179316265086372,1.505707615745361,3.736927767025346,1.3853207038029876
-3.595547210578255,-0.10854582392719231,0.9825628158313829,2.004541173757506,0.9230480143555065,1.1259923089730173
2.8303153662925693,2.3783433067970727,-2.0899838688783854,-0.17214575032427792,1.1699647969523328,1.1000195394184107
0.14979541969377655,-1.9612579380621886,0.7787416697371239,0.2608855820153251,-0.7592214024130229,0.08834395874306811
1.4629601943497672,0.43596231743634384,-0.8739776083415354,-2.221444696174606,0.7126611935181469,-4.108041657431163
-0.9138388572550096,0.10950345355253566,-0.4551785280045279,-0.055903422741649084,0.06825369254328995,0.6836352233457192
1.7784971056304495,-0.330536440345934,-1.7658090355086506,-0.5425550051076075,0.4968073286322942,1.16158722148465
-0.6145304117049867,-0.8288993488076284,1.3181596227076458,1.0017922361965952,-0.7197116518321721,-2.5308171880528274
-5.5794199413742716,-1.1382484599134062,-0.06621707000231497,0.023020672126970676,2.0723308436712164,-0.9981907060212105
4.684004891183714,-1.764854306827014,0.9145389119889268,-1.1133018679567304,-3.2087186423507474,-2.749907040089516
1.0744053136508784,-1.7636874776387075,1.4285209316154848,-0.4350201660563866,-0.04937031557284155,-1.544181253426492
-0.9563558770112055,-1.1828893500855562,0.031351822374773075,0.36955650885646113,-1.598286049147795,-2.2629095202582414
-1.751045393783047,-0.6327295709760279,0.6945865001431981,-0.9968674963160788,0.9802442346402872,0.610860911273186
0.15651409003398542,1.0692971444686679,-0.1490199932286152,-0.5713781636782012,-0.4960634867612542,3.8780081560022235
0.1866115635899025,-1.4029982089236246,1.1903099470772718,0.20322531500076818,-0.21020800032849374,-0.624000046722867
1.1179420667245896,-0.11093933856314875,0.5596972194525807,0.6162186974293837,-0.7080002830866732,-0.5581257711081048
-3.7561203117415847,-3.1805580807117666,2.2192411083660577,0.023486938870156005,0.840581640080847,5.050126574536977
1.236566442096954,-0.9572024386509763,0.9318363415266847,-0.04014447544157429,-0.7040691606321817,2.035135355174643
-8.189282897131323,0.1875567149452028,0.271942564418751,-0.8965898450832862,2.8912264945693575,0.8616196193588612
-0.8280943664786631,0.4893754975632016,-0.6203631479588693,0.43070334495002793,1.325515105492025,0.5222216473290759
-0.03928505349213163,2.3420710023265987,0.7009921888355884,0.07103291245766008,0.7574751605362238,0.6017669040456968
1.7981494966983735,-0.6050782486985695,-1.2814975480143629,0.2886268382730131,-0.4245918248428744,-0.8167405132796602
2.3797764149908183,-0.816813156820886,0.030520686657540652,0.16811485528750564,0.9267708818606699,-1.5339137996779835
-1.2599892516680313,1.237160506594018,-1.5946600463312448,-0.36756888038559393,1.1456507221607142,0.3485340889501265
-1.3413288719016734,-1.6929043891053686,0.3265738372625401,-0.9104282484347945,1.1874926241601156,-0.37021484080665934
3.5597219825732984,-1.5979951487864958,-1.1695752173914493,-1.2779235484225155,0.24085641102482103,-2.6962442372222544
0.26188298112000363,0.2093489869526739,-0.6290732084963241,0.28494483867824094,0.8919161449964994,0.10610974987878152
5.719442029562777,-1.0197134356219861,0.08925612951794215,0.4125313439223073,-3.1639201842242883,0.6927309964309196
-1.837927330859812,-2.655838477037742,1.310792520361627,-0.009532661197368453,1.1613513301596985,-0.5775793359054366
-2.813016648233426,0.5178005862322524,0.01956639599788377,0.5986852529275748,0.07918222991202986,0.9560807237360577
-2.3064574304790817,-1.4586959990431603,1.1864800381768352,-0.07522289148484693,-0.15383937346856935,0.07061553430174783
-3.268840025105104,1.8410871303817695,0.8344467896259699,0.6923935001818449,0.3751670290687401,0.08106543558383661
-1.2031474033146452,-2.0749597519183154,0.8308931598878493,-0.026804628690216797,-0.21288653443478928,-0.10143512154318951
0.5452396978428932,0.9725093130407343,-0.007221830485817052,0.3817523603407479,-0.5827576697382242,-0.12326332643812382
-2.755229960141156,0.9437425958242881,1.4217697722850742,1.4940990748062966,0.6726154147781447,0.7547280789169356
0.004928550159584211,-1.0679525425953056,-0.26634208714697294,-0.03611120443497798,0.09405139152982495,-0.9272261962713009
-2.3911796611508116,-0.5213767789825521,-0.8187129852544202,-0.06347753082463017,1.8852305837587058,-0.9047221818075666
0.7166039489363101,-0.8632437947529309,0.7464006756893707,-0.08704615499142854,-1.7435254973336765,1.6733936850072022
1.7392189798141293,-0.07468967256466019,-0.20007512593817653,-0.6832606125977556,0.4194790891818776,-0.19913391872541342
3.6040054335000535,-0.5320455609837648,-1.6501978828794555,-0.6878493111803283,-0.823207346161118,-0.06583045670809332
0.4448630159462892,-1.0700618824067747,-0.37155766198061446,0.640171975270506,-0.15396993790395652,0.29003607196357
0.5795322424960768,0.7237663561185388,-0.43872571134669464,-0.01639185114194908,0.029167483657070985,-0.02835668293520275
-1.248327172487509,-1.0288396384524285,-0.6312128125999511,0.07961825953376167,0.7642922643494248,0.2107167032330436
2.2200603874485307,-2.0317819756416933,-0.6985549001836568,-0.13806407255271091,-0.06812435980634302,-0.8817685232113978
-1.283418840474671,-0.6714313347378924,0.39785364698914316,-0.8280424156336775,-0.01670588433850667,1.0955272882742495
0.034093337684264036,-0.9470441770670477,0.4864897657165161,-0.5481282879586094,-0.2212274734308878,0.3316639042492969
0.268706131798395,0.1532093726189045,0.29769643436730386,-0.1791715700345431,0.9920265933441189,-1.3492542134673713
-0.8951032799525376,1.0062226713941893,0.1703302871393631,1.199316831739455,-0.5676505805078849,0.6770574705551109
-3.018559926260685,0.278868467932301,1.4605235245756987,-1.1925853033423783,0.2754220844820149,0.06704115725807493
-1.1809409511147786,-1.7522118400329951,0.06823962881630238,-0.2605102461093729,0.06252455716008351,0.419340257983931
-1.513534794194182,-0.978885250974967,0.6753145958671979,-0.12358361824033795,0.6123579573270246,-0.14130007707965858
-0.6311250681028403,-0.7724277201340368,0.5837206946391963,-0.4445699635874827,-0.7636299930920263,0.007036172847013439
-0.6873666162650158,-0.8935545991009544,0.6779258830578097,-0.2895569542062805,-1.097162109507972,0.9446267305603882
2.12699610890503,0.7879087564877145,0.04702332830034622,0.674186775910741,1.0630834955553101,-0.6404910050306571
-0.42480549102218584,-0.23198257039008607,-0.3195291479570854,0.6901471392067217,0.7112737555569467,-0.8498867792676152
-0.6307486732772598,-1.41336442539935,-0.12205455959339864,0.030835064036469823,0.21607684830842447,-0.10278708543763168
0.09254843909758172,-2.205971867023633,-0.14935290928212017,-0.10574062807157636,0.8856140374846806,-0.41694648155474434
