Gx,Gy,Gz,Ax,Ay,Az
-15.437753999999993,14.867873999999993,-13.039879000000003,-13.536,-486.786,68.47
-7.330451390742981,26.34920103296683,-8.581600502659498,-0.8710400311889449,1.86021322115922,-1.7021977493880578
-5.056725394685818,14.045109795002098,-5.640844743981081,-2.7611861438769343,0.269289374227207,-8.431761646997096
-8.39530226233673,17.693925175101363,-10.1377128013195,-1.853760031127952,1.526318092560901,-3.3180301004574915
0.6019697603169701,3.305323053033671,-7.708897177752241,-2.9907814167839812,0.9774744287422611,-4.799004834639518
-10.887911298469472,-2.259825438937649,-59.47057601270555,-6.71566297030778,3.228977677817421,-5.034068569180733
3.882423012634212,24.228750443176505,31.0917488340679,0.16994458979780674,-0.877833653499505,-5.604286132052813
-2.197649497002335,-13.20139748061315,16.274695068900463,-0.6042467979109263,-3.603242620538489,-6.688306306666766
-8.926878862981477,-7.454835087895364,10.521321427877009,-1.9557551732892466,-2.542359609686983,-8.314008231813583
-2.5291371893079266,-2.3545693653008586,8.08316662889218,-2.0549552032535496,-0.5843590827529348,-8.910534273077625
-14.666576768100438,10.298897459472668,-1.7998516984755852,-1.4571484837740392,-0.8705645263317046,-29.71725569089331
32.03089281288841,2.1953030432687615,10.859942917781112,-0.7942803190564636,-6.988155896396572,45.10090801194029
8.354745233349526,-6.552610183665976,9.245870914444318,7.2802796741967395,6.192498676432482,15.54353745340065
1.2162500412967385,2.4890355598367577,-1.684579164145231,-2.266604135036452,-1.6001838359694616,2.598312379751517
4.398857861915107,-0.15326471393740793,12.617406504672417,1.490509507174324,7.664835173856437,3.214593251988437
2.182833328032605,13.018017072563904,13.894039623162753,-1.7685809921150106,-6.527426281240876,0.8413269188370192
3.679194419430325,-60.73736998318726,-139.02899647154015,11.152667809226577,2.2913879828277857,0.6911793712667347
2.1662652211401974,20.37540474793037,-3.437550953989553,4.290315391661509,0.409382603958206,4.637011030533068
9.199733492491745,2.046021252350368,15.890583037431746,-0.5702078711220431,3.1118042900133887,3.2283583391738397
7.087229736967,-3.787236684027441,2.4903894025456967,0.08699427976172402,-0.93070039580661,6.469542461816178
8.106606782935172,-3.5743577970596534,5.15917243909046,-1.7913269825818423,-3.1347052401348137,4.849768806577205
16.732032093742298,-14.00815362419947,-2.1342051481671174,-3.765349498603254,-0.7498015741199535,21.374444086500482
-13.786051917900775,-0.37146460110240653,-5.4345572081081635,-12.202978579527876,-8.481262898542322,-6.537627950562653
-0.7992350479424082,-4.027674011564728,0.0066843239942739885,-2.9369628155398635,-3.7209687638943514,-5.914423625964643
-2.0603461359704074,-18.776062111094554,-5.0393293515899735,-7.851074767304669,-3.514218744309879,-0.9090852890499939
5.744303246148537,-7.562742021996646,-1.6278255980250935,-4.823280321475123,-3.8277748303331576,-3.1488336328719257
-3.0839305658266847,-37.16671191326081,20.201470084926683,-33.57344804005879,0.47246900520025825,-0.6190337356706768
7.048584785678203,28.6229598587229,-26.262006512791263,33.71754840772984,-3.2878126998422115,3.1465811773202645
9.067632780755114,16.733056411567905,-26.76235098814398,5.498780973847368,-6.842105436155746,3.3512620996313363
-6.834473175993058,2.105010484247996,5.796738683881992,2.262784828527253,-2.344973421185638,1.0621472902681255
6.873924418389528,-8.110165373498283,4.346797899699469,0.41163129684644045,-1.1861573418648899,3.572807421085251
7.776247324424203,-0.5529810581615884,13.248988670696562,-0.36851154557508004,-10.974435601772393,-0.6556331687090862
-21.677407907403982,-4.458645227615598,-12.807863579518202,-4.776782522750539,27.96806180996937,10.875787477801236
9.31437770984941,-4.570004223393958,-4.35086798917253,-3.88258533241973,-6.040925832864304,2.7131726773179485
-0.07528707589608086,-9.257491672850067,3.153476887058897,-5.207692644259722,-5.621980337061489,0.42858610291530796
5.737490870260445,-4.61604589629853,4.190455563200262,-2.8663357258006688,-0.07377696205738982,2.700545340040939
-1.294331152431337,-0.4131710169631777,-4.1356530014510575,10.34535699034398,0.18075586929466247,1.2190266827997465
-5.324344463734975,-54.48687474415129,16.414632127326612,-44.71923722961631,6.85404211863787,5.457045000766511
1.0780553187179307,21.003438928683625,1.0526393783351757,25.349090380807723,-6.422634948298866,2.751435432024545
-11.886236339018133,3.6813984622420692,-4.389068683932189,13.980473610928122,8.851279827720626,6.742292865134394
4.0140225821421796,0.3899984011237265,-0.12142979809193477,8.125728419111045,0.23745249069148144,2.796198111087305
-3.6380524923836592,-5.823087630806966,2.3519065309859863,-6.219241814215074,1.3332522193144865,3.015639425333286
-7.719043076478286,2.650380049920985,-0.2552631151600886,1.927445489022407,7.777454469173428,8.53615540617124
17.470356239357812,-5.839665219552305,0.689753737478549,-2.5541675283209564,-4.834656259621256,-8.105765158839317
10.30510950665425,-11.361388160358743,1.2616164510847658,-10.89831197950279,-8.392962117781174,-2.365033465848722
12.074209176325136,-6.592750344900464,1.8342891795332494,-4.353568278820033,-4.728984116262726,2.0518501549287524
-6.1594287497287885,-3.179241384720653,-3.6249181267467914,-3.0492308045918883,2.7404712919533263,1.1948806752995185
-5.652673893817132,-1.6357302114768806,-7.361405193880138,-1.6031640110615133,-0.2314708793407485,5.694125049675961
12.577409495852416,5.677033470430179,10.889849200471401,1.4010925755335157,-4.6616743708107435,-2.4725093586930695
4.824464478953076,0.3863801515601917,1.1603227472318656,0.43218975226653467,-6.463302224057921,3.6363940284210217
-2.4943023873446606,1.3987929493157352,-5.43731030517932,-0.5645808505151959,5.887835532636576,0.15307295639564067
2.0468079584440773,-5.335367920314373,0.3005842306875969,-2.009449715468693,-0.16682192419818032,1.2641983363237843
8.297424734449496,-4.696639961704697,1.3780933353063596,1.79395739689389,-3.759798505305957,0.8761362172126885
-22.239870392559304,-0.12787607214739438,-5.903376510577932,-2.686466052174571,27.337909710677486,-3.536120052079121
9.17980966307445,-2.3311850935377785,-0.0707920314071423,1.6945951574993854,-6.353145008742226,0.8528482855791086
1.804455142079445,-4.299257502992044,5.0146780611902315,-6.153888967978452,-11.461355454332317,4.225531376059871
-3.7311261340834903,1.81826780450848,1.0927797429136294,-1.5098549183153973,-1.5031252319032369,1.9465723079738284
-1.405223423654474,0.9889770719926698,3.330376437194182,-2.930104716461507,-0.3233197639766541,3.063983610654384
-17.893056296889988,-5.214345601404247,-0.06062253026702963,-12.439190297988297,5.519194145206665,1.4871086914429545
0.855902416485387,6.843040722766429,-3.5058831141124887,12.08424595703248,0.12616440764816694,0.8151809421850906
-3.8820284670279714,-2.354971299002898,-5.551925287857264,4.258370763143828,-2.834591445324995,1.6720911397418678
-5.442080710559417,-2.796531811090743,-3.031285460392361,-4.289954903232548,3.4604948750277273,0.8452417741353404
-10.75951318645691,-1.246432012629016,-2.6796065775191216,-2.7896374686453878,4.254828477839553,0.6043339648805703
-11.034949306185792,-0.5535696577581376,5.153501204969265,-1.4137949143732111,-10.234049773180828,5.855571694082643
20.92628144546181,-2.50198168011283,-1.4143135380866738,-2.0501488743620815,13.852646041743625,-9.55584314361957
1.336030747263278,-3.5915230214261356,-1.5051981303968267,-3.721450002028983,-2.0662333422829935,2.260985989748757
-7.895981054719286,2.389568860838388,2.0790977506401815,-3.541947205415651,-4.398453887426815,2.569847638357457
-11.564449749501312,-2.44192324856897,2.7922404887718044,-1.3272613210037068,-4.57774271452508,2.662032853201969
-5.834992175741123,0.15640907088248013,-6.5460795821238165,1.4168195253945057,3.8719767853344873,0.44895556402933656
-0.29128705558196843,3.946011520907615,16.348411510980206,2.954973383451513,-6.2837066603365805,2.869205279650025
2.243626583552958,-1.4946021089246917,-4.870883157589665,0.6894226596986348,-0.6524596690867708,0.6160459795784672
-4.219838709390453,-1.427545298143567,-4.357882909394292,0.7938138971645232,3.1881363126409585,-3.1022445035821247
-0.5734598031767646,-0.7063652404207841,-1.2090167656361714,-0.28879568825702373,6.1528445018622655,-2.165742664234342
11.625996321588605,-2.128628892270581,1.6988824837661847,-2.4569644745587076,1.3312273898921254,-1.0054301986540115
-16.908589854934934,0.8261303043548465,-1.021738274771727,1.4424426606874527,11.248827311939012,-8.488566235204875
8.851312231337147,-0.5262646063455407,4.755717402899737,-1.2075417856777833,-5.262228445411389,6.701090920774837
-9.209904651543171,3.4456086986695063,2.2855971804088777,-2.3439944486147843,-2.7759728367829237,4.720738312875784
-10.785669417111361,1.5530895809992158,0.9657768630001012,-0.6437524265663124,-0.8562227757654997,3.2319515370606835
-2.990479853601636,2.6313471661263845,0.8033063766097346,-0.783430320985981,-0.08326231876009915,-2.343779984826069
-4.719754548093816,0.24320789735217918,-5.657184367758441,-3.4041769326216187,7.250639736474956,-2.5829440919708087
0.37899625489730193,0.802551739348865,0.9592552793377038,7.370780343346149,-0.5070661645894354,-1.9872053984493268
-11.82916770436234,-0.31417027084741267,-3.159497060490253,-0.7391251739683535,1.8233396998394782,2.0655210373606616
-2.153068070373306,-0.3172832675320316,-1.449828823712191,-3.42366492077323,3.15235627091723,-2.647800193182565
-4.051955951043572,0.14332508695042834,2.2564911405579915,-1.9275934947137598,1.169810116204353,-1.1457050459920217
-12.630064324378317,3.7353233824145624,4.776158789175661,-1.297570465478442,-0.12499344464683548,7.3225017338143665
20.749680061229412,-3.29827754469052,-0.5189814082593278,-0.8043387438612872,-2.5846809033321674,-7.790043366765046
-9.198440013105442,1.3003489238056463,2.020364545599707,-0.851227825164317,-1.1873348255040694,2.637596330943171
-9.307697446489316,1.0606562465783584,1.8776799206673283,0.05840763236740942,-0.32053251499104585,3.105683262069709
-9.470690945407249,0.6720728032972665,0.01738667262484128,1.5258116444087473,2.1910264098390133,1.390000376257654
-1.73926597364654,-1.2426920545355742,-1.6858224275000206,2.3785681396538423,1.9169528443448238,-1.027226373137983
6.996893541697359,-1.2299140014291596,5.23345920224088,1.4123284191836551,-3.62751333437531,-0.9439319990375351
1.0747633718392517,0.5627168080326999,-3.1020926265763764,-0.128110448887239,2.058535506648818,-2.677540523221392
-4.193754559523813,1.1136221755134221,-1.3863279040520302,-0.18844117885395928,2.7357700345640943,-1.5195576221516887
-1.1649957443055103,1.0392645619454406,1.459879516009276,-1.6214621839500283,2.1733116102200944,-1.1917081880945943
2.189895330684374,0.8943926073368511,1.7658622623777076,-0.4479690646064092,-0.33325014659712693,-1.3113273916281467
-3.196126814060693,1.3556910963660547,1.7001572581150497,1.5942805431144056,3.479170229910698,-0.5329112833211191
-6.9937261687686245,1.9997309009278528,2.3635840640513077,0.10415578129847336,-0.8160145379207266,2.6059492405087274
-10.899107668862364,1.449372337161104,1.1503512280148858,0.8462490932128235,0.6982535502297804,2.6444592080715097
-7.456253558499909,2.0453550563214944,1.1504820975790326,0.6236087756519083,2.5472430650650857,1.2969171141007982
3.7009189480359144,0.490876474226556,0.49238086560830285,0.09326879744294969,2.3732969977194567,-2.7202032485656247
0.798945711359311,2.6644997141810243,-2.0817474350837113,-0.4234531851743971,2.4731305258766305,-2.062000647938129
-2.0246618157167036,-0.049972160704268465,1.5913227859840666,3.323055626835612,0.051755549788611965,-0.824105159916398
-6.1847621884249495,3.0792681950394405,0.4062067851118205,-1.8826193748970503,2.273100529403042,0.4902382571718381
-0.8128537072979596,0.32600865898968134,1.3502620342344667,-1.7719949157336354,0.10970005731353094,-2.5097261124127734
-4.230524553432013,2.7816682372818633,0.6803707296577572,-0.2953192969748896,0.6681080297169961,0.03513666055965059
-8.58782253029085,0.7115311861485417,2.342860169450001,0.7316000770126176,0.9817870863387028,2.2654544931907488
7.252986836288716,-1.9158569659620461,0.9617848899723025,0.7182036272030725,-2.5130317661927717,-4.855386317588568
-6.3817017091902635,2.3148843892632116,1.0671195781201976,-0.4416969086927418,0.4704702728327415,1.4764798037589326
-2.7441346710630548,0.9964237608806722,0.07021838594899399,1.0048360375688163,2.7079514665923066,1.3103280086128366
-2.112879281048258,0.9737303967022151,0.4100428309474389,1.4337257366587857,3.200519407927815,0.4673004651996506
3.1127141725569447,-0.21435816341152858,0.027571346852214518,0.5700863046384163,0.048236931775193614,-1.9805603669190965
0.4507507975142291,0.20524952263015384,1.6258343135852387,1.0675397126680675,0.7694760365942694,-2.6293318335593217
-2.1836400493377823,2.255429267379929,-0.08402495736497784,0.24562333541008047,0.592636377392318,-2.1140977384626196
-3.4795948792592757,1.853918414948995,1.3526094552756867,0.6664642068593754,1.5197673843882678,1.2078876563474572
-4.525626898687336,1.9596420284064817,1.4563771924049693,-0.237258710754945,0.6526256111298245,-0.18461509076116744
1.9181218182867856,0.21918866216950605,0.2611630928576021,0.4640495704823685,0.09773708620783728,-1.2807787961851784
1.2762006193592461,0.40597098114366204,1.0262968287984378,1.7256698308733198,2.3414028470566297,2.4450594394081935
-7.239947869438832,-0.5980912816481483,1.9012673347660733,0.7981577713866665,-0.25545399048483913,-0.6050854758668797
-3.268024234897173,1.544730050646682,0.6868670704104705,0.7337790527557924,0.15373102940646732,0.5792750310701105
0.585095471513104,0.20901156269742804,0.9085868643988412,1.0491003868987567,2.1298485911555964,0.04119870608982934
4.978111413386087,2.0618199205602625,0.19567615673757244,1.0611174626063544,1.2028804601019898,-1.7442220142422165
-0.5777275725990811,0.8908605934796561,0.8051754360462292,0.8138090760593686,0.7486863224376694,-0.8393199572460757
