Gx,Gy,Gz,Ax,Ay,Az
-10.248418,-4.768692,-6.724134,1.3980000000000001,-552.21,45.042
2.9720486419306074,5.437580406518622,-1.7603504933602832,-0.6524951840943177,-1.3566367514784314,-3.1747455486192373
1.6469173411427749,-0.6957303148897162,-1.585352225426409,0.567339988191939,-0.06383592617582667,1.2436702473808803
7.652213173658392,9.41997431194351,3.304701452076997,-0.3094607281225535,-2.028472997462638,-1.2764641304945576
6.617772053767398,-4.1246272323889706,-4.508306211091583,3.706096272217229,-1.8954017843386222,0.048458387126210534
43.27923135505432,14.296500972787417,-18.49974901023079,22.35825887539933,-2.075287200817014,2.0237386214201325
4.246408329767615,8.360670936571283,1.1000333613819617,-1.4867263662013168,0.4202115097831634,-2.722602307502397
8.670799716150507,26.767658400609516,0.6526491895480045,-1.507234929918941,0.5277390951080022,3.466772800712852
6.4654683768768475,3.601216512591091,-9.570152913446087,-1.9059692624540958,0.9600080909710503,1.6160002150622974
13.606707926413275,4.556243653945954,-3.9704100603463957,-1.9906848254563516,4.468052611038738,-1.0330053170246027
13.59370326064715,39.298487654237725,-2.2458922313359584,-0.06009515040853319,63.628181461371355,-41.4858255839326
-8.528600843387249,-8.066504574083947,3.6989597226480435,3.3066438062834975,-9.127761267740846,7.546450404366727
-4.202748237334738,-5.894458501304651,-3.4746998601597823,-2.5788497066432043,-2.0681552408176254,1.6698467346093238
-2.508077204449613,-0.8634632138672522,-4.565410636958415,-0.6826534469861509,8.54842669376856,-1.0017425794646289
-0.3537865299791281,6.3856405951170006,9.252519503880052,-0.36426256830721215,-1.4942480123224182,-0.3464302338422919
-15.556862897414426,-27.089573462548294,72.12544557145537,-0.800128681858165,1.0892840380631952,-3.266092018122613
1.5391567680901097,1.6087463406192966,-14.19646778613463,-4.602436596875973,-5.138312542498418,2.663534673303234
-3.2475882802123857,7.556049992116127,-5.898052670270953,-0.03140801601979559,3.010476265557749,1.5954541793371992
-0.831901928455143,3.810018452295851,4.448604420781631,-2.2605452171336387,0.6101040482825412,4.008686533373871
-0.33206543682783785,-5.063280035923113,0.6097163167479906,-0.6376799397036036,-6.342956340976446,5.52064062006759
18.077833888727284,-11.65289654324183,8.558622991088688,-3.417335942687859,-27.510916616027327,16.78483447839053
-3.38779164281086,0.3654258659361171,2.033767590097308,-2.48243418412101,12.886136491398043,-3.9605148498312914
-2.184084330958223,-6.464324791730055,-0.9605512532537013,-0.4903712257222149,-2.717460767347655,-0.6337325395540498
-0.5293884810433671,0.3280711259790561,-2.3130463922455697,3.710788208201491,-2.0668105747714978,2.3818274571922866
-1.954337556251156,1.8764860282209477,-8.239527968272427,5.096017763385392,2.5567226836684647,-2.285491338631556
-3.2310190809102783,7.279513032914474,-24.873375524394696,6.640624644048457,-0.2903445452672254,2.348502255660235
0.8354645025092851,-11.152507481333767,3.840940616060528,-5.443978884413676,-1.8404173678013507,-1.5966557131490595
-2.8530241345636203,-3.8437638308096798,0.8915534139762524,-1.655261386824837,-1.0611206656303607,-6.185031038025661
-1.107053589501846,2.7166608676405186,-2.1366863283116695,2.4816758042032823,-2.523330272123623,-4.49032150277776
-1.4238881829705559,-1.5381333173476575,0.7401761630298754,-0.1268358257808322,-1.784545091641971,-2.2815606708857246
-7.567483205405362,0.42200976398170154,-6.986726625557387,2.5799696872934392,-1.1552313107463341,1.0751791158851316
5.085774076498512,1.890115895014031,2.3482343473221716,4.189602454913239,-5.78253246538124,2.178158915548236
1.4056476902668813,-1.5787840215671718,1.4454156462649266,0.8501714426468798,0.053315648985512,0.2058030756893423
-0.6760721353220851,1.042367909332277,0.7012940893921603,-0.1635201444238199,3.506023370952623,-1.4763595972040462
3.4686907135959295,-0.5094689288608115,-1.7654806537571033,-0.7870476918540722,-1.4185282824878327,0.3092794895223796
3.14384078341085,3.312627131259122,5.597713674570902,-0.1487384236973025,-2.519554327037739,1.0896029148849002
-0.9257860311622975,3.441277350151513,0.33139512102959745,3.365216945610063,-0.4664455406224883,0.907399316369496
2.66080514120139,-0.0031369579207480847,4.043425955951311,2.8020384433229975,2.4955551253906068,5.352308905418643
2.7676479607687736,0.5365831131973695,2.221290736316778,2.926559820469282,0.12976001921522243,2.269602761531078
0.9658543944381566,4.172012629885573,-3.479039837363859,2.579545401068174,-1.3016788328175135,0.1998017499948026
2.3808905444606876,2.0151277263236262,3.7239631064706677,0.961849847550077,0.6787108580499852,-6.7964457122272295
-1.9560443717382654,-6.772980443763079,-0.5085090700197658,-3.4463430834346878,4.3285927660784,3.1794449081863263
4.4454943991751295,-5.322995929918317,-2.7887989063387044,-1.7914051049540873,0.3337819759171339,1.7250961573387809
-2.563491014773334,0.3829670571815029,-5.395526982358261,-0.24843783905805372,2.436370828918577,-3.766586075698644
-2.9488200061248775,2.4159200099188265,1.0578301980611235,0.7599186581500122,3.4181467512162866,-3.8214925928837005
-3.8518034856278884,5.933462136716276,2.957184084273859,2.1826702400227735,2.264078136160628,-4.578057737230706
-2.4357203121384634,-5.8348481559215495,2.4404245898118573,0.18081560209569525,-2.863651098810508,3.8648659351451338
-2.011924441330263,-3.747649841132299,-0.32006972393113164,-3.33615887648022,-6.5723135399543,3.7632842503411466
-3.1927890306005073,-2.2736303353536673,0.018885462813334752,-4.168457788336829,-1.4301429148923073,2.123936185472493
-1.8804506364884408,-2.006919029505532,0.8845711234563121,-0.8982980176814626,-0.48656647393983854,0.02528241177600621
-2.7869773120585837,-1.1686928798222542,-1.9161389566307454,-3.069255051199491,2.754579588175963,-3.2759267803921865
-4.135774643933398,2.8857255469082626,-3.3380329056463474,3.4064988116178982,-3.6287241980577525,-1.618066605882275
-0.9680616544915832,0.4063759624429577,1.6309731380125156,5.942856631465431,-0.7278225921185508,-0.4688026394621796
-0.9412257491409859,-1.5345905194092062,2.059374081919967,2.5770064780578883,-1.7910277164376214,1.3100935598082986
0.9485561543195824,-3.809134856100037,-2.6768400483321115,-1.3476780240615485,-2.3781625452167994,4.257694030866889
1.5701221067699587,-8.333178642587693,-6.755270819012216,-7.5968942556238845,0.14178831214935816,1.6526585932569966
6.148811421934621,3.1589057267745804,-1.3205196943086501,0.5251823210281839,1.1962208981909732,-1.4934994154970023
3.4039657154147114,0.27802920093129924,-0.2330053791197021,3.5528182188143207,5.696244025599309,-7.5648270439911105
0.9762390340069862,-1.281886692439933,0.316568316824984,2.3163147975533,2.1869535225302466,-1.3352831237200449
-2.145331768503674,-1.55085514968356,0.23067104674350603,-0.2980493785921863,-1.9600917418184907,3.28682754996647
-1.2120731003171483,-2.177908308463497,0.07957266780610794,-0.5465731396604796,-8.131156421939385,8.263756719505766
5.5384922204757485,3.9067144408819763,2.3471717856160996,-1.2500089963318364,2.9157197572075475,-3.835424796825931
-2.5625915178780767,1.825971940193635,2.4212635355173795,-2.2220540630691907,-1.9009530492336078,2.2369015632222324
1.6347091824923186,1.2742199982466624,-0.5120292593759925,-1.3183499009936626,-1.7810527577617954,2.4394122558827807
1.9427163534900096,-0.47200784047681044,1.3819372307927247,2.634721210035747,1.1934407142615413,-3.431401501004685
-1.1122864639419452,0.28918721295924854,0.2829993964576276,6.365741057988293,1.0409352439364818,-1.9214956343127256
-5.909857780171696,4.719293360658128,2.160343561841354,-1.119723223439533,0.8975328926193944,-2.4747099199816858
-5.292923081246551,-0.07923981775806643,-2.4055588901380878,-1.4323484233792645,-1.3326054692462093,1.6710229172995696
1.1758267475758528,-0.33152683390311966,0.4040272777396572,1.1029376240249236,-0.8035824609618998,0.7814135580428179
3.5330140943820307,0.5586494995090092,2.4933100158103585,1.315096692220413,0.7807227497323072,-1.4413056566709193
5.695736476799067,0.015084440593986503,1.352349431394146,1.0455268309311632,4.854415349212268,-4.215305371794897
-8.567008052218739,-1.1559362529975228,-2.748907683978756,-3.3627117879379362,0.06629859254395498,-1.5679108958829364
2.6023733601819634,-3.317689221671931,-1.907130984228902,-2.5842118256360047,0.7191047837101242,-1.9509447134844884
0.2456337911833062,-0.7484747598236265,0.36297459743821525,1.4950917293709067,0.8166606750909926,-1.9558010080088155
-2.1823451835134167,1.402527357043823,0.20719627786327854,0.4722457461726114,-1.5189488746081778,1.956998700790141
-0.2719365887195764,2.8805265802927,2.7374431528735546,-1.1593869390060578,1.023915199423611,2.3697802878085694
-0.6865790067888762,-5.186680952049666,-1.4938685949259503,-3.330268642942306,-2.2895840248680885,1.977617282955884
3.70372942935507,-0.3267885010855949,0.8253649127532362,-0.19270640723279475,-1.2586286929683321,4.604237925845096
-1.1808675086941283,0.10668307009776434,-1.6768020901474232,-1.8119670442254217,1.6634656793306652,-2.995061913871663
-0.9569792113108626,-2.3859224116135724,-2.249205208587611,-0.5979090230549353,0.916516147895229,-2.4384735396183874
-4.041654899339625,1.3156907487119776,-0.940461576504896,1.1464345462942138,-1.9754332025843053,0.2918706582829349
1.1992340210377321,0.39485833210638877,1.9930942169736685,2.9579570091035303,-2.7842261936848964,5.838853603920004
-1.1085911138454694,2.3708072562353157,-0.286246537927926,4.12570768421089,0.25176378181465514,-2.2753032111488136
-1.448591804478638,-0.7539348532836923,1.2228177924598784,-2.2898747436868576,-2.8178909815759434,1.709356264824506
2.7637332253852867,-1.6815315397648318,-0.17808970229825316,-2.331759258026237,0.19849829296930466,0.17048398650230911
0.9979080861235162,-2.767156928129487,-2.2968323050593025,-1.3886667052946093,-0.40880111746066183,-1.7934913138161175
1.8517191996843614,1.1516751641183212,0.5271853473007053,5.1165021140847475,2.0500627885791847,-0.6365149696458497
1.2163591893281545,0.07154510637880337,0.3661594897379111,-0.7674915134336093,0.21689303367490642,-5.534416211578652
-1.3529841896813664,0.05248872910329272,-1.133644669794014,0.10011447942964025,-0.8547199937516329,2.70303550349713
-2.2132845176007163,1.8036173292392341,-0.25207071902142175,0.31001843496465353,-1.3662183815718842,3.843523348954183
0.3640413048051556,-0.7565273868886381,0.14567455208866453,-1.352101721158058,0.059549986820497613,1.3381665515073915
2.8389249999999997,-2.069276499999999,0.5619330000000013,1.6950000000000003,2.8149999999999986,-3.736
-0.8232692817623095,1.0005084101250836,1.5032259879267023,-4.187062706448824,-0.5003732373135517,2.6463684196100057
1.3170272605263762,-0.48483534037653087,-1.3264421159805244,1.2102111121982733,1.1126497745497055,-1.9324207056549683
-1.36060937310002,0.2107030780261976,-1.4312095692535296,1.827875912727854,0.37080617020544104,-3.064389770955595
-0.10168067268549663,0.986293722967824,0.29662616063034475,1.0673249171230084,-0.759206388627858,1.3621502542528043
-1.2908103519467173,0.21275616270150977,1.3904344203964563,-1.1750651370073637,1.4215264893849007,1.217046204846899
-2.736441604510653,0.15106709058056267,-0.32582388972939147,0.9341336000512315,-3.280390534214133,1.7138960558225664
4.269344492163239,-0.5344564390201526,0.7968915135033463,-0.8341255004118107,-0.4161248253398955,0.29107394397563
1.7128711902745626,-1.6190334530762178,0.4451100878395704,-1.1115269132453043,1.7770214198837802,-2.5693180120584613
0.35505492770241476,-0.0823711730481902,-0.7202517257140078,0.572902717353501,1.4660481919434099,-1.0722901567828966
-3.507950358640744,0.4673593284912879,-1.606302634295718,-0.7457430378598385,0.3931898727469565,1.007763451324583
1.8011173544256325,-0.6668313782275228,-1.536328307702599,0.36811351604190745,0.10403496190183936,-1.2426994566098784
-0.15401979713845992,0.6296719126675592,0.6761914395835047,0.9881084374446703,-1.391386589484118,1.2503094567876347
-1.4248614665184172,0.240944476357571,1.6029016842156243,-0.6486004964254404,-1.8208435929339046,3.1725947493299476
-0.856488887783734,-0.3724841638688271,0.5553785696576373,-0.7208827299316196,0.5269013419121501,-1.0536097009239815
0.34434239931365296,-1.5665095019137616,-1.0716456723733108,-1.367067852056386,-0.2949873797253795,-0.5296010224873036
-0.1864630738727322,0.014531379444002734,0.7760965256330383,0.36994750693060896,0.43291300952301826,-0.2630599253204682
0.5292010099921796,-0.04348594534356587,-0.2637976869003833,0.9782321012600804,0.6611987615436328,-2.518444955189063
0.1199918672825877,-0.5007218099986079,-1.8227107809553995,0.6622273754599637,-0.652082650822444,0.6019924619593833
-1.835150654581983,-0.2752447594439479,0.5989361140325589,-0.38464833505171603,-0.8550254700580229,0.8974070102112073
0.5967885763051921,-0.2006880885921576,0.053306570482778426,-0.4559817386079017,-0.8266444145501,0.5722711992639766
-0.8538647125496985,0.2960218463183999,0.4388369130890578,2.718539722055522,-0.022428396305221865,0.20721305335587448
-0.2782150987681825,-0.4732881783637479,0.5714351069448647,-1.8655267014854342,0.8029792846166043,-0.33705455078502367
2.5081322698041912,-1.687954083057751,0.2532852953414644,-0.7515365701561398,0.25668983932656886,-1.733090522538411
1.111822906398356,-0.8282971643310335,-0.6807157390680609,0.630007746586976,-0.019026462219711826,0.5668298526705419
0.6280832633884483,-0.1228531283398171,0.8328354196699401,0.7226428706464705,-0.11046887435484809,-0.29408677992084264
-1.1086646019718114,-0.3080061290562066,0.24715616151624142,-0.36324273933178874,1.4633048881666575,0.10664946488242788
-3.4967071310125672,1.1553892201330536,0.4235085046539948,0.2904528240696074,-1.2733007906363523,1.6746682015901357
-0.046170581694011115,0.020965423953026363,0.02277934725145614,0.30761974479679954,-0.565451221723471,0.42268246282551625
-0.03177151463703387,-1.0444199225404984,-0.29686808363792283,0.37568761254656025,0.9974969762921069,0.19530254860902274
1.6279491657469833,-0.5048892467609574,0.585035773914133,-0.1851712953877125,-0.4301244155517949,-0.23795105381630877
-1.433431559222785,-0.5471276031997854,0.40692807664240216,-1.8853074535670649,-0.13178179067579388,0.04948367295459577
0.24188908403000586,0.40073565460645266,-0.7796190735859474,0.9556844218620411,0.6896697435066489,-0.8434811657167698
-0.8769609550570463,0.9484573740564195,-0.01168834032847077,1.346176923069509,1.1152479087872382,0.2430938466840291
0.5023575728099641,-0.39072238459792136,0.14480887760995653,-0.11209209839220483,-0.4196828058654627,0.2942297062034491
0.16986871683727256,-0.6820420362412984,0.0018506390553877372,-0.042125205763292206,-0.7921523714935645,0.32948236515087315
1.1880205586195638,-0.854914733925433,-0.9234681894099422,0.3060473004845096,-1.3754653713694571,-0.034281288898058676
0.8513243448117517,-1.3730581176035355,0.8318626592494092,-1.125287922781402,0.024311354485013315,-0.15580255806658244
-0.36459888583358857,-0.18441316994366985,0.14106664208100472,-0.7063141040651135,0.5786010201619748,-0.8872548367066149
1.5144334279011897,0.3440940383749507,-0.7678313102444296,-0.22989780735126608,-0.6888674279728724,-0.736307603142871
-0.574799816687684,0.058262039807416066,-0.5966126508498072,0.10195075172848955,-0.026984845808826846,-0.04787194449593202
0.826189139966309,-0.4041513530606211,-0.3788275457812998,1.1067242772148949,0.0752136948251324,0.1707235917883761
-0.3725885455592898,-0.4373841983820103,0.5084666863378324,0.6483737948395512,-1.101299723258958,0.8735574880940913
-0.8869955746247831,-0.673176754288555,0.6209706866531233,-0.9701961808671148,-0.9879617714921807,0.11274723099728479
-0.7096716359625316,-0.0729632756875711,0.36679544295572797,-0.4938810046668771,0.04526809657201225,-0.5242615783132119
-1.9586085354532097,-0.33120796465867813,-0.5039781596032678,-0.41518263403210814,1.1622994541322478,0.20104349995937587
