Gx,Gy,Gz,Ax,Ay,Az
-5.071934999999999,3.381207999999998,-2.8893240000000002,54.32799999999999,-489.428,-3.3239999999999976
-2.2330908151735613,7.2966714249387215,-1.8335298119072594,1.93109750218095,2.6320939958958345,-0.4685595304427939
-8.247337551622818,15.5402327631499,-0.47150494628952755,0.8703116955931247,2.165967073728602,3.3847784170534716
2.1455099767805788,7.606041349916632,0.15541174057774382,2.255692005355139,1.4648680685561946,0.09454874891387571
-2.410693234864369,2.8144872935932623,-5.212026873870676,3.2957831214609525,2.5756097053637492,0.757505692011295
15.810900534959842,18.813291318325646,-16.91163786920626,15.914641290596558,1.0117431500845893,0.0006581522702509557
0.1710704732225068,-4.226859813807463,0.1653936450066254,-4.874596808103679,3.1695946618927056,2.5106050349494615
10.706233059284445,9.063297769928724,2.749967617300984,-0.04218695325916938,1.4648932841899125,1.3337957185218192
6.477545930640891,1.4429354959755756,-1.9816425567636642,-2.1852174104587454,5.203061613017027,2.5155313883984167
14.895043085838086,-5.671194834955077,-1.9589989576535791,-2.685401026338508,5.899254711507929,4.899022074353797
35.958434206741636,13.846002966613504,-2.884927474187459,-4.537401357595565,26.46240333400722,20.362039838389148
-31.00006640473487,-4.125885337791971,1.380954997630051,3.911916483073509,-19.688955608313147,-20.52125451004065
-12.568073147450542,-7.7637398805619195,-1.2792612479316525,2.0079976821231313,-7.435240064407539,-4.389697255836983
-4.697715977134247,-4.044732414563453,-2.03772543053375,0.9639803208334885,-1.1372754514338348,-3.3706532201441504
-3.209478322799732,-11.958793067661983,-1.9152037219761957,-0.4313523311860926,-1.1701737704271764,-0.9835274850623024
-0.24847231003434184,-23.376108643118133,-9.256897611885357,-4.274048345107,0.5483744996323285,-1.9975230921847247
-14.380211444535888,55.56178646204323,25.87926539208584,11.972904398872387,-6.2702560980875575,-0.8638882839392856
-2.9489865864128433,5.953288538506784,5.423055138011211,-0.45087977044451577,-3.8595610507978115,-1.6075094488413817
-4.257476550211116,1.903320866433262,1.4290606659979375,-2.5319109775482382,4.345137222551483,-1.0679019822695857
-5.02080721445019,-0.9532146885868977,0.48155648113838045,-2.1279563060715816,-6.4040223100172255,-2.8484183568319246
1.790554631736882,-2.5723240712878006,-0.34027102818618804,-4.108804914189098,-0.8774069617405967,-5.550994860914825
-3.880358349259989,-1.843874084590939,6.782631700522292,-4.224995723324471,8.863119434443202,28.28571104603811
4.916522658314665,-6.432035862057606,-0.45479157214883187,-3.803635605564645,-6.207428180176694,-4.156984056701151
-0.3611353145974903,-0.351719249141063,0.22900038570964454,-0.54416565071719,1.3463360754605742,-1.6771331129046883
0.6363503127887291,-0.3716070559786324,-0.23782380130784964,-6.960440516932544,-3.221516138503529,-1.5050466780890455
0.0450687021250063,-6.875704706616683,1.446662622333326,-3.269711104335616,-0.09388109163855018,-2.9887181756639283
0.08358446291450794,10.355056522692976,1.326924040538988,-0.04349831457832565,-0.8780979845746658,-0.25322582154724194
-1.8257737797084497,-1.692036617343537,-1.9939347340064943,-2.095876532976177,-0.3122981025228692,-1.4455879964728773
0.39353596088446774,3.4610111421360585,1.5930281857324977,6.637117929317586,-1.5422639767411304,-1.647634689897139
-2.0890372548751124,-1.1217039900654484,-0.5565106417339949,1.090136350768424,0.22495547686598538,-4.578638023894376
1.4144868703825049,-1.6183984301555672,-1.9425659658084706,1.846395354702197,-4.549996621812694,-1.2810602135913423
-8.23779464068458,-1.2108646937482008,-1.6645307017137465,3.0998761048116936,-6.49406611570477,-10.002321307571206
3.931780487241287,-8.124298556826702,3.477922189813443,-1.989166158733204,1.5695715589430863,8.419614492643756
1.965372841567274,-4.930439672070413,2.157017331113484,-2.766962880941747,0.21538313922050828,5.18835124599096
-5.356525476300145,-5.868474335088046,-1.4029286448227327,-3.225261754341272,3.272088290826726,1.5995316093983916
0.126777834662372,-0.6770061510971905,2.6895003663731236,-0.29073656863550823,-1.5125107114501546,2.0886876303813695
-7.694995737583278,-0.032686906896127965,-3.7808047912842104,-5.476464240141969,5.268259843373224,-0.31070980224471245
6.513224867937777,-9.423973110032211,6.875011589413364,5.30185472799195,-7.696100228384066,0.9405634212514015
0.48279949197097616,3.3683902284302656,2.4439400987812814,2.861129095447026,0.7689397951601206,0.9539749241794693
2.6988165335451777,1.3610556225480623,0.35856616945192044,0.3140278265217884,0.873978213820684,1.6811376327117007
-6.356414061052817,-2.3967225278048168,1.7407740713002373,0.20759086392031972,2.827876580049317,0.328793709299979
0.6742730675078599,-0.11775062371230362,2.5393418322796872,-1.134885729989469,-2.215187366256787,0.45871295527967537
-14.172262557663462,1.5991129851226311,-4.05285677198053,1.5557987498356902,18.657313197987087,-3.8994949162808026
-0.6303443285930339,-2.8713934858967383,-2.8079448249159324,-1.8738327962536498,4.549478354784997,-2.722341484919433
2.743720893328526,-0.3500412975734468,1.940517986594666,-0.7142727154132065,-1.0401182537566678,0.3459004258079528
-1.3693033345338639,-1.404205222253226,-2.120444017573106,-2.4722978213002813,0.9811956980448204,1.4662998602049457
-1.7111120613332493,-3.7410015825325504,-0.24183457147021026,-1.9413189520785559,1.6367779104888172,0.371549918391603
3.1824159262772658,6.4461833029483735,-7.465899264132984,-3.2313937401401436,4.559499361398426,-0.12524517736720708
0.5166764434219985,-4.538683967848097,-1.107950596752598,-1.1671989038799067,-3.0354498021058536,0.0184846402555372
-3.3520932681644044,-0.7092186065736227,1.2254970396185372,1.1539637492431503,-0.13778223182446098,0.5085169020224513
3.0612892284315576,-1.2737867482524483,0.38164768328584336,0.4976463920981291,1.0857569748238656,-0.19550261789911927
-1.9327013563103084,-0.7995129864588638,0.21025332461991503,-0.4142133393698446,-2.954147113019516,2.861216835238775
-0.4140671875467046,-2.412924403831528,-5.5334008598376005,1.7679918446342566,8.386217308928776,-4.7702661835124385
-2.4289934060137734,-1.1407730583237248,10.099345418703011,-1.234034223250539,-5.030055079354778,5.459100094321721
-2.036459181709209,0.3922942280177489,0.9243023207466423,0.9468528110156175,-1.590258799171893,-1.212569005183897
-1.8867717108251942,-1.2915859063629478,2.328474128996909,-2.016273823486493,-0.16484223797621422,-0.8229982718337961
-1.3711090649342577,-0.9130255685461627,2.2293999364280284,1.2258486074224817,-4.8228517431977584,0.6499262739839373
-4.441816288471773,-5.5036143239779,-0.6078765998150306,-1.4674498384247165,1.9275867296402749,-1.92390308726941
0.30021214894933645,5.09495000984949,1.0788173819345077,2.696942228309848,-2.2675933822312935,2.2359332952788744
3.323139050662178,-1.0950069978023689,-1.7187924837642938,-0.7445346762565299,0.06003031422646058,1.3784622264215316
1.1064590213440155,-0.16893418322525378,-1.276628776126012,0.5083591474786335,-1.342517677473901,0.8099140760955305
-2.965395456624722,-0.579647241526731,1.6277352889242724,1.0917120961962468,1.4719408834565706,-0.6513680190550067
-1.7214783363357877,-2.5071593945552513,0.821832052009468,-0.33141332164167175,-3.613632565945777,1.9222545159358926
6.286818015414939,1.5630589007337772,-1.9494665660105186,-2.284450913941285,13.057682180963074,-4.281966670045827
0.1313622118092414,-0.8872587863281091,-0.8949454422644281,-0.7577303408532117,2.8790366443850033,1.373954073335391
3.6243099648609016,0.0029542168280666248,-0.12944731574789142,1.4265188472439014,0.47094205967198505,1.047773020296935
-1.7618536478882185,-1.914314414522781,-0.6494182015997334,-1.6616189010089486,0.8202859043574064,-0.0371309592968736
-0.07544108221373658,-1.3300363082799942,0.9597825315707815,1.3678572872073045,-1.5117111124015872,1.6848579901121445
-2.1173764425503654,-4.404160092792192,-3.3389723111189875,-4.615123504005612,1.3697010765577462,-0.29987412111339484
-1.7962243627632652,-2.6898450468197317,0.9554953450977259,0.05278771313224072,-1.2523024700763017,0.537695971363097
-0.4438875342749925,-1.1478323581167267,0.9229828021859594,-0.51476569228577,-0.4070660500605342,0.8493672542894428
1.5588252200382655,0.5581587679754407,-1.5681700719290588,0.16226726718171736,1.4460486601265352,0.3902924664679389
-2.490232785535228,0.15895351300542873,1.3658807734831229,1.5576860933429877,-1.816316782552289,1.3746485631521368
-5.344328795688606,-1.978858163954376,-0.730806124920027,-0.766070813234538,3.7909778218710946,1.2016635613246032
1.057111722150538,0.30983239386691913,2.7664795683742684,0.9418370845663794,-0.046581803011142175,-0.7719990435546281
-4.03504436191567,1.1475327915343003,0.5636671891432247,0.16794904875975097,1.4873300949676231,0.06619214569143728
2.877729550634347,-0.35823004835422867,0.3823223999651863,1.3109626880086003,-1.4768072571719721,-0.8868320012628875
-0.1266003609528586,-1.322845490492949,1.546750536526576,-1.1985793896441554,-1.2722515192284984,0.4745789090561169
0.03779703271359343,-0.4325251576228544,0.5688580937769725,-0.9928263211349508,-1.093418171929334,-0.2736261785949747
-1.025788870834446,1.9858678990086303,-3.4014270144568624,0.35005517646975176,0.12270710439761054,1.1778405257461448
2.2249121332773463,0.07678105252216072,-1.6577847514914583,-1.1447396911745318,0.29736926236366845,-0.46716245781991705
1.5596335483014427,0.42510921591341566,-1.1006749537156082,-0.11808711894889565,-1.9261190854845807,1.178463453592351
-0.11338586219876867,-0.2297931420035016,-0.1486582760294971,0.10746374513210248,0.9813546699639845,-1.8279312275319948
0.41159816324698095,0.04102399748091584,-0.9562570878018323,-0.14052084878136473,-1.1083461783750606,0.9216039221126576
1.708309780554085,-2.4585556590963895,0.017438556613517564,-1.5570381584946298,0.6455504250234848,0.04160117184069764
1.3513040647886663,-0.21823180911595985,-0.7341061682911311,1.0300459805642297,-0.8557268218493801,-0.6102657958206952
-0.22905965825112745,-0.42234302925164086,0.9192822030208815,0.4367466011235909,-1.558844125562642,1.4828654360860023
-3.8793197312042675,-0.3979200580008539,-0.7186118155614145,0.015093596407663945,0.6361474065296087,-0.6977684847238947
-1.9816287916784012,-1.9768120223903394,2.129869369706437,0.4617924723962229,0.08727992136813745,-0.20046103543070665
-0.08224015454134459,3.0926670119214847,-1.6561164260840124,1.2812244810716418,-0.297162974880507,-0.6272242411844638
-2.96945122323146,-3.0656722628083397,0.5613756996639141,0.2824796126105974,-0.517902477720683,0.48439735976984866
-0.3826024349107636,-0.22988658110233062,0.6780671653678785,0.596990405874178,0.8964987471910894,-1.1049786402575932
3.2692169595302767,-2.199951822655316,-0.41157409707317605,-0.18746536600078909,-1.8277738275038367,0.6780982386472537
-1.8656138158100681,-1.3310033736847557,0.2891211282849201,0.2034447573801816,0.582588140993731,-0.5833436811295544
-0.615459048587742,0.2813855139917216,-0.31351113229027616,0.8934834389349562,-0.39075418852480565,-0.46116832914524014
1.9281407765607415,-2.1590520055317324,0.37826364988902283,-0.6946435233627448,0.3829170103161128,-0.15056229354247885
-0.7637707676368495,0.961452521523872,0.1329613884548913,-0.05506664913034329,2.5804813258047323,0.03766799536170169
2.3157912864370704,-0.21354069799731656,-0.061324675583902644,0.1591674834386094,0.5694459364955822,0.8278030965635792
0.8297424946665883,-0.6202603720652535,1.1362528989754552,-0.6275786419659957,0.05280031963461023,0.11254261332583887
-0.9715480578808307,-0.9171857190499426,0.5180977311628051,0.05965818591293179,-0.8374108928023027,0.5498098300671717
-0.39883091673983284,0.7603493219127422,-0.6677423830577504,-0.43302277124506183,1.1270567545985781,0.7490135879433587
-0.8209221828442193,1.4476694543784863,-1.1240048810516758,-0.4710182465970303,0.12977296950203268,-0.0920222494993033
-0.09799063101193173,0.21917586147957147,-0.22991948090942504,-0.10545612344718924,-1.0300505196708438,0.48628059067373564
-0.0013138213432917212,-0.7298282977610138,-0.6890661659824668,-0.7006218539513485,0.5609369064874258,-0.47564978564231597
0.46242223202986465,-1.4226765429564932,0.18825416339708906,-0.05382024164932715,-1.3102972715189842,0.37413421232540645
-0.45681938975148945,0.5437088421002859,0.005501038935113042,-0.05517690046953495,-2.035210988577874,1.3158637223969385
-0.13788503581616793,-0.5902729928340055,0.1523073682062858,0.28502144097389304,-0.6907280343225269,0.5170463529696225
-1.0206936672156792,0.6252150315986762,0.7581940995193789,0.5627066883789688,-1.733036051911399,0.7336530359000564
-1.616066276909342,-0.9066739807345263,0.05761277776097129,0.09969987736415374,1.0187596088334332,0.03579534071538772
-0.3421691907453833,-1.5026391208308296,0.9630672579417635,0.23445170962189849,0.10661593402513461,-0.5076962525334427
1.193129860128475,1.5755584491352943,-1.5724128735524248,1.3530591941084533,0.16697907845016524,-0.3560178121633148
-0.4146997119053103,-1.2507198747675075,-0.012696058676787442,0.3725115198201278,-0.45267614149339214,0.693496415553712
-0.043128987999330515,-0.7668668331482196,0.23614117266797507,0.23847949983110966,0.4448190652784242,-0.48016669357789266
0.5510792611608409,-0.27923952187179835,-0.3219480908021854,0.03283868355688079,-0.8637787672467268,0.33601544901974134
-0.5498993054226067,-0.7790966491483158,-0.11412026892616392,0.6581115381172782,0.973118200977039,-0.5112958462568027
-0.905107114708357,0.24254431009669197,0.36162528659581983,0.12128744017384188,-0.9508692314827709,0.8877612013807684
1.5511119690215778,-1.5468120850513443,-0.1708036050805034,-0.12614833536611225,-0.0005037953633837411,-0.38515927909290437
-0.4444355745998029,-0.2939028105595252,-0.09975253343700075,-0.0781321084835571,0.9081791553312204,-0.19012227515626018
0.7238210587004102,0.0582440666448672,0.4273129845016096,0.048186462023269386,0.4940011997666989,0.4116756919378593
0.11817149761932605,-0.7392380421881324,-0.08323606895476554,-0.9821784940611068,-0.136864179295053,-0.13248762673598202
