Gx,Gy,Gz,Ax,Ay,Az
-1.211024,-6.681540000000002,3.7803669999999974,9.832,-444.316,127.52000000000001
-2.7117890122762067,-0.991318257612072,2.365454009680065,-0.26385615869942325,0.5047474552958043,-0.7469667850147995
0.11302265675578531,-6.217452583481317,0.8032950418484482,-0.5705395164699001,0.000796388814159988,-0.8012011279872857
0.6111325159706706,-31.27708629494253,8.279540006802524,-1.6084873859119557,0.9226136026742235,0.160268125439841
-1.219415322720606,-64.28544412751242,11.737908055939094,-8.82983602949631,1.0181729419974246,0.6469124482654732
-3.537729836381757,16.609530711444428,22.7224256053206,9.164769545271668,1.3187467448020573,2.0591145985758628
-6.34674224775085,-4.637828934606487,4.5340214369807965,1.6100628884572947,0.08956996471886203,0.5047580444348263
6.4544468366967696,13.090658383296494,-2.687405717610727,-3.844330386258154,-0.7223100463262013,4.540358281837468
1.520468410088388,18.982491667087057,-3.283275597159988,-4.100229763430471,5.1192821794411305,-6.10090284850927
33.351808623878654,49.835544922941835,3.193476603633871,-0.42884447351043864,59.33891061723055,-50.25654771500363
-5.726899475967338,-16.59834588067946,8.312059202963928,-1.7938576953154302,-12.908298931036414,7.848880393394635
5.952197019404019,27.06133978365446,4.456175488457444,2.0479257098994252,3.061075590682567,-0.3088344024778621
2.8841357297172276,13.444375647746703,27.143268118983368,-0.677235929199107,-1.8527694990707801,-1.9714155109672733
3.147726722182048,6.299899198299833,36.905531894033864,-4.524070226804259,2.7251632935516747,-2.347623804297304
-10.201294765575302,-64.86436703626232,-69.20200958359888,7.337564372705291,-2.5505008731417527,-0.8406801561207766
-2.787825362328463,15.433254645367262,-3.541821479515172,3.136487753417194,4.191839154834987,-2.2487673962370676
2.6431573676252094,-20.550289398215494,-2.937341061022437,-4.512185209245947,-0.8195727680193323,-1.0953407802330812
4.950248430639591,-8.228591909150603,-3.446630284432019,0.8017100453863095,2.3186342821639814,11.51197219378104
3.7938642309765402,-3.8947784598160347,-2.1041960841786462,3.2641534404678723,9.573235215324146,27.745890490074807
-7.618807731713792,6.692862330595222,1.31614944424226,0.6591952228229621,-14.771252160705084,-10.463454699699277
2.739068743380057,0.07990251325134157,-6.669989935158599,1.7635471121032211,-4.520486733481707,1.2698132473343464
-1.1176620885146928,-3.8748054231065128,-1.234226680467692,-0.9146319572462047,-5.833387113178317,-1.2954953326584073
-3.758945725741514,6.098036488878331,1.4430036440741525,-1.7135950952025485,-4.6788533963741425,-2.029642211604491
-6.5519734798708855,10.69530870176959,-2.799206288698783,4.773955915311404,2.9102074612794935,-0.7732149572422014
-2.794954777997612,2.5014175232924174,-5.163316879040321,1.1029623527825647,-3.014918832055797,-0.49276741835344384
2.2931514336081236,1.3066093888014874,-6.278733003749172,-2.2642425494737157,-0.9474960108002639,-1.019081659184042
16.71301375494364,-8.770683517197753,-7.48034308330361,-9.162158080239212,-14.859187803717418,-5.738737341202476
34.207605501604334,4.097935330544539,-9.418362718253785,0.276510364963969,-28.83228117645916,-9.25555429789249
-14.01669557692304,-11.667883736150674,7.465864148025577,-7.126294259191587,23.009305797839506,7.556155603617317
6.4587671073153246,3.3318838582906456,0.46522555415493777,-3.672849014532386,-5.7657331235468225,-1.8300909220941968
7.215175673961526,6.685089905696973,2.675150039366865,-0.917318499048583,0.562492215944081,0.2827555589472428
-1.6009773795513857,2.1537770605819624,-7.459467442032622,7.372029802401807,0.4710989965839598,0.5942305348942615
-2.6105153248819617,1.9931110505221357,-3.607375350710796,-10.485650944165542,2.92593021960134,1.3908639746302982
-0.6688995400050153,-5.9203762551879295,1.1106587052705217,4.845663086458172,-0.7985275868178258,1.6417330553139657
-3.7012973087525576,1.6272016628968857,0.5268943659391478,2.496160751074481,2.737996005980372,0.34761243765625627
-8.827659882502275,-5.159501225850466,5.308700204373482,0.32997076802370573,8.391612307251131,-0.6569739302386406
-10.755100816706765,1.1193272665207683,3.1301564809219147,-0.5423920039671383,5.45029162856746,1.1785224953622393
9.289615795743286,-1.6830770765282912,-5.114502825047635,7.385722490363376,-5.286307008495932,-6.861292009915131
-6.903727099467217,-5.276396988005176,1.0107572783648304,0.4496325662977265,3.019748797019479,5.241893819198508
1.5546100863107633,-6.652551200474311,-4.483671413843628,-2.7511087310697615,-1.351116986003166,-2.7789342912092048
0.8853201389481652,9.79409877173647,-4.350977563299058,-0.16009475950431495,0.742224457876625,-1.8984660163444007
-1.5561206724257042,16.528085188134135,2.176229729340695,16.9720006011587,4.188579923011509,-3.335196022299757
0.9924046969747413,-4.497273558197328,2.3082849375567083,-12.44662547109457,2.3659720608222883,-2.452697717075141
5.8595455527788145,-0.983026609386624,2.8593906263031537,1.3699595303009704,-4.044097730694143,2.743802633116952
11.070749707090693,-3.143624661251988,1.670768391653687,-5.19076398406127,-7.966584117210678,8.617758961281835
3.2511700522793805,-0.6744473885074309,-1.9586709775072089,0.18322727941717687,1.6773084523542139,0.5455869789786844
-14.046490051284087,4.517118516736167,-3.5522616178393953,-3.7303528781239317,1.7505467372542332,-0.7144212948122686
8.366399772567899,5.0831667747090155,-4.323259643460602,0.49036653683551146,-0.15274842504344655,-4.808801507766623
0.8034447971311243,1.5799097213757674,-2.300747849711444,1.104681202125297,-2.3773900959312093,2.9543253780435923
-1.641752659820277,-1.679932263314926,2.8653309511169023,-3.7677340478022705,0.06304709604123365,2.195694282250516
-3.63445817182238,-6.518674021750162,3.0345530314660802,-10.102886127416664,-2.0515823358600898,3.575154020387309
-5.731008945539667,-1.9809638923655717,4.449460122639214,8.714171080133081,1.3887500844725627,-0.11174979271955066
-1.7911203358281096,3.057592922881863,-3.203642547741836,-4.136992883735928,2.7482324117511268,-4.201459363617477
-2.841617435997335,6.918237183153271,-7.626045638692253,7.193375952912463,2.850127983918188,-9.61906103311371
1.0604354808101317,4.444982759748317,-3.2549699493020015,1.2365242693197231,-2.6930379118030334,-0.8834778667588554
2.43432345692419,-2.398506559168762,3.187156515200997,3.4951916916031838,-1.533964119248343,5.837881068990773
-7.8789259642746305,1.8192548424542498,-3.7690466644188874,2.221207532672643,-0.16482377699447803,-0.9254116457740564
4.248933844548792,-0.42622641459382904,-1.321489819637707,1.844170208422619,0.2074023031343667,-0.6803105109726145
2.292861360111461,-2.8508473231278657,3.3572716330024908,-1.470250684777449,-0.7438890672627158,-0.41813721458820985
2.0112536518281168,-1.5590209702650224,2.040168338436691,0.8861336763693083,1.0784841804993823,-0.44175576093440305
-3.0637434883060064,3.5553913235225227,-3.882241614462127,-4.260908213766833,-0.9361183993551191,1.356534853941645
-1.4560227469310307,-1.0290250084681665,-0.015853689034033697,2.142863542277163,1.8879887273215292,2.039880267060961
-3.9563742555408683,4.262117767370457,-0.4360824222817683,-4.020955094246749,0.8324187067933566,2.76080825188576
1.376509710968553,-1.2821297872632236,-0.08120771945617844,0.28886065954612417,-0.23183548074643268,-0.6306093535405748
3.2832149750859463,3.5771488050560896,-3.125048843746625,-2.0243793532075225,-1.8010872281277632,-3.0119262335096018
0.19284087677874256,0.604712123679729,2.0217955852312537,-2.851753727110317,0.07593388111726002,2.513408759820332
-1.9589886856495031,3.5671206420861785,-3.1991926662801378,0.7465816904479747,0.7055928455538233,-1.8856540567701345
-2.18340961283013,-1.2339206863029188,1.8721766679366891,0.06834416379535413,0.7344243194230884,1.0230748256928721
-1.5657999086126553,1.7794672690080449,-0.05060337989702274,1.4239433260066847,0.20541514936817018,-0.500246452049332
0.5327727388799306,3.3461764693524954,-3.039642967032674,2.5560580005564657,0.6457692504599836,-0.39664459526323576
2.2920804820515723,2.408987926346605,-0.38309184119929074,0.6775084354563485,-2.3864638983174773,-0.27086022174802193
-0.20349465678771317,-0.8411702668552461,-1.255332350816259,2.8457708733519116,-0.7682884652196238,1.3219947629399749
0.27499509314430226,-1.2122786425108805,1.9037626344460856,-1.410991284714207,-1.6984614964030356,1.0287999081233863
-0.187276281197076,2.4370117164020786,-1.0232272542672698,1.7541925621450054,0.25926329852969243,1.1887147817793815
0.2286392410764848,2.382429354577718,-2.5797036091456613,0.8603288560108586,0.7802287877494684,-0.46601962826930876
-1.163287845583131,-2.573817881578189,1.4416357453866668,-0.5735533355943672,1.1473528027525188,0.7102920134077955
1.9693257198033822,-0.3452275122467292,-0.8315107469100252,0.6586202805396032,-1.7647307747748355,-1.9478363900634565
2.5362545557795197,4.185343639414465,-2.312599471443343,-1.0400337153280415,-1.6858963100986635,1.1256800884801481
-5.004858574269163,1.8611781681325406,1.1073854941998396,-0.05618248146007837,0.9593489233858037,0.4896433178674141
0.8469196066739099,-0.5170694289161192,-1.7881316374521137,0.23358958061384943,1.76871851267114,-0.9634577605288567
0.30984819838734995,-3.0893245475570685,3.475230504891854,-1.3657905854977672,0.0948044803804168,-1.80266261679508
-0.022936465740630907,0.11176337514862267,0.5206734500441768,-0.8145319020627823,0.9037177783653264,-1.1218525326682698
-1.2276608884168152,3.247495530567625,-1.4411881767106127,0.5639120230409717,0.22650266780486938,-0.04264448156474078
-1.7323827882220315,-0.41202953023023814,1.0806049490640204,-0.8787984276663346,0.2723860473954493,0.14887044999588384
-0.6850214631729816,0.9745796955203582,-0.880341030686079,-0.15432293526442864,1.2245260801073046,-1.0881315013099273
1.7843903352254546,1.244035324815607,-1.0647958536483366,0.6901331641806435,0.5434776927086291,-0.13969336252057551
1.3540968129352793,0.7806675407338396,-0.48420528351739733,1.4031303300235878,-0.42992069879132494,-0.45957938060753567
0.6477717380577174,0.4015419949995494,-0.9076397422201035,0.943546141220079,-0.5784386979106426,0.07875545600335343
-2.6318015106792867,-0.4093933609347775,1.5728679039325049,-0.5337504279806715,-0.6674278938662451,1.0198447692171804
-0.03667755663246597,0.6059007709457358,-2.1249060220695632,1.0259215488737976,-1.1610320959988925,1.8335286540406062
-0.6154604158291155,0.7343256082159307,-1.3300039521322615,0.9786550698782998,-0.07349905456851882,1.5636357282686777
2.3882915001973104,-0.48614075173171634,0.3593938700401451,-0.5264040327449929,-0.36846373913098723,-0.5732796558023033
-0.3821845949371888,-0.23082833566389294,-0.6237029591329035,-0.11689201348707179,-0.1761053078891218,-0.20956647663890277
0.002256925981433261,0.48226128876276064,-0.5825027065912609,0.22001897386584668,-1.3956347009235142,0.2293442704085077
-1.7090514224587752,3.0882070623632765,-0.5197931690115426,-0.09351732643939584,0.515566794049354,0.6907555175187552
1.4278796220743855,-1.577126482978483,0.7932153933843571,-0.5529989661078142,-0.19906239653983912,-0.22246932954896875
1.5589409250241633,-0.6321761804154605,0.2346269556834824,-0.7155176357888879,-0.4755637606149405,-0.42587526343977977
2.0569529174141934,0.04647706393014034,-0.6752157110061106,-0.06765197117264504,-0.11007524111858255,-1.1162304561397012
2.5716482257041036,1.567491410095046,-0.5170543564524612,0.26676841044605154,0.5309049653892652,-1.8077153705550209
-1.6513093352238293,0.0022876811740573655,-0.25650965271043774,-0.3975879923920074,0.7816494298481219,-0.29153506949385016
0.7027331832053834,0.696922958892604,-0.9882812424106505,0.7500760717439302,-0.0779182012582153,-0.7070425265033096
1.58829049463114,1.6081284476847406,-0.9279725009185414,0.407140545472489,0.30483390482524353,-0.28126545581155055
0.3987836273875201,0.9039530470336641,0.2323296693834555,0.024811267756630735,-0.16865665996880225,0.5211267808233842
-0.10671271209392211,0.3001137988266966,-0.34701769887686795,0.6127972648102868,-0.20663183463338042,-0.5780709558006228
0.9912397187989521,0.2525366513487031,-1.3315253164419143,0.21211139007893437,0.10727901885111203,0.11655027712247862
-0.29464243275853746,1.0224883087333096,0.1407452206433043,-0.3348518807708204,0.5449825125739104,-0.6515918798022842
0.18438673974026898,0.3016265328144371,-0.5589836749098356,-0.5857881722026286,0.32891155744732714,0.01592066172386386
-2.493687774600136,0.25071704465560474,0.09720979286582532,-0.1576463305534996,-0.1955595447392006,1.3090242761870103
1.007479780792742,1.2710487484395445,-1.000372227616702,0.07822154147311344,-0.6720505504329041,-0.37877748613958523
1.3550118542843699,1.3552193825885988,0.36832709175617256,-0.5714641275355715,-0.13840665965450236,-0.09409986329487044
0.5907212252884553,1.1982679129151323,-1.1179732977622843,0.2765782649584181,-1.169032362081439,-0.5067739190971507
0.872293330369804,0.3370389523205579,-0.6482971990154626,0.2792782413496093,0.34989111595071687,-0.4327396611669488
-1.2833242961126559,0.02130752229562549,-0.37098903752265144,-0.47679557116494536,-0.6857989354142772,0.7137443736189243
0.485403819208128,0.6860710715970191,0.03149048689374245,-0.1883790352126629,-0.28110157686070747,0.20740600200769763
-0.3905037120449855,0.6009381096190746,-0.4279403101820206,0.1397705322943596,-0.1806882114196891,0.5899095539321485
