Gx,Gy,Gz,Ax,Ay,Az
-16.095347999999998,20.995865,5.2194970000000005,40.199999999999996,-473.54999999999995,96.34999999999998
-15.089200616455166,19.61476112618509,-4.086074374299138,0.5859500665199362,-1.1699344882471931,-9.201974502458379
1.4355886488538068,-20.800433933585353,16.653161393678978,2.2906647620652683,1.0312168445386198,5.884908950357148
2.6874288338825707,8.770805451211295,17.537040632462958,2.7622191716439066,-0.3316893508075711,5.50768521217489
-13.55397106737633,56.80520371382083,24.277555716194456,6.6232454384606285,1.0160699645770221,8.593049020207099
35.18381675585603,18.314938066534395,-13.056493592833611,-10.799347176286714,0.7601243102343889,9.948436648452383
-18.54084058694003,40.225636635009124,2.083644547096873,2.253204497704601,-2.201650124511023,3.765389223648693
15.801290535607528,34.698956206875884,12.04925054234379,3.6211699430171835,-3.540220590519344,13.021836700966498
-9.914513375437544,33.51551149256366,-2.0148686270056775,-2.9330722449581748,5.315456716162507,15.139440005144639
-46.5750311391811,1.6295632067409898,8.19749667173126,3.2889855567915354,30.403614904128123,20.477140215048433
83.53189094527384,40.994873356004526,-14.161642108321974,-5.93479354958711,-58.66376668535351,-32.91924045181521
7.359024912379677,-40.41223353335652,-16.377903289146406,1.6170938618508672,-8.99138980182447,-16.534073373689754
0.7196145277966961,-0.40107046901563237,-23.079354542530297,-4.3252389219984595,11.778981977825069,-11.8706990514729
3.122817812709048,-37.55645173210745,-21.720734754984274,-3.1016374190369813,0.4512183499911693,-5.89742322978847
14.389866565878235,-34.826633631353246,-23.939557613001995,11.286091307835186,10.682853674403198,-2.372851734546363
7.209493257477654,19.643617933541528,-6.532054097759308,-24.773336104525942,-8.196563084415258,-2.4473031495007853
13.534168653600217,33.65345926178852,10.66852680949901,5.358439050607847,10.084005190179719,-0.4587100650663676
5.206227620486713,-8.559807988910547,6.348050668928437,0.9167625084513082,2.6574694424950396,-0.796102559868868
17.50125694277734,16.72653105133227,10.343791947261524,0.33735113981380493,-11.872671949229765,6.447641403984582
19.062726398042113,-34.72044035401842,-12.329697418959121,1.544573844503617,23.20326159774454,43.54990341793955
8.791390313741196,42.55950262790633,4.662841910421861,-7.324760481494177,-11.82507618364236,-20.648324885710657
-2.9463659862586518,-8.99410212893509,-15.79566645306327,-1.6076504241331853,-9.600910640049275,-11.241669098681871
-7.718566704604743,-2.5713495664044355,0.07163601934026176,2.250189365954997,-11.23346237915282,-10.773178223498887
-2.620902984709161,17.360950204595646,11.899594931942826,-13.486542752920961,-6.804119044363857,-4.197560625730483
-1.3725341243478655,10.190629534928057,15.483987892375211,-13.63003420440436,-3.04724517101415,-0.11676994841350363
0.6846443343327369,-10.470676201364931,-2.4493341366292354,-0.9100644542033863,-3.6724982711782594,0.8991373290299042
4.324142881009391,-7.53436009556807,-2.365756023319909,5.377753794512111,2.421052915299229,0.11823462981312394
-1.4830957667233884,-0.08310611671280727,-0.4534659290982572,0.39272396797207,6.859867866546147,-2.751907059853871
1.5360000782011696,-1.904369702078844,-2.8394687611403286,-2.346278257631808,-20.30356231334762,-16.859568911448285
30.03130583210458,-5.452237485377198,-1.3686665257879749,-9.289247731707906,-5.4835327628673385,5.0487165985665055
9.990642270209127,30.98315360650897,8.073002444454584,3.8621498625670494,-17.944115435256244,-7.695446139640666
5.25272237474987,-19.00261976850292,-21.361235837347056,-5.074846279811073,-11.12051836660586,-1.6079940153732164
-2.539010464456548,-22.996944301762426,-8.077889482835458,-0.0527766423960454,6.644591417738693,-1.733547888708552
6.516196789900979,10.030283218402255,2.1858258125415806,21.8006196409956,-8.32642275312062,-2.6109665673298883
9.370288195329433,20.04215914030092,9.909873531499032,-5.332477550336025,-3.9855470537844226,1.33665833750939
1.425389748757353,17.674658527193987,-6.462000478897069,22.15047105436982,-9.843453064749594,0.9143375799351752
2.4839090712815546,-3.3533836250697906,-12.403674491728452,5.170937319079657,-10.640888761340062,4.855440485125913
-1.6353945086430999,-6.915062252894279,1.6565274900065377,-8.740386765837737,2.203562421258519,7.740419778615302
-24.429733389843534,-8.186517640186292,-0.6576020330088117,-2.282179985365847,10.76733012883342,-7.133214540704889
25.13248931533267,21.09828285630086,-2.988139577196959,4.693646090890218,-13.808781803987245,4.67010559041978
-8.739371317651358,15.078622407934006,3.9622259041021555,12.947561735514288,13.079457177247761,-16.453458394676908
-13.278708613362925,12.694673874480845,4.381718289670089,6.621724863801975,6.2595808738762155,-10.484154897868372
1.6906615531334297,15.255693512975823,-0.5118370613079426,-2.6847721759410605,-1.5632364466111408,2.3532088895817957
-7.473172910091526,-1.8473575804409816,-6.191878856403987,-8.790642183681332,6.628690942928478,-5.9152968893723665
5.827059426565916,17.037677220557114,-4.397139986037801,9.346516103660058,-11.537649423882852,0.4368442664424761
-2.3364331469111796,-2.9132625527114238,-1.728330678355086,6.124009999549129,5.128749589169718,-8.203726107992503
6.4521145643375535,-4.592326687073785,-3.237833576347406,-8.915539270058169,6.472747314483892,-5.853840994456206
30.579673983435363,10.012725436575307,1.8847806915848162,-1.9094708240754503,-24.29018668356362,5.509967435369571
-3.1377568720119617,-9.09600986813081,6.7139880960953136,-5.772712926148522,-4.839773134687645,-3.9862558226245204
30.604044387026725,10.2856861404926,-0.14344945417088212,-4.59354786625026,-14.39736889984539,6.492725827566115
-4.848024654906318,-13.117281246333029,-2.3205476560123035,-5.861602212614116,18.83684609683188,-8.759398855067708
-22.326627065538162,-15.65160967398633,-0.7570884966236131,1.4703068745933208,24.257677475902465,-10.833652413299758
-1.8403307488436798,11.106439874753033,2.010942603082564,11.704411903561226,-7.614860505587212,1.4968040812136714
-0.7675292656679769,-3.364203418846183,3.3837044755381576,-3.313025822967258,3.1532334754569575,0.6474193760525668
1.748270619123998,17.185167670181556,-3.504617840842358,20.48934989553901,-13.643617188667772,6.566274450240728
-15.67896908041836,-3.021508962247262,0.31148029105278796,1.3372999376154564,-0.5463066627359134,-4.557127833540051
-19.804943477237693,-10.92518705944633,2.963579757789076,-6.846679565830113,12.76458993679104,-9.661843092350527
5.656516178225045,5.124007988597251,-1.1013130744037505,-3.4921733981809933,15.022584899641869,-3.66916095332353
-5.134457237872262,4.579779013313712,-2.7522411720627615,4.718780013662425,1.608174575317094,-5.199471653717541
13.361299495860534,12.968692965605534,-0.30025044008399615,1.0064357516147084,24.09045503555453,-6.0728763669427615
6.355750071264784,1.8691258757601035,-6.068422928438965,-3.9148334293640654,11.626339563245832,-4.848338930222068
-9.280340333290138,-8.280461305174704,-3.713299968501664,-3.6136244993664164,-0.9398113456467758,-8.006097607805138
4.611530353393306,3.143511548531265,-0.3992341877189699,2.099827418135001,-2.4897346595266683,-0.8397593574148678
7.582447825455528,1.357319923432117,-0.7286834938276651,-4.5392514514311095,3.0265792117309944,-3.4939880433392094
16.36598821477314,6.909183503736866,-2.0859781584172326,8.67090533395241,4.681715186059094,4.792259750477745
7.454124295535204,0.14949883330648045,-0.022182536901546868,-0.729368298838927,5.764132922555246,3.180620169859511
-6.855756603562874,-5.099080828853257,2.792089820780525,-7.5974049039210305,-4.604566637148055,-0.30426459511369996
1.5194381667618586,-5.68154557047389,0.26022024715603875,-2.21798836735813,3.686610634917433,-2.91360619739634
-3.178263774520934,-2.681547572367452,-0.8971015719226512,-2.682728725292713,-5.7251845708512885,5.194708543530089
-3.0344062592870498,-2.929108098269343,3.320533339602744,5.538260424807368,11.963923476018024,-12.79335365265541
-4.816358185098235,1.163981710271532,0.04145760768585377,6.414557843758373,1.7157753301841434,-5.8874093562053265
-12.83612271686607,2.862007317146603,-0.26691866260713026,-1.9595905258374855,-8.319047602615132,1.1322137550120868
-4.804985498393414,1.3143316121337718,4.504073985905328,1.1823043469119692,1.1243493794480832,0.9714828753272522
-8.73836379372244,-0.6232384036000866,-1.3911302302507171,3.5337138521106928,-2.4762041278246736,-1.749784464212699
-1.518449726946102,-6.9529761355752315,2.864903109789208,0.5370215425793909,5.871318509666754,-6.360346404778821
4.538154397572483,-4.890757186611822,6.656336738060056,-3.8077075739910446,1.8158741004636256,-6.486966074665477
0.5347526420082443,2.847995660708221,1.5520890917421666,-4.183038733845372,0.4101857315157464,-2.1574178104751476
6.8034422473408815,-0.5097370954779452,-2.8503868251034783,4.496854553407481,0.1911137585277891,-10.943751923299914
8.008623473635252,2.0300024883640235,1.176001236431174,-6.175773537766014,-4.163241062569049,8.883758051332137
2.031649704098431,-9.218039145015823,-3.2656558702569134,0.09646431235892727,2.009540199036791,-8.91457968587136
-1.5442233192186494,-11.408107814541212,-0.9589753375559324,-0.8420497889174048,0.16775749229020254,-10.824894040996185
-1.4432688291105962,2.9195600348639204,-4.057777498419564,-0.4756585970590117,-1.3070660290813059,3.851915248331315
9.951300488890146,-1.9796362757910586,4.653116325666076,0.07869945700371184,1.346345091196327,1.2656423231585872
1.3646862477569202,8.485121200499965,-4.81010624592628,5.501981021120802,-4.341957389675536,5.917833585886964
-6.518002558447595,-4.179796910874362,-0.4455995641151487,-2.1170077505446576,3.4914157359690714,-0.3927705064861754
-3.31089349564383,-14.68602177772841,3.8448581109205353,-6.3146125603095715,1.574827507585579,-2.980387775869217
-4.410817470962677,-2.7203482792402442,1.1760077445934463,-4.604760799295752,0.2718486367937202,3.987870427420015
-7.835739762985497,-2.0570216240914796,-2.004338418746067,3.7289822834084356,9.294700360586328,-12.373873670052596
1.218556803559828,8.019320999091656,3.270720012613172,3.284748746940097,-0.40249186670361015,4.2652051804412165
-0.7505539699646997,0.1695239397603306,2.9748279028723204,0.49155173532287516,0.4433571731957603,-4.70235464173023
-7.939712910033927,-6.558326182715662,1.4321062453222906,-2.4648365571891357,2.4305033057779504,-7.002359684576566
-8.423132771976244,0.6382180037286027,-2.5608761367433215,-0.5457795960762418,-1.5559789739799372,2.477044260703208
7.40913175759015,-6.562810614413663,2.9276240053920874,-4.275407145012923,1.665920194363275,-4.653039557986262
7.150995879761618,1.9915754018861835,1.3125752349243283,1.1363848715887375,-1.582028892976861,1.5722362431644945
2.4472172122175877,1.377322735386899,1.6725239004673065,-2.838826886826796,-0.0212547790072406,-1.23468288556024
5.929186536352712,-5.172069514214101,0.43772138966922297,-3.0497668538376574,-0.6429511279061582,-5.361339516090368
6.829765004443704,-1.6809439284285337,-0.3844211259232507,-0.509469122833546,-5.181816017456725,3.453504876237727
-5.704020299105387,-6.67724587230647,-0.7890614423137324,-4.644553156708029,2.3424135321762383,-4.258083166081359
3.190667280951926,-3.9176987546232462,-1.9131629198368412,0.9623033842539598,-0.1848518304494502,-4.6455541790282
2.9490362739767733,-3.401166006261321,0.13209542066066604,-0.6239627188436341,-0.6172284798154245,-5.147898769585214
-5.399152885149709,-4.3096179365067435,-0.05782795326932133,-1.7079587620899794,1.0481577129717439,-2.0505952200725677
-12.91750056241422,1.3486391933090291,3.621629298113837,2.079713686217529,-2.579597678735661,8.182831185383343
-1.2117905232386352,-2.3410060226493488,-2.2516755870147263,-1.7800517830936036,-0.5034990206652612,-2.923082316391577
0.8114639719387994,-3.8596338834533244,1.2681030097739499,-0.7500404225146655,-0.22477367784857955,1.1417104848473132
-0.985058329091737,-4.106879060395182,2.1082500154407096,-3.706784491491667,2.3580092207235066,-0.6488455909098867
0.13628889186197712,-1.3108278377131244,-1.0662465221102475,-2.235093861923011,2.6476123913817933,-5.565883937389042
7.495547892372317,3.2846576034044768,0.42899396600864814,4.173585161128922,0.6875853002346347,-3.034973967533912
-6.155342239487658,3.3856245764524044,2.2559534501055762,-0.4010740673607457,-0.4407591963513847,4.8146628685405775
1.3775533083598164,-2.888608358054741,-0.07892963998942587,1.098801780853937,-0.5559609716832292,-4.407908890765393
4.132011683817726,-3.7904260206991687,-0.33074165380192955,-0.2290755053371574,-0.8776224286745801,-4.085465074380975
-0.09414030946480789,-3.027972048494374,-3.0507791453854747,-2.747002226850462,-2.422959265889723,-2.2698906925860918
2.8528067454780577,-0.18143570612335558,4.379361589513552,-1.84693688763923,-1.3123990453489516,2.913758359311587
1.0162689734088142,-0.3224628991921097,-0.7612107829199657,0.33382671897011335,-1.1867725448491622,-2.8428137985898587
2.530319844311551,-3.5553093204925252,0.5678874546323212,-0.07082719768563275,-1.0548795666980524,0.31628589365204984
2.3122354853097544,-6.269501698790032,0.3307687885887759,-2.047062007933416,-1.885572865362811,-0.17971018043611423
-3.24766455232621,-4.801099638795045,-1.5851715427609985,-3.3089467763236606,-1.7107379282226407,-0.28455607200589883
3.1464859440765407,-3.8611957301939475,-1.7119570571047888,1.0203310665038927,0.6612450531641728,-6.537715856799433
