Gx,Gy,Gz,Ax,Ay,Az
-10.001904999999997,11.438539999999993,-8.264594000000002,30.913999999999998,-657.1839999999999,150.75399999999996
0.5960196177274115,24.06394492518549,-9.17525780921775,-1.0352723870080378,0.05803254267329404,3.628912420065564
3.0624534053124406,20.258961395074568,-15.10307260790974,-0.5326550350373408,1.6579609392201744,4.386714177769894
-10.5682435131094,24.589922684545503,-4.801586474204781,-1.3300745610729656,-0.7146216080053716,6.390082474098334
-2.8504138457880304,13.062700617131677,-6.549598615183374,0.12368231361030403,0.382666667438144,1.1777258535483819
11.253455727405235,22.850058970386247,-10.00188492271923,4.582640417996774,-1.4266558727498229,-0.8773833488715659
29.472744233604,-161.55218505672119,96.00866822830507,-23.13988769937589,-6.328671897194736,-4.876434541777592
11.187011495952422,-18.983513180038997,15.133938411526895,-1.814454276319852,-1.146672155322842,5.973887029950337
-5.941937936173608,-32.048435603316264,11.614086168819489,-0.11325484064432723,-3.362567637467863,3.326814711502369
-16.493265009015968,7.044236447659419,2.7671729467169515,6.751075532074551,-3.1282454450626256,6.174081801721121
-0.6294625054141232,8.354729763634554,0.8102802867106558,-2.2115132291159174,-20.281199376172573,7.0991977257534735
-11.346588347649346,-1.5932872992817284,10.19767879721342,-1.270439263882633,-24.50785821151372,-4.073579296287457
71.2277050452092,16.902640413991385,-4.288290040064373,-0.8080699543013757,75.10951354854762,-30.557096643459094
1.046672252375723,6.366935281828265,6.974391342010874,0.41581581332629947,2.8114733856017615,-23.062421854417977
-3.0839679975014556,17.6006397319228,0.5845351008540511,3.1395224155847865,-1.8336935314589722,-8.474832283313239
-0.3039007260064057,35.14503848860715,9.406946046332864,-1.7675204821325168,-1.0164643143437333,-6.626667132593331
6.065635379395496,33.1659691671524,14.986987922839425,0.16238687030576293,-4.3921869173680825,-3.7065169911723213
-0.34051013748526654,-14.116837300205413,-18.546026054940576,6.771546566505932,-7.452889664504782,-0.8007422576950257
1.199433475354813,-82.90398366899525,29.829058431735874,-21.668689843745142,6.347799616322137,0.10594069820134269
7.5812439172149135,-53.854035969270114,-34.063826682766425,7.202956397476115,0.624413019511524,-1.0979051556787978
1.1797071417177365,-14.346461831367833,-8.349064350590018,1.145465607175949,-3.3665663169916957,-0.8579615981614259
-4.173429112317056,-33.9162522504088,0.6304588305864205,-4.587251084285991,-3.596887417940411,-6.1992470729642655
-6.859466063314912,-4.78567932462982,2.7460887217992744,-1.1267002404314317,13.155728149641826,-13.757706367171519
-0.29987839884532486,12.399325383560722,-7.501491890177331,7.6520065263051045,10.353323341905408,-6.789446832039333
8.711095987158735,-0.6670235592570908,-13.46768764213936,0.8841097364528525,-14.59206643284248,12.100519420387851
-14.441779060422663,-8.999528071430525,-6.757468938696756,0.1804040461648655,0.34724667779382035,9.52431852184078
-10.489209473954597,-14.95655731295605,5.395755021256273,8.051064019712037,-0.26737400299601577,-0.9071157353873287
-3.3371826248783694,-7.860698993226173,3.0459607606920187,-1.4238339882481843,-2.7522330781699873,2.671341395246324
2.139925440882515,-36.28643026594808,1.7756526266452983,-11.426088686849873,3.5296238602486794,-0.4712013360356334
6.847954003349374,11.09170513481275,9.158192297421808,1.4078166166345367,3.1717650968566105,-0.4017141333158126
-4.8786806189668335,-51.790311671219634,-9.569954105317102,-7.707228042233564,0.12608596409689188,-5.484930367295909
12.280205694596221,23.01532019790735,-0.25703394770770355,19.04416716762089,-7.910069608360894,-3.0931317898053963
-0.4243304918299211,5.646165610901601,-3.272147261328414,7.20636792655226,1.201471970854289,-11.11263749194547
-5.12324277398941,-15.035442474002032,-8.413580104792997,7.774744395887346,6.298503342014633,-3.5546557448055096
-11.698450244236664,-21.712765853367973,-8.586479582593117,2.2404591706752237,6.1312830010275645,5.70314721739426
5.929695510240365,24.323382217896224,-1.0310622452936116,1.9565682431010432,-2.326227043027463,4.965807748083746
-4.040635697727888,-12.421470166589028,5.891505059621892,-8.860664610140077,7.244012065548091,-7.617466957266483
4.937608571840175,9.296515870601679,12.675491943782756,5.350002704147327,-15.306316663314373,-9.064909439479969
0.20814704824116972,19.554447478767976,8.351450544111186,-2.5925533897999395,-2.0313680401165666,0.6947479978309266
2.510015227613665,-6.528027063269761,8.989001484404952,-1.5087320222648513,-4.810889808648312,-3.3493069567467177
-7.583919920261166,-12.637505620781944,3.436329551492925,11.056960137977773,4.807073705051547,-4.575151005645388
8.42268109897382,11.340145286373314,1.9471946750358589,-11.272994743226677,5.080139768004442,0.37428120715188773
0.6028892693415363,7.080183445561474,0.40953355990918716,13.338674452723046,3.8136813517819688,2.4504357866108006
-2.2635898232542084,10.788384648217193,8.604210536722587,-11.065859142852325,6.4466754223484815,-0.8362927586662599
-4.6911528491887085,-1.4562402011271778,-4.785312510920081,-8.468582799425645,-6.297251653707391,7.325200981991534
-1.8365903368647465,17.83164032662026,4.193893534144843,-9.888445521605858,-5.6699634022277765,4.491348257836618
2.526458496474201,8.116774902441502,5.321065703077708,-0.5039539132375519,-4.2651285516387025,-5.009632850169414
-0.6363737856462806,10.984316444712116,-3.7899755932727253,-4.031641872192056,7.3820777698073865,-1.0961333374309763
8.569278885413041,12.651185950763132,1.6261476214253459,4.490715310196508,-10.72921782112111,5.213440472238737
-10.74246104474797,6.920810719243644,-5.750446055909785,2.2257135461013804,1.828456739486123,2.823840025902266
-11.290590101336523,-14.118045873149715,-2.427107071518261,-5.138472820309149,8.675571208640772,-6.023152107672523
-2.969898927050633,-0.6060751921782501,-2.162091371826148,-7.695003014799507,7.775947640532806,-1.2730991934400362
3.592217480321681,15.061436565914986,-8.156849223003558,0.8877736168069883,-2.9966155446032396,-1.2910664111365326
-16.559322962142303,-5.303695255131351,-11.686197519760887,3.345679932000945,3.131116497001079,-5.932667731869309
2.2706124210146057,10.390137004633345,-2.8355319484499146,-5.878507458125204,-2.537692659296687,0.8026491876988412
-1.1501607605492588,-5.043988570359954,-2.514159182123974,-5.428155760070961,-11.007885845322704,2.521526902262586
2.2945957328289914,-7.124198790512544,3.751199066527721,5.538426319820054,6.444448632503689,-5.444725231317722
-6.233301834422128,-4.87293038603586,-6.361812477052117,5.14386401335715,10.247934965545468,-6.348027092118263
-9.007022110090373,0.5960040654530201,-5.309879964604612,0.9350707922402783,-2.4379724841299395,0.4289310709430474
1.6940339812280163,-5.657872544007628,1.491640920509756,1.5247823638382871,-0.6545624056700508,-0.5766898257016196
-9.82035994184228,3.226537375573146,-4.466244042193061,2.9425634711588327,5.081185529631066,-6.92356020326902
7.026401860356851,2.5138053466624024,2.1912372042365114,-0.7860180971285424,8.620890108039227,-6.596274593494336
-0.5275679201240205,-3.0181037334877034,-1.178116347453057,4.43100813358587,-6.310383987279092,3.914549151121386
0.6602945303558029,-4.821163831483042,5.8463116265506345,1.2618586169157489,-4.648985162271087,2.23512861280738
-5.630913909986678,2.0542158161038215,3.9207123689724828,0.5895622695713147,-4.090452669431021,3.767827882073656
6.207093985718732,-3.349541276784219,3.7316735171357855,-0.47259063059086104,-2.7032293482046374,5.1259606468509755
0.3604895982137176,2.282160808604432,4.920358680793336,3.918924655389387,-1.4154076244485994,-0.10544440816680578
2.814768320728059,-4.717278457932395,-4.485945174307244,1.5889212906099974,8.233318964006862,-2.976035949189467
-9.940592270404323,-0.5743705783110289,-2.967668786304316,-2.554833566513498,-2.5982086969956546,0.3656362815754932
-2.627758882842526,-4.010904668772546,6.520976544153737,0.4069326136018765,-8.10672756345099,4.15072858581625
4.213630091885314,-0.9108801022523141,4.47589735707816,-1.035732474967274,-3.331684784901741,1.5874716475923194
-7.4579507099429865,-1.2720763514323377,-0.5539620291799046,-1.324294760341389,-1.3754051956637317,-1.5872320273222673
5.584748811917383,-2.0215381466543465,3.8229062477294944,-3.5568776315042285,-2.689482660297133,5.5722181301139875
-11.840116050361202,3.4691870376025387,2.8104326176198375,2.1054963652259255,-9.781616310694929,4.155278057902753
0.07689564707121876,1.6541139707086443,-5.585069631205388,1.1159006286741442,3.3396698995997998,-3.408622410232711
-3.974673267286598,0.9927407765806129,-1.6969153629947513,-1.707934218775983,2.1273588559994505,0.04832102283390649
8.9689732640249,3.8795714011976594,1.3798991810872137,-0.6834343423212668,2.603648810012161,-2.6230467219648532
-2.0910826220727197,-2.1256983440795376,-0.7673755667876585,1.4954007692554563,2.7412884995539115,-2.5028268600253663
-1.2359759515069995,-0.28900441541973365,-3.665234007719682,-3.014098890648733,3.8819538150133135,-3.262639827693344
-5.2278291063819715,-0.04728913190796938,5.888312940000116,-1.7183013719755402,-5.704345825472575,2.526510997894742
-1.7874445410844657,0.5468679568838233,1.9757076882225015,4.163502811792269,2.112283775407305,1.6732774697890762
0.9265044609583439,-0.5527436638102242,-3.9894045903078004,0.23049621556400418,4.112412761129832,-3.1542859498201987
-1.53807991801053,-1.4855420415365015,-1.9396421802502088,0.8870306567379701,0.9694756663020165,0.5525287584955972
7.521849621638767,-2.3532494856463337,0.6412129183671036,-0.4608684207254744,1.6758034282203365,3.828579346793177
-2.3338970613818812,-2.367106066835575,-0.9198897656396788,2.974306906544959,-0.05702163545401345,-2.338210559328047
9.050361866980172,1.4105107585716843,-4.819567045525072,-0.6711605941819792,4.824736606809472,-2.1517875019735335
-0.10930246457065973,-0.5620477680516539,3.4583047595088443,-0.06628171729222593,-1.5366245314560392,6.657718959357692
-0.2545153849352705,-0.3834480637994029,3.288844350672755,1.3555874140801651,0.25404520499483785,1.1428668946972211
-7.569965978213117,0.9053941304502628,-0.4504938161532622,-0.4989396897383175,-2.4935568167972897,4.109371520982842
2.584887985805035,-0.7902167930900839,0.6435181880948049,-0.03536194851952612,-2.421611328235387,-0.26939382227743636
-1.6397736011037796,0.17280826113407005,3.6685363024370963,0.6376777418473745,-2.3231184805310936,4.303722904863419
0.8842754340778423,-2.6517021772894216,-0.0907660714245396,-0.45546636725724365,3.0505637969450583,-2.8845798148682844
3.9486332579705667,1.1884588524434088,-2.2035141177607547,-3.958661401335987,-2.0660832741801194,-0.05280069427370354
-0.7401036804387378,1.1460422455272457,2.0386466923914375,-1.5105266589096478,-1.4598440151604413,4.02044781663948
3.855406893170218,2.2493516361958976,-0.15944920529570983,-1.0348541674004657,-2.3719572566232876,0.24010933321080374
-5.823360461584918,1.2713475169640616,0.2921778098025134,1.14375098742786,-0.5085197644678866,-1.4062933898861758
4.184004036662791,3.607539266405581,-1.0609412422077633,-1.7358163072232666,-1.6155914819315305,0.018132725951758077
-8.749897761194907,-1.5876504884915739,3.0162720502159734,0.6424552879630246,0.9765226945773143,0.6802381715465154
-1.7610761355191389,-0.6350888573936143,-1.7092849474829472,-0.2060877423045408,1.535305559508442,-6.091200471953988
-0.7306147398789296,1.1738674839713628,-3.0643193775920397,-1.5195535536602818,-0.3573355772653082,-0.3120679846065595
3.966963297783695,2.717759346489397,1.3643592975187167,0.24783384070832915,0.6034069491390721,-2.349195437132941
1.0851215232472227,0.8377779127200915,1.388008533747071,-0.5097737764081598,1.216704034887172,1.8333271647832037
2.8921955277704687,1.4732708663231224,-1.8089296437391975,-0.011628602652021133,2.30997221316857,-2.20042064333365
-0.02397125376719611,0.9435081626366795,-1.6361485116445038,0.2354999794982619,-2.0436498331582817,4.733411676489842
-0.3731739224241404,-1.7749081241758276,0.9787515776589275,2.8052725911573906,0.3707246462034186,-0.002723798567736857
0.646848987931424,-0.8336493802688169,-0.5419557539917024,0.039784271541305594,0.8882723386122815,-2.5451627999764384
-3.328636816643807,1.6135277748789636,-0.4509367580513652,-0.2341747853521589,1.6821578470369905,1.1584279711708771
3.6167472380913703,0.8769854516251125,-0.01251103174185808,-1.0447004709827892,0.964897473602496,-0.5368963043343122
-3.7705499685939774,-0.5194278649574504,2.00175553899402,0.2676073756269456,1.9685295893850532,1.1072720471867001
5.215944977840913,3.2726534956624125,-1.8640778704620757,-1.3015411294747978,-0.4217422001491173,-1.5934337505279719
-1.7565961176265699,1.5316512395291433,-0.2634570606723423,0.17809148966097388,-0.9255017670513093,6.03959522055583
1.3843930467530676,-1.1918373195052048,2.7078201740190875,0.447097822108892,0.293590068505933,0.7002650662213681
-1.920660479247648,-0.2567812049119714,-1.7946592092094673,-0.9586999438703876,-0.01945451519555108,1.7167104280368606
0.8196183565639412,-0.83156309414543,-0.8870859518541093,0.3024407058514962,0.3302871264065641,-1.543233870415482
-0.8829888313986572,0.5486271079150035,0.2597794162973536,0.29502918016563434,-2.02809873612571,1.2373054517907636
1.0021714926823673,-1.0787933173520685,0.7104183885502459,-0.17526002379461864,1.8159496113225122,-3.989248814676597
1.0203383891226423,3.3215120267572127,-1.3805465167469984,-2.6999069901780697,0.004227401708800982,0.2786559340165954
-1.5165496775663287,3.3299046505104983,-0.15340443895392364,-0.2481119289487257,-0.027229233913356687,1.098752663067425
3.43845079601983,1.1690673025517468,0.7130397206981031,-1.3342503417019451,-1.1106654262366622,-2.025783950049815
-1.5703956828544245,-0.0033378703886651206,-0.8618611435134501,-0.23966011944740487,-0.880649737382042,0.055547731835778824
1.5498859135752148,1.027998387946786,-1.3886826379007267,0.1016888252993979,-1.672974355477349,-0.526722913828488
-3.1362846834414455,-1.0931031407874947,1.4478472986743294,-0.12466315603760908,-0.20151330773236506,1.9782056556077312
5.256910101136273,-1.1049266998700067,-1.4233720184967151,-0.22055007791760242,0.16458496484225055,-5.479224111268504
1.9115695642375472,0.020943445677700567,-2.045967578887607,-0.4380270654021944,-0.7065030703678471,-0.5297600718378657
3.146927542729367,-0.43365471833971225,0.8866597497076316,0.2810958479091033,0.27564602223527757,-2.7116602192924164
-0.39317075294877,2.0571885088555315,0.6515579730069214,-1.1934541497080464,-0.6418232056280997,1.0160751750612176
0.7631390165913052,-0.3558230534042902,-0.9958839099019724,-0.3758658955089726,0.45793200271870466,-1.2828475973048323
-0.327203270553334,1.3858056470712137,-0.6053791719007318,-0.6548831758128254,-0.1746872626348317,2.3574904398966696
0.0412923686486687,-1.3316404321959945,1.0056445897415385,2.0657354317508445,0.4537745708007701,-0.6076482487239114
3.1504185851837785,-0.9165703968294348,0.7990164429431423,-0.6256112416219635,-0.6657797095384999,-0.6271488236609164
-1.090125894051727,-0.2476963604047841,-1.1860947809179705,1.062372375296656,0.5547570040239043,1.0538094722642213
0.9577669503254607,1.025947256054358,0.8993780781465596,-0.7524251617456854,-0.5212864549839284,-0.9730427170702688
-0.8243298116476625,-1.0669675242320482,0.44000898020144896,-0.602847563302109,0.823411597469639,0.07274516924109112
1.0342252624586112,-1.700639760450861,-1.5349535948354995,-0.30827521942164354,0.12636663961726224,-2.188899714710394
-3.2811729441334103,0.8287732111875366,-0.1883956936991198,0.03327330956872465,-0.20944351876057302,2.806638451149506
-2.0986097543262123,-0.6506839881295757,0.5745169999763654,0.35765370851181094,1.839374874576401,-1.1155141752440418
-2.2372384715175104,0.4031621953765401,0.004236807864799019,-0.49095784680720805,-0.6034122747363029,1.0710619984266183
1.8032319892003454,-0.7855708816964354,-0.18722557689579017,0.9355401613756509,-0.2524716976774397,-1.9586655952763352
1.9041454530796755,-0.08477663808629754,0.7901977927785871,-0.3437769435814975,0.47598694195230934,-0.8268428426482379
0.997691251081072,-0.14075022526396752,-0.06554585285484993,1.0006992360119655,0.012286688917418243,-2.4139808466160386
2.451794640626188,0.5087736252599494,-0.7847854922283851,-0.9448583625606521,-1.1587504598183964,-0.5981204676838493
-2.0394397371131956,1.0835073555421677,-0.6950241002675566,0.9861994700088568,0.35210253926855384,-0.2723513037570531
2.4145710863782437,1.4227672645299054,0.9953339782799774,-0.4241549912657957,-1.1167968445492393,-1.8191715836973392
-0.14985480474538615,-0.8645104246423813,-1.1042800064116958,1.1750080383058588,0.12492429310592178,-0.65288578794753
1.342244953116619,1.7537017442160043,-1.1714178758001381,1.2213206931898037,-0.48640566934882357,-0.7724617427193049
-1.2168508251535282,1.3010028082682004,0.4351451352408989,0.2346770445805921,0.8215944979904989,-0.4904513945012581
1.8798148327975348,-0.32015241580463394,-0.690310590205815,0.9740383957116286,0.7374404673760206,-2.321089907488079
2.6170550988452095,0.00851596092801947,-0.6758612838637608,-0.011746275159392694,-2.194162603551265,0.4981863297584011
2.3391036214817706,-0.5104881471077298,0.06317123335988928,1.2612188362857868,0.2512323359024693,-1.2571781892128493
-0.35622072672316496,-0.11241120546682648,0.25581970048587666,0.009874771191129533,0.15817198169285598,0.7589499573644463
-1.108895396733053,0.3756369249988985,-1.0218102706496976,0.7219342761983586,-1.0701921599579842,0.6843535535449474
-1.1939551347019242,0.7102338141842734,-0.4079601686941674,0.14704558122764316,0.36520468704705955,1.0667073880700346
-2.2486700469488965,-0.042694284500857715,0.27685727487823,1.3124906465097457,1.404308244153524,-0.16351734992011924
3.027084780724393,-0.740886135885548,0.35644832958602907,-0.13512590767964616,-0.25006283074620844,-0.8730878798280024
-2.50176435020648,-0.6454697849353389,-0.4058823655778104,0.41936828228974166,0.7019259177011193,1.037109643168091
-0.1766541530708493,1.2994496768778947,1.2878331518347612,-0.8126046794655882,0.9777960615313563,-0.46537706187475714
-1.6020081262705796,-0.7109799685077863,1.6972078469167948,-0.7136226214049597,0.3600361395307766,-0.5398590616543848
1.0319467421288113,-0.13729656561333892,-0.5103409788814671,-0.5045806806906221,-0.4089887711351189,0.6012451300336227
-1.5708395182771957,-0.6384090407379209,0.2316849400508676,-0.5556002952724794,-0.5652489980512571,1.749154249087798
-1.8738019390612974,0.8097664756895521,-0.2995298401051023,0.672231698353382,2.1959246710513263,-0.6855105724915782
-2.054398869904899,0.2871851669532504,-0.1494116294448883,-0.745815474302388,-0.41803940938538886,0.03839910940862731
