Gx,Gy,Gz,Ax,Ay,Az
-10.052624,-3.4477260000000034,-8.452130999999998,-19.182,-605.5,64.27
3.943117092260535,22.528333828407625,-2.54845036566049,-3.3059543808535237,1.4973056573381611,10.006291869005786
4.49900551584854,-2.8839985812060096,-4.455621962111085,2.5751902953975367,-0.015051911715750599,0.6977461201008044
-12.080157860518684,12.767649629314711,-3.903072340076683,-1.6362866247961578,0.5377238518041549,-2.6888918491849405
0.8189278387416903,-14.50226755595521,-3.5203330905701247,0.6991159571945114,0.31781443117729996,3.9636618864358124
7.167478930352687,-60.728165617032005,10.15964727777538,1.685399176887254,-0.33515392368177777,-0.05288296988833885
-17.428458031279536,-118.95808270236262,70.05394336481217,-6.066292297576704,0.4791671272702869,0.8306375293047876
2.304514919596542,21.333539209064487,-23.768292178354283,5.57480178670872,0.0831361383681341,-3.065521580700152
13.362052343370463,42.790572546070194,1.5627853831325744,-0.38213514149515304,-0.034834513285798785,-0.8268406509129018
-6.236679648417407,-27.51689716396998,11.438850476038477,-0.29843453901352535,1.3793327752956897,-3.597076936837445
-2.7631691957662183,-16.353069325171152,2.768265099245415,1.7627995017194609,3.5112391922645565,-6.132192669074733
-4.931490096597501,-7.359872765716678,5.638341736657223,4.6315003977712035,9.54965390393357,-24.650803517133333
20.604500643770102,6.217986542113864,-1.9455397160470542,4.833425929223157,40.844176062449286,-47.1987222235764
-23.356214903324076,-12.288745194448493,-8.691429571337437,-3.642409171920421,-23.260203634921847,22.5282144046449
1.534117190133059,-18.712819984832574,0.9138856240310554,-3.2399396215092953,1.0163623417224805,4.741691244063943
-6.377150107597954,3.325801670223256,-3.1511915110082267,1.1873900248272513,-0.16521939297533272,-1.4642508583043323
0.8700392963584811,-6.412825864095156,-9.317946113926872,-0.7404633235616562,4.893423772600652,-1.5506432268388544
-7.512372347789268,-43.21646886013038,-29.180123787268684,-1.9150109920538674,-5.024691564282152,-2.2126936482432367
-2.9700285259522325,-31.95358823046372,-20.932398008576563,-4.871339814296485,0.6358232469847527,-1.3809886072381805
-3.387033781329933,47.5090260070333,0.4267570645302632,10.443268678516459,-2.871593762269078,0.9229882248797989
4.3892157885958785,-2.2608196114446812,11.895954139429914,-1.984484710180915,0.14451331251474603,1.7882345471344498
-5.803143598384954,-4.578176892821748,-3.083137688053,-0.18835146820722848,-0.19840283657443208,3.571864018776597
9.086470138804547,5.969589949607233,-11.59566392014153,1.63938136060808,2.348905840481394,5.817622383235283
2.80257529114524,1.6135843669375944,0.8547187394750582,-6.348817887933363,-10.835167513334849,12.7380111619835
4.494309664150611,9.745609617689357,-3.008541287048586,1.439999649446112,-6.032277876115897,10.461420503651507
-15.707074789264908,-0.17944398450154075,11.707836703203476,-0.49512442793575406,13.661672392533003,-17.972347573234522
9.580661731159399,5.23583978194722,-1.6865936069602512,3.0640045824534905,-8.814151986098235,7.392694132205101
1.3702313897706095,11.233297519857938,6.706368915920787,3.014690300960149,0.622365960290804,-0.8578784213141173
-0.7266436124099418,13.811893585347622,5.20577903310025,0.07011215177671137,-0.9998226873265956,0.0803405146587779
-0.8926558040499861,23.419804684841026,17.255038873850488,5.768883577924728,0.19397513706058006,0.3453028218804524
-1.3746259682877877,14.78277360907702,5.369284214803377,5.396351635869163,-1.493102331740121,0.6691247345408717
-6.915830854302295,-28.871396408273792,-4.199759911283609,-14.581585450914025,0.06327703704723842,-3.979421445121485
-3.5056816333742375,22.70823978074336,-6.022780587221139,13.093693422835532,-2.7653004330092434,-0.4196233209178253
-3.6556394478807475,-0.8249555549043093,6.953664305017562,-1.4575544209781421,-5.789791993118682,-2.1072758069637088
-5.804221494533136,4.21539830801224,8.016569709076322,-0.4655329617647459,-8.437622156813472,-1.639227837581592
-2.73094138646775,-2.6095943692605665,-3.5518622372735265,-0.03782010856690757,-11.797004419164045,-3.033347334621121
0.7325727732592797,-8.154681264604804,0.07891791178720897,-3.4062009411727034,5.0545417190212465,0.2841081889785826
-4.4244912054135135,0.19573769993189316,-4.804915990305954,-4.654544515549395,19.58009364263495,4.6968120455526545
7.150892335609424,-4.738727736318216,7.557949474136944,-0.7004178157077083,-4.551523961258916,-5.857550096741825
-8.650775847435526,-16.90410974258656,-2.5333716234033172,-12.461659874890426,-7.814804409983887,4.854231536840815
0.1924311729121974,-12.720722694165342,2.6961640655682997,-5.237226983077002,-0.2775625063902565,2.719350423429581
7.146252758224888,-15.299903669903856,-2.4106026791411024,-15.393699398781322,-0.18011728013330222,0.542431852320657
-0.37082684887129214,3.0320942514896982,2.1013352130418905,9.377332281886941,-1.2186097848113207,-3.367409468002667
-2.1663907342244086,4.882992824935916,-0.8747161615479553,9.209080687575426,11.39001215728527,-2.929411162802835
1.7910030206404755,0.12414670290738705,-2.7572364720923317,-6.652048884368249,1.1573040341023386,-2.825518101164135
-2.0938841565892763,-8.541003687110223,0.5422373213378469,-1.7419419560115896,5.0060849891406205,-1.0963929206634313
4.151765604471557,-5.0337275360863405,-2.5648075355662754,3.7005756178473828,3.5092273240714293,-2.563249921807703
-3.639723913344547,-1.5346399369156567,-1.4345704255937353,-0.7124578761641245,2.890416424019156,-0.9899608886544888
2.1874128077457495,10.759983770516273,-2.9576186043690327,8.910337331291235,-1.026645450690555,2.889064445715336
-1.6655054589728608,8.332651628810808,0.7010269935146949,10.490551587675792,-4.840454755543034,-0.2698701495720859
-4.828586593717945,2.932916664317546,-3.306334085669246,0.9269770802876033,2.9672308899492927,-0.5220752703768384
13.726092186372398,2.9819785366034814,3.5908589911948763,3.360278643614981,-4.494593864944398,-1.7418197941011684
-2.0892064661586556,6.210112596550363,-2.3135728693334974,5.897326027189619,-0.9112743885290361,1.6246099756327665
-5.008020180603043,-0.5396038517678452,2.370407733324635,-1.0011050659010623,-0.49950823593917587,0.8572311179144421
-2.0079559028763203,-5.274819427975243,-7.911739863696539,-7.823894497220605,-2.9109851178900317,3.7510003976972905
-3.6776897760241654,2.460546422805848,0.7726615840701232,1.7545813600100968,-2.825400386203936,1.0904137535391079
-0.5550998841519997,0.8601823040153305,7.305988944725909,2.57277540258399,-4.097690370976544,-2.1584668960191133
-3.812461210199212,4.2064224946294155,-2.7303306314303857,-0.4844081039620015,-1.3512597332896088,0.17577187970133018
-4.255235187699909,-1.0623883824753886,0.9234184374820282,-1.2658937232075367,-3.614114530762272,1.0857343078809754
0.7329645920468648,1.6518710084962136,1.3412177182758933,-0.2216120836056214,2.582786772643624,-0.2515810463815067
1.4219908846234137,-1.6172170934314352,0.6356287972313169,-0.06890445562442427,6.323077700168226,-3.2249787666550143
1.6980217514980307,-0.8213040153672286,-1.4000341032837498,-0.9726227532394718,0.15433810678217252,2.91091659557165
-0.8374486195370887,1.606932203766998,2.056595665518034,1.7622628076634284,-5.0896135107132245,1.8307209456078308
-7.580603146519927,-0.35144205922553473,-0.6172273594517942,0.44800794256363385,0.36051953944691695,-1.920853067275972
6.865596244605421,-0.5148122059700384,3.6750958560322404,-0.4602789809776393,0.09703633376601428,-0.03921287076402913
1.6463873877623092,-1.8702938776029787,-2.60043168443699,-2.6255062312514728,0.2509976041275246,2.276167043225204
3.296246309061482,0.06020921074119956,0.25444848195371006,1.285725463813616,0.4009933774070684,2.3269178998205664
-0.13912669162475044,0.5047923391111215,-2.53306310190563,-0.40726660773357715,1.0402878762557486,0.8034774073011616
1.1178339786982043,-1.4210578385719284,0.27506251983860897,-1.3830034727546385,-0.3898264225520591,1.5966049618918636
2.0342533689709645,2.0255718464668018,4.278343086704642,3.0414957262873807,0.07192802696367728,-0.35647632895064896
-0.4347837158885515,-2.387468820697478,-5.28611188843616,-3.7606513594481337,-0.5719153740953118,0.23975801323962864
-4.948729996837216,-1.4228465992235346,-2.258845773398097,-2.1437081041044013,-0.933798693996184,-1.508584033427422
-0.781697083464932,0.2236982877446032,-0.7856589340045967,-2.215428007778658,-1.915799064236741,-0.9448064852369411
1.5258665694496414,-1.23657996541415,-1.176590094483314,-0.7140168000932532,3.4432452475359234,-0.1591770772819613
3.6410967663917395,-0.8378723024635024,-1.7545948027826137,-2.226922754170288,1.410060649099552,1.2965483913681903
-1.192234874333093,1.773720232815062,-0.9119886423692026,1.3161339308100377,-1.80234777012455,1.7331531495195218
0.38095272935663127,-0.8690035834172415,0.3203933990034047,-1.0854711740001077,0.1112437591621059,-3.2104612651908315
3.782778971916668,1.7928212248359772,1.376845951750286,3.864218328227838,-0.1003412206498247,-0.6466897295320921
-1.8142019023509572,-1.0986814525807744,-0.6077136680473252,-1.229373337090667,-0.8011667514123624,-0.2648466482935721
-0.30843284197514975,-2.222319879560586,0.512152562563563,-0.684202913975638,0.7694437336063622,0.2939973313410067
-0.6629252512258857,-1.2849747968308336,-3.122318350192221,-1.5408148615748234,1.028403288170788,-0.4892729501057109
-0.5228536998254318,-1.4576911410838633,-0.42058167505230615,-1.8423094628301089,0.35403141007261607,0.3261475823816031
1.8215986793294154,2.785581565463583,4.666973295650497,4.248675177467512,-0.8863254992742289,-0.37359699729358187
-0.2570829059247475,-0.49026439431652813,0.6113645914908341,0.6494201175512369,-0.00871242572955555,1.2913367188166482
-0.9705661576942151,0.2072577251310599,-0.4008381941875905,0.9164044792856911,-0.09608531522340158,-0.3629694009991171
-1.018871039739178,-0.3786079836657952,-0.03549038130574306,0.07938931445310082,-2.025793954013361,-1.3069350285096677
1.2011424341294865,-0.3874906472881068,0.9973862304295604,0.310581982426855,0.3725459254124738,-0.8498736788308872
2.135846704196392,-1.0873716318909965,-0.25581206599397177,-1.0335429257937898,0.5134812551643694,-0.20806801599183142
-4.178397752774535,2.0652720129317923,0.47618805639717765,1.7388988241183476,-0.10299699934627043,1.7102231353478148
-0.9879073932869178,-0.5093421945016996,-1.0692709679861845,-0.8860410344885458,0.012358166569827578,-0.998651757016512
1.5756145103354062,1.4978071517804985,1.2690844819540252,1.3002697386623694,-0.10889378384439541,-0.006769730277664726
-0.7555266995309116,0.5906764049970636,0.3641023473561088,0.3058142392035965,-0.18542570362080008,-0.2438351644433987
1.2066903002839338,-0.8733222747540018,-0.08699111899503426,0.9750788532791509,-1.4465146327811527,0.5316757735860766
-0.7994638651479171,-0.028881394621578682,-0.12396763396690974,-1.0897750744486765,0.2662856522245536,0.48422729473505
-0.6946177050221318,-0.6622867015119276,-1.2949886134203024,-1.6578876422968665,0.6432020746054747,0.5326389914377753
1.1322270173598903,0.29077098384383226,0.894652448314027,0.9934711273352642,-0.10343116767848648,0.060948977484475364
0.4717717266449655,-1.356116778073849,-0.35123141939159264,0.2820078478393936,-0.5160116235345922,-0.04154963204437523
-2.264408919362381,-0.24701817224117428,0.8195165214928521,0.266222677701483,1.0741133438780222,-0.3770992593358534
-0.8744139057969246,-0.23704321862828825,-0.5811440771518371,0.0501570047466694,-0.27157938149194294,-0.20246839155878948
2.2391465442793654,-1.2163861710570378,0.15989484722446334,0.04342768462096974,-0.12624947900129324,-0.7371158491606559
1.055022849506377,-0.49911461704189075,0.2655527817961034,-1.1199528310415972,0.7351660040614092,0.30263592010284
-2.4524645171283352,0.8111674171556045,1.082831717939434,0.20880574969578153,-0.288260476675964,-0.13302475825840368
-1.6080439991580544,-1.3735561061587438,-1.090102517603013,0.26531771131616777,-0.06692472663743443,-0.9712454757916889
0.5185564266186368,-0.04323178687928833,0.1305590985028371,-0.21592450366868626,0.6145389766625313,-0.2102426413734798
1.024850505627542,0.10587774339702477,-0.1741215051611502,-1.058848209490906,-0.3615219085871395,0.03001023000482661
2.536068199062873,-0.9215032764281363,0.8169639509754841,0.6172145384093817,-1.1436069330722185,-0.32653770666751336
2.101368004171085,0.46619838660467594,0.19532616409947323,-0.11910178799797888,-1.3401018292851643,0.39382411647105015
-0.7050724267522588,-0.5825468492401558,-0.09435571775584561,-0.8098807244393205,0.26483450812035964,-0.041006260335342104
0.8688476274731767,0.48053002404786005,-0.02247207282264002,-0.0652430487389779,-0.20053335640015152,0.32815941005276006
1.900634627580042,-1.2665712506712306,0.01869173045159178,0.09053839538477709,-0.9911578520830792,0.9740332061230812
-1.3152390600077384,-0.37768152286585915,-0.481782865043242,0.31923037581604763,0.6725112679993343,0.20029253680635128
-1.7088250660336088,0.5040425126063494,-0.16595990001455008,-0.04343779459270186,-0.03518465352994804,0.6607763438242951
1.4077382018273605,0.2615962077915528,-0.6516011937818372,0.10660661848079855,-0.8176578330915376,0.1790845987286247
1.6680913047613144,-0.42105462851673275,0.46837524068917163,-0.8952075438874944,0.2234360857997525,0.5182206128976254
-0.27329039563610025,0.9299586596238014,0.7338293739864705,-0.03003338064050748,-0.1807982124359172,-0.328014080669462
-2.784566412559053,-1.237128206585481,0.5548592610213868,0.10903556946149366,0.5451369156286014,0.10885948138594453
-1.2517714456775821,0.2893203489687868,-0.13041533050499443,0.21476081854057386,0.8602147268493725,-0.5063577112948154
-2.422096019735128,0.47690919444402313,0.7823696990673793,-0.7217181994716665,1.2515801711700636,-0.3686679340320303
0.11852352498826735,-0.4970529426007738,0.8549968255485076,-0.3324782861770932,-0.04401141573527312,-0.03324591816930797
1.5212609073134098,-0.2647121751703754,0.39117224064253836,-0.557573108840011,-1.1454187065385428,0.9273483664482609
-0.14833067110537923,-0.30322213316531904,0.2639374368117763,-0.4253563399539388,-0.9276561250920062,0.21706036616221466
0.079139134847997,-0.11868003540603611,0.7676435665948775,-0.20279747801176778,0.9421125352000295,-0.8992541602949409
3.1586060318738256,-0.16234108766257904,-0.5372668388961283,0.02131931548689764,-1.1477939515562543,0.34484062647692704
2.5729972859336834,-0.11274330375698777,0.14054192031023643,-0.17390870006062636,-0.3691806825658156,0.19611872288958243
-0.927057630567403,-0.08621531061447046,-0.20173643852100487,0.3665378517539296,-0.4576862561192234,0.0499642786659204
1.0035517747888807,0.1191083541959802,0.041904698242002575,0.17095865478349048,-0.9305249785813889,0.28129605563543664
1.5570174319428198,-0.40075970161966845,0.07291855827904448,-0.13598265911957508,-0.13527879790860808,0.4642065805160325
2.9117524147321494,0.49552297581680776,-0.4920595377086624,0.1038242628716181,-1.4316372050861108,-0.014440452398863823
-1.5582889325762408,-0.8527263142105852,0.33811943947996015,-0.04282567183969066,-0.41431742812425,0.12274600089211142
0.6541899888794832,-0.496273235309444,-0.7549011945069342,0.4639749571789968,-0.5609700904426532,-0.09878636275558517
-0.061573178490683,-0.11253426191948554,-0.23182721371941198,-0.13213922101650027,0.9481925994911952,-0.3805771469692015
0.8724684992875239,-0.41165657358344243,0.5448146013820955,0.18280247319429582,0.47485423961547074,-0.9811257236487202
-0.14062541381812008,-0.6426650013369094,-0.5715492741081571,-0.1594328305428358,0.4380834663771383,-0.6393124499794868
-1.9928251325903503,-0.5747592138054186,0.18188907303426685,0.16604649890230602,-0.27085153968538156,0.5573023404525272
-1.9557528354594207,-0.32532657053532893,0.33387862512184496,0.14207031855774196,1.0824767725187474,-0.9840637378085101
0.3748719445237827,-0.2621562276668463,0.05903568503985279,-0.3716512179532818,-0.10643424094374454,-0.3819328611234085
1.9046394646525484,-0.13606959167829796,0.2817352965435763,-0.2779318533939088,-0.33061538223912856,-0.30301727558351677
0.2795728806804523,0.08667281644125124,-0.6773152233038808,-0.043828115264590906,-0.10277012193936202,0.10512099217138705
-0.448370005604135,-0.02331278552608218,0.27698887317857324,-0.12580968933053793,0.28467659794895583,-0.17858332630034268
-0.20341306091389444,-0.030669598465621728,0.34551059540738915,-0.21813755418419029,0.8384849938163222,0.06876626169747416
2.1529420523467993,-0.3148238951472777,-0.11894279153523735,-0.03902013552184325,-0.9988916473600717,-0.04316852188822273
-1.9459740233034748,-0.6117808279151968,-0.08542875856043308,-0.20982650472850295,0.06614794250571848,0.25684310739131655
-1.7730559587476078,-0.5281113449045054,-0.34852009022153185,0.061898863200966936,-0.37933334051210277,0.10080992167850042
0.07869699664960206,-0.3987072961723819,-0.40790297224027594,-0.11809373653425453,0.252221635957962,0.46824234270296805
1.5747175599733128,0.003346441921364657,0.0012929884978873096,0.23186532584499636,-0.512294034879086,0.8046648567340714
0.8840067896750285,-0.38638238541896475,0.06994660847770194,0.09308666792135753,0.010084739526475928,0.2567381639494617
-0.98775696745336,-0.061690750622407864,0.1020632685382662,-0.2183150259219581,-0.8746243467201651,0.9402865394078745
0.30586406590609805,-0.4163613941917603,-0.009770130875459818,0.06570123113023527,0.43935134733367553,-0.3808090449789552
-0.6795284512387152,0.015440241696758283,-0.19966880511796475,0.09914819312695175,0.6264985318018094,-0.4342155722078758
-0.012515042308484936,-0.7422934107222869,0.4175975547209154,-0.11825437099246536,-0.06400795723130076,0.09213675853682923
