Gx,Gy,Gz,Ax,Ay,Az
5.726147000000003,9.633045000000001,-11.566835000000001,87.58,-600.5040000000001,57.39199999999999
-5.072631795093349,13.066937513258521,-10.35159670976286,-0.5316227836092551,-0.21126603199075977,1.3142385804456855
0.39856103668201914,21.64322845177438,-8.373562637944902,-0.8310472557039943,0.038599039228840004,-0.4403455344174072
4.440039202144768,-1.8203367293536319,-14.196765795619157,-0.7782935849218837,0.18570179785149282,1.7629010707794395
6.229781111772318,-5.229410545944708,-24.03708337486069,-1.8519969949773034,0.36969508526561423,1.9099084221610723
5.969863012020056,-27.185243292434453,-57.731591594310196,-6.279801049535171,0.6388770050440029,3.105412072829273
8.837319014994277,-33.083288225417036,98.25400290202147,11.387835987580926,-1.3967244743638765,-2.8644003323977407
8.597687431289142,-9.548829408538836,15.902543375708795,-0.31349254013736916,-3.011715631115832,-2.5301423022514458
0.19698586338750879,3.2326486072980214,6.373094258943462,2.91125377610751,-2.097499414735641,-2.953113128323186
-3.6425308229889497,7.281177391804798,10.858221049009813,-0.0007566792050466287,-0.6077256664150319,-6.755783152078919
-22.836336067284563,8.137149482824777,3.9490970583662732,1.6548292171435794,12.302558098386974,-14.764029107357208
-59.89797079421827,21.16987792181896,8.249099678571053,-11.981029165638402,77.01183273100749,-15.724020662987632
24.831634678614243,10.338555267666367,12.112569446451348,-4.279767785578144,-32.053111832335134,-9.896753698360145
-0.6220200718888549,-8.53121011181495,18.40623265930685,-1.2287453688069978,-4.02525814359137,-0.06857140539936624
13.01714096421054,1.2238542824310317,30.627429259483527,-5.456199007010413,-5.037830937142891,-1.4252252137487416
0.06297443528733115,16.42036074575459,45.975098741711335,-1.754294685157096,-4.467819764374313,-1.3412923169455047
1.6011890738082442,1.8041159071389767,24.37687465630904,-0.5937230139662876,-3.3837083951447116,-0.7443865679272316
30.368428837036657,-103.72609324583468,-145.207157576285,1.3647696242885619,11.277014603084005,2.963363903773912
-2.450175375998088,38.22104950801838,-6.297186165283349,16.61835782864739,0.46706481715690323,-0.12690160803053863
-5.117228320396097,5.021288034361081,-9.285942950247971,2.3796488774108693,-0.8220274696706684,3.1077512236094824
5.717952578449376,-7.5546916800047,3.9925601719204744,0.7533695674970493,0.8658375323223824,6.9317506234983615
24.38389455012047,-8.621005204943682,-0.2278028827356562,1.0853659156321882,-2.495461409319958,9.456471125370493
32.65650661626633,-27.718898352001457,-8.561498347670753,-5.632272454411327,-3.117395989600217,-3.3215012578728293
-35.242398834173564,20.37987652926273,0.2861308558874356,12.817827181786441,4.1868929861862,14.77679789245122
1.4974814146783368,-12.122148020400607,-3.9770878895197503,-2.869841221670959,-1.708186328702189,-5.72024895368536
6.573058886994625,-16.011885016189026,-4.824427433765663,-7.097620660956927,0.2968281079739201,-2.3048800235862323
-0.3008022506495388,-5.20833154950375,-4.386254169310037,-6.047994712612624,3.758662703188108,-0.0343130782923563
-9.181241064290106,25.151421549047193,-1.9402260468832466,7.9192022553963355,-0.833991925422495,-1.9467637485391958
-11.275709272505045,72.33694810257151,-21.549337160670724,49.894785033130525,7.338281451984899,-0.40209852476733
-13.224307102248446,-4.544398473221677,9.054163652739247,-24.49915126386972,-6.574954764851242,-1.5887631860760578
8.71660883896724,9.012711404611482,-3.7925337282867275,2.1256888437102557,-7.432200682924723,-5.195894149663145
-0.6661262288918515,13.515501896852943,0.7083453988570949,11.313532915677492,-8.497107027552062,-1.978843312835064
-8.374240046608474,14.17267916185229,-0.6158983854531102,7.6972340839841165,-17.091097820841036,-1.312902456092635
-25.467912633606872,14.476892406124266,3.0375625980517658,7.497073531478547,5.1484462061834755,3.6203064448422877
58.670122192126165,-6.752145156736807,-22.267566930634104,-8.83272540497838,-25.161487754714077,-16.750928145116163
-23.4128456473793,16.733947880526387,-5.6827358717898475,13.919828190719379,27.59167054560379,7.652908461574084
-7.522828710694111,5.360847280881934,9.988485472583754,5.957199624810695,4.275631176294959,1.5468228157502082
5.21468873165918,-8.7695728084026,6.078091318348314,-2.373749164064412,-4.958632315688703,0.8428981490511873
8.444327541659325,-21.60289884299147,9.588717883151972,-15.081159208393366,-4.744212590649104,-0.20066523351229715
10.385224623341646,-15.733110158221148,-16.877217706669576,-15.923886890063969,-10.651127297374279,-0.4799344054178897
10.156376260419517,-7.469480825613159,29.277319911267348,-7.035733566072839,10.623575593356652,1.684516768640433
-10.349788301603175,5.91117287204564,-4.009593878740766,4.95468464323006,4.526287550023925,4.660853695295852
0.32191880278839324,-3.5017545721919636,2.19671294876936,-4.040048794477011,1.0784029002942646,1.8654765580813795
3.1446193400135023,-5.052735421328493,-0.5494651551593104,-3.36629403710842,0.7012238439387646,0.9759140782371698
9.660776776892243,-5.523264692577694,-5.248391076790671,-5.511457372990914,-7.95535423306918,-0.7129238315131226
-9.634772750910123,6.303355707278838,-1.193218869017433,0.2554693371448655,17.617084569466265,2.4162291333203085
12.39947127381722,-10.482087836570377,-0.08407602505557321,-5.337284108337937,-14.07777116333214,-6.105833013474129
0.8299434309597462,1.7462835731518886,-5.7136647528860305,-2.39812242999972,-0.3114434522962486,-0.7328703105061865
0.24765733682714242,8.802093103058116,2.3451170676663304,4.553811856398095,1.9639345860839452,-0.05521540228105193
-6.027866945417051,13.404447502372978,7.411193680029575,8.157525462565362,0.04112484504070579,1.4305771944781611
-6.6298314089349475,8.018945367470986,2.3410027732465863,3.4223654209247227,2.8697368264465926,-0.7569364174231907
-13.575903405745674,-6.096606906291826,-20.31108155640802,3.1082957027209392,-6.098548597941059,2.4644028532834255
6.54590014767957,-6.146809929653207,2.532793983347668,-9.92483610277288,-3.3010779174414884,-3.149864306522749
1.5727107349368479,2.2404865100631284,-0.42597910697080826,0.27370667953060135,-1.956862996118546,2.9335412628768394
-4.6676369846119306,5.815910074618031,-1.320847923275235,3.3117493769553548,0.14903123659214357,0.3518841686586618
-1.9786601469797693,5.266443622307943,-2.3385463350961118,2.04058668722873,-2.6935780550916557,-1.5190905413769031
1.9492214885365637,-1.3935094481470074,1.1302914963585753,2.417057883278197,-7.658443197114323,-1.4002094687814024
-10.307913632197549,4.86860389244975,4.582866209731688,1.3818506795494736,10.855446961972538,1.3762109403233918
2.1011373994374924,-5.892858154069014,0.22154333306321305,-0.15383358811800818,4.552391212534491,0.8801170636552946
-1.8797418185547752,-5.798240918447744,-4.559994595297196,-5.1161281566358126,1.5522815331884072,-0.4340731480746596
0.8596780554802541,-2.0433042250355307,-0.8900196734943786,-5.070820081527986,5.141125545128402,-2.5535491677552304
11.14024415369542,3.9435905250231436,7.120878524119219,4.61731683133092,1.3030915549637192,-0.8600709337745789
14.76498297736862,5.465777464413883,10.600816564085651,0.6574913306340084,0.09938615584819632,-2.989591777475601
-4.422194942246134,8.217057600958196,-1.9179827552345117,8.972382455070393,2.0147859498087044,0.6363555861337069
-0.1413831263457448,-3.6311391997609146,-1.463778507501658,-2.499757602315537,-0.9382774021988394,-2.3048899265534146
0.08136928417455724,-1.2492749068229572,1.8605702714648515,-0.8877113727198891,1.742219631177142,-2.2564917431454146
4.905288563600841,-0.5249505392309719,3.7736735229660754,-0.5500404655243853,7.551619306148812,-1.6454277026782742
3.103129268530023,3.172282032013811,0.8237873594013396,-2.8890466099836827,-2.3868667519029074,-1.8566226499685523
8.471690715116956,-7.465200235828472,-6.412721554194384,-0.1623380065983572,-6.047067487617588,5.228360664351336
-18.304674706668436,3.0993466777060386,-1.1551406679072556,0.4954966403749739,-0.08437262515278654,-0.8071297392653347
-8.078727370174889,-0.5990142523156385,0.5607942604600815,2.958837843619154,1.3461000018331846,-0.25717976288948075
-4.822900293738358,-1.0629394780895103,-0.7565804891411532,-0.31773391073998125,-1.4998975809121435,4.251118932212481
-7.4880763456139015,-5.704328972734052,-5.583120979266832,-8.555178249039255,-3.6238421766526683,0.05946433962174569
1.7820473069923985,-8.207647355163639,-2.846776153358683,-2.7256851538131466,-5.191950407003237,4.740009381300788
2.5451991412589585,7.167502802904405,-0.8388591117289447,-4.083505164942195,0.5462832035544269,-3.7608166952703863
-7.906731636326041,5.9439987110776995,0.12406305068700618,4.649385129023333,2.7515428599018072,3.4206821379614563
-10.291711259411036,-2.176975192215572,-2.3918475021591763,-2.48940549591742,0.8052279283103263,2.2326769683974406
-9.788189620965193,-1.4501336967098482,-0.23124947560635523,0.5013121114728629,0.7278155821967341,1.0555775560732799
9.634032700500349,0.45105880323429837,1.1571309703761816,4.512633086671318,-0.3383289869738073,-1.2232564547144258
0.6517500666127329,9.568025915812083,4.490670696265014,1.3835453779890925,3.408643527419958,-6.397478351357437
31.887256344077244,1.780511088141992,-3.9155602687146356,-0.690331878136663,-8.757917505140279,3.946026409933726
1.9571317070859267,0.03268898443606716,2.5874126873164673,0.2605572535939019,-1.2950228711510618,-0.4679130555329597
4.781821684272905,-0.12128535589803224,1.2582301943671883,3.696915646511847,3.0990362963063602,-3.3376801887280534
6.168832912780016,7.132707983273086,0.6389771730765738,9.696898900271712,1.7436205170861765,-1.4801989890242324
-1.7318888063726536,3.5468067410557467,-0.1364903352756415,1.1022040879927557,2.3182956573035156,-2.0757126966599317
-7.678288719849032,-14.831542110495967,0.3631299106985162,0.523857265410757,-0.3682278741852636,3.0404339354743044
8.096381543135827,0.07693223885730799,1.2706453697577251,-3.782380039594865,-5.477309806961201,-1.9734973514396494
6.966085568584923,6.8792497348108865,-0.8479578513658628,3.380201961116313,-1.1610678324852715,-1.5817937464483824
2.079374066510118,0.6891691516000154,-1.138949672288971,-2.1056036455405907,-1.7789333892063866,-0.7503887680355836
-11.307507792654402,-4.027657797443688,-0.44261527329221817,-3.7601340743632043,1.4410993079358807,2.8659301862455413
-10.562677668985183,-6.847055234679111,-1.9448433497419868,1.7176610618475106,0.28133606840953707,1.2666431356533498
-15.799533930998528,2.095812733835969,3.285509589402451,-1.18471423094575,10.482702067817009,-3.8060990508142485
0.5697302476686597,5.482376684110763,-0.8353973154683063,-2.7181542609345986,-1.574115736260136,-0.5187340448126785
-8.269873228990283,-1.1063866022365048,-0.2906633589084002,-4.397315165729258,-1.6712397140457753,3.8610626411569644
-4.188252600380505,-2.4775331383109753,0.8782581096073667,-6.883637886944067,0.3810881387982179,1.9654003533769857
5.862721640121884,6.434278755575196,-1.731246865813859,2.538114935688534,-0.9147643118889404,-0.5676781108877034
1.768983238474969,9.804635660236185,0.7673516851891078,-0.6114227066674256,1.090585816480114,-2.234216247561402
0.9475049814704897,-8.423105569128026,-0.7790947444571787,3.8240558838067367,1.7377246384222096,-0.3853172955643258
-5.24380221937984,-7.069913792755833,2.0975783940480173,-3.3324874252056222,1.0532277661817995,0.3609311972784971
2.3843615796360833,1.965201881325013,-1.0663275773518386,2.4586908050562006,0.3982441681960207,-0.7734220011328911
9.47858432586279,4.995557064764952,-2.030287670000532,1.4338012011108021,-0.9112778270451827,-2.9590041731651118
5.232537790335149,1.2787580679516457,1.4519239648744713,-0.7596348627708209,-2.212692435072158,0.10193444889993342
10.181903103424846,-4.819151020855127,-0.7893332248731855,0.6532373859182244,-7.090572824918074,2.923669876687918
-1.333511738243574,-2.238129199291485,-1.7514160610634641,3.6282565706484506,1.5174864014644123,1.234228989165123
7.107430650158655,-2.9888287183075253,-0.017276967992239878,2.3460316107933066,0.6622325622442296,-2.949374176838109
-1.4649067540064924,1.8757881088913748,-0.49022252190264415,2.9308216706020778,-0.06779755308257762,-1.383444771842853
-6.059947347914868,-8.045805859627123,2.25035420692534,-2.9659525611034097,0.5183088762406527,3.161361592438208
1.7363591151241062,-0.6637771471183054,-0.8283126456386385,0.4381661325724857,-2.618877739033658,-0.009148946468290231
-1.9636857451006264,8.19260051114379,1.245238738083078,-3.7906012276310044,-0.1568769904430476,1.2123513766564715
1.7042803133227993,2.13002161860468,-0.5644736338283902,3.1372280715338103,-0.7999572454779249,0.06363087954102456
-7.211531076966416,-0.9479859691761523,1.3532860732101746,-1.0734572470838504,1.4118714960349086,0.0484023246940124
-3.3356237968591165,-3.085323543993016,2.6942367062562274,-0.7092244925979918,0.05061683158160665,3.109587554191098
-3.5444606336109903,4.413115310651673,-0.36687337281367305,0.739089081220625,3.530509655241306,-2.7703821175864567
-6.032940894301641,1.8917581546677988,1.2278017406250927,-1.3214731577754635,3.182494856918801,-1.0264685612136217
3.425702343496199,4.637174625867941,1.1153439333686952,-2.8021309011355493,-1.579581874580529,-1.4380931341621395
-3.6984942190766414,3.5611283778372083,-0.5483243988658728,0.29303122143396987,-0.9629020678934985,2.4684048040821733
2.501523540471357,0.5496295472697953,-1.007818426903171,-0.45636329935617015,0.7404344269606997,-1.287873961947182
1.1641826860539224,3.276398087780197,-0.8730419180697101,2.1738849579697845,1.338088083383816,-2.49000228076418
1.3477393159542368,-2.207740913122533,1.2161798994580395,-0.04386523816920418,0.20998150121466297,1.973978490804229
-0.09900757283410488,-5.604084556932522,-1.1129105709147225,1.9304163534898038,0.8317476835141138,-1.6187831963319461
2.2166964574594816,0.5052915336984625,0.17405894681286593,-3.615460742699493,-0.7894710883096843,-0.21749458332350502
3.830060856282076,1.647736638245819,-0.009971801721722295,1.11693406500443,-1.1512745231279966,-0.07136453279766508
-0.25093968410460377,0.3381823408268763,-0.29128671911558135,-0.1509619734813189,-0.5141210885761716,-1.3090395228597511
3.618938422176108,-1.2248619037152482,-0.6333038156337443,0.4203416681321077,-3.3984339161394757,1.257993384252893
2.9558202801208715,-2.703291569585457,-0.3865320871441391,-0.20194504379836165,-1.7502617595349492,1.8632318302223505
-5.612972004527816,-2.0253904365859583,0.32131792748258614,2.2125697393259154,2.479218005184774,-0.03181515019843939
0.6616967045008061,-2.713843253668149,0.8967153741332544,-1.1312524446880345,0.2922297869101911,-0.5389684616012698
-1.0405234503715608,3.147373904853003,0.5642074809804825,-0.7963546511835009,-1.844054191069278,1.5191972101469273
-1.5509958421150385,-0.5963769382955859,0.0997889040466935,-1.3863873070934094,-0.2969698568976229,-0.762852112911696
-0.7103858089239221,0.5237624761841818,-0.0010625816532492394,-0.35178511660414635,0.5296953446762567,-0.2642453319379854
-2.4562951213059536,4.170837024027698,-0.24254803710900852,0.4986103045472903,-0.5438856397505865,0.5184140931144936
-1.3769639708781973,-2.402587434216237,-0.20217205062752192,2.4331044195159226,0.9250446173829283,1.626387921222864
-0.5859165064819726,1.1056696839033198,-0.08350063004892982,-1.6585132553101334,-0.12903727125757058,-1.3986948059299769
0.1793330278106371,-0.28884986280777003,1.5720200930820079,0.14115776147274328,0.9757277932465797,0.13027954891970084
-2.3619188771426343,-0.22510524952585476,0.5689295295211001,0.6661322009125872,1.6147357838390004,-0.4953308479309606
0.08048256556509359,3.078893284654376,-1.3907388107091792,-0.3648832212422193,-0.21656213626126974,-1.3017867026337302
3.28251747913328,1.0253443319295155,-1.2059166137352895,-0.36968607407828524,-2.073146225646005,0.21321455230806863
-1.1536396569584013,1.7804048334648357,1.8996614949144655,1.5592209980755563,1.1141157505243482,-0.7603331956275727
-1.367708850185136,-4.540652998771569,-0.457628387597914,0.33807255391487656,1.2049712957557728,-0.16114876805989453
0.9034993931366042,1.4550065716497391,0.20188215276882038,0.48658424972587255,-0.4227064684820354,1.0003387929633223
1.7645176219846808,1.7857054706163002,-0.2484404192374286,-1.6663001742571426,-0.3929886275187531,-0.28714239901975236
1.0387982801384104,-1.181063565948326,0.6361153504698291,-0.6170544527164117,0.6299749208639782,-1.470231352137706
0.40938342155188545,4.284824895202739,0.7049710269350562,-1.362602929805082,-0.6937356050242603,-0.7334808952498992
0.2460088893105521,-0.9052600203550321,-0.7983109120584331,2.2431373083774515,0.24172924742162583,1.3401196188702889
0.7461870498426684,0.37478181890080453,-0.34590397347514923,-1.1429585356690946,-0.5120510588680386,0.10507168148536628
0.7141262987528316,3.2655421144073498,-0.35652180895460905,-0.7646992801904943,-0.5101004193282874,0.19746899363258064
-2.329323922071299,-1.596799500622959,1.9489703487775811,1.5432926688689024,0.7591020659529395,0.5439909136928618
-1.6241656341354496,2.066034583754163,0.33024371646444467,-0.0880672529003812,0.5079511054664749,-0.32219997082896
-0.23756113021998138,-0.3077263844277003,-1.2291869042150314,-0.7996329472069901,-1.0816604885823538,-0.15944384513134502
1.200740803806967,4.177253894844208,1.0380353873160513,-0.4925910143288742,-0.38582658518722573,-0.0193863154259859
-1.9207388663375662,-2.5129663958429456,0.0016696956556529752,1.0563607822954912,0.45325056121428725,-0.3288206119665049
-1.3275340614176019,-1.2461262340666126,0.2746984134373167,1.828776350503612,-0.17935614441051828,0.30815605321733663
