Gx,Gy,Gz,Ax,Ay,Az
-13.882074999999999,19.133699999999997,-18.715411,18.868000000000002,-531.206,81.78599999999997
-9.984705115892297,32.79788299847806,-3.3937233370552353,5.022556459216642,-0.6817484482341168,-0.7667092349802567
-14.261978696786167,44.1229718652147,-10.170972677023132,2.5445477834023102,0.7373587996973798,6.614507517441485
9.696749515352435,35.075860084152076,-4.484329681203159,6.616670368477295,0.3628556990386862,3.604598442001107
12.727229914240947,70.17599620712234,2.292152628174857,11.298145236490656,-0.44718959711268075,3.826140324785028
46.09070460048527,134.48411019671732,-0.17271229708854452,21.863603312294323,1.9853221422317935,5.6604800891033635
-5.923921403958476,-33.9058526077711,-16.622603717155883,-21.822867476231675,-4.7506106286913,-0.9201997569158316
6.377969616774376,-0.8726128461759214,1.1230192143018214,-3.3519145185634445,-0.5764406614137905,4.9979202550402775
5.970920376397733,-2.5667879160178355,5.470927871536347,-0.5999645672644763,-3.447895266241013,5.786594535640345
-7.971409825065437,22.76506651608493,-13.157152412240068,1.4323177993341942,-2.0752323442937772,8.282156691256736
11.950611396694638,6.630187807550098,-0.19254015780752531,0.7691742423849703,-13.20207014008193,6.359849871465833
19.158924147505015,-1.066933655835621,3.256778325505482,-15.191587107438272,39.37320152086541,-80.14981559208331
-12.301052308037843,-0.2882038027828142,5.8726542260605745,-1.1569363148377165,-8.751917720805276,1.7123453836401938
11.54546356801869,8.84157296029517,3.1821960652246677,3.3059150182039074,-0.33699231957231923,-1.9145766860448403
9.485349819767288,-0.9632367931500312,12.79654363700465,1.9853719358492778,4.287662549157336,-3.128382325694951
0.5715509079759897,20.3129300377883,13.200380102828314,13.007832219289895,-0.8338198236293943,1.5740519419470709
26.052661544324167,-7.09508620959204,-4.7394614253725456,7.890480654276325,-12.680510848315988,-0.9085085456146826
10.054440825003066,-17.468733111007857,39.5539145608926,-23.04222577522532,1.2838285036206614,-4.431182397406817
-2.4308083433109164,-12.059366393546185,-9.016167465601448,6.5781279626576445,-5.801049944797386,2.1904759740511257
13.78702741795865,2.564342879475346,-14.629335135598602,-0.6548128329904519,-1.9275677437508312,1.6187397865346105
-4.087356650834105,14.27320132216032,8.245947090392733,8.137147991336466,-6.7898221406201955,-6.636559471612712
-19.8767447522059,-0.5944059227762719,14.337509194670924,4.85709056966915,-2.5031029320101372,-6.17831448494482
-6.720344580893336,24.08494954763662,-18.307591503515418,-0.11501230435804155,3.529007783785375,19.649283705977375
0.43316725258354527,-4.354021893302517,4.444405856887656,5.33816350153157,-11.268649816921922,-8.409159543514658
-21.932731858188067,22.740653384464263,7.255092122213447,3.7400581229363423,8.339902606027778,-1.7718712562904761
-7.726638937751066,-9.41695862798814,-9.44604303064978,5.9072677069398685,2.5598036404501516,4.312249914071151
-6.0412945167131396,-17.585333141528846,-17.95956842926901,-12.49117347376518,-2.2144689989442385,-5.434494344336745
-21.31446201330034,-16.189391263437102,-8.239336407156083,-13.02717205101829,5.482471951078179,-3.900819201625652
26.5166331552653,14.688472632805924,-13.615454814827515,27.162234447328068,-11.7863465768383,-0.17502594426215157
-4.6326089456003485,-11.686801353573962,10.344136163702023,-9.443619327959345,-10.613470891372026,-8.05319251807753
19.358905886615354,4.455064535304917,-4.513020283339348,4.162645054259358,-21.88926326541622,-15.10094751024845
5.495170897023226,-27.86259308663876,-4.1144214546389115,-13.366016663044215,-12.203778139755967,-10.666901325488947
-6.679843028410611,8.190905198973963,13.83084868009838,3.990850368712941,0.7351239640870944,-2.6581611725699026
18.619691017427982,22.655593845044656,-6.542539596542554,26.904891165805466,5.066858163427988,20.607027393305856
-12.996145252959352,-2.252178354475377,14.34638225547291,6.825167365042236,11.444528860335023,3.198970896730318
4.140021623767833,-15.2548495858469,-0.23610922212548768,-0.08657000600325215,-8.33268404279222,5.325520502691822
9.7032007882163,-8.385039331343844,7.774187401186082,-5.948143899872301,-6.3416247935213015,0.610924344639308
-2.2526430621228037,-4.0938476000408155,2.6964425306091444,-0.22175597175880357,7.664663656895393,0.41577006819247453
34.837933551413656,5.403417683835501,2.0712485145968653,8.399411712741987,-13.306156973950447,-0.45754787234815275
-14.05692291026096,6.5914831444269355,6.555652076928432,-6.212538689273641,4.1463603512931595,5.240930069864523
4.89456772300752,1.2990222430648768,7.1847544559030645,9.395070665198373,-4.525281044378051,-2.1115799634080537
-19.092055141542662,-12.634870264092843,7.422799521903601,-2.814475480865596,15.416701996672849,0.697900799318131
-21.33536136814557,-13.944341868754318,4.78817827253323,-7.775573651769719,15.984498799208234,9.886006173992687
-13.3120814498427,-4.309652148193973,5.079428721103157,0.22811769942763674,4.821787553431348,7.7608656420543145
12.327086892774746,13.011713145121636,-6.937370498779369,1.8649127852922724,-6.663809240742524,-25.038906779790125
-0.16007521310402995,-2.787915434706833,-3.3673725570354858,-8.818586443006085,-5.062604209305302,13.98924415042036
7.17077165901129,4.627187832380286,0.8538896760691301,0.9900345620733315,-1.5011050620296782,-0.5303480616851095
-0.2691933951860275,-5.1959104666336415,-4.298370903260919,-8.457033629093477,6.869448821428273,-3.238462339976129
3.6629577716525397,-5.4386956332055565,-2.30034390002968,-7.907081000610326,1.408701198714709,3.025051079705685
5.788817043914235,-3.351281931109682,3.0409704877829737,2.1393132426774066,-1.155329604710639,-0.9049022293470665
20.846405208072856,-3.902935169007229,0.9401968698578049,2.2577606432174133,-7.737351108502466,-5.628784111189163
1.786086732465225,-4.344862195734197,1.1743605278221687,-2.502731031163209,-2.2058410109211604,6.370705718881901
3.412013381563906,-8.168817737222742,2.165031809479722,0.7222146593580261,-16.147942405038258,10.371910810835486
20.560269861221578,-3.0097605231297555,2.038594665155114,4.109994068793552,-18.378074122632857,7.210622885917219
0.8788191381452788,-0.4365568656222991,0.39925409146773605,1.3481720188061423,-0.11889487585254888,2.888097651777535
-36.85455104742491,-12.353947285281087,6.550651016105654,-3.5057266324852914,17.65609150674718,-1.1768503096330836
19.806527275173554,4.3721978452594525,3.132378998346611,6.016938468748368,-1.965985205859678,-8.906696503382243
-0.6454311871078557,-3.020504867536414,5.137834754323642,-3.2409835626143857,-1.7146337316257005,-1.9939839494892357
-2.1518926664450966,-2.2663671155056218,3.421225849640165,-1.2925074920936122,-3.100475395887317,3.137235548159414
-0.20749402434455888,-4.487551193695445,6.340707462437573,-2.1171602405297363,7.302611663970317,-1.4540568402335143
-12.334178887558988,-3.789963338429491,-3.684949720228257,-1.3164909742572386,6.199795590138436,-1.8662908327722239
6.607991133362447,2.9937105907954735,-2.642915459335999,-7.594584820713364,-1.120452445494922,4.012922521272648
-0.6653609348192968,-0.3143769819687373,-3.0255247936262766,1.5110313071193793,-2.9502081249111725,0.7910536933170529
26.140472613729468,-0.613635694818508,-3.5307344416760817,1.0789752640581198,-5.96292281322811,-3.3825803362977833
15.234129870203564,3.7116521048475852,-5.574432722322397,0.42953864686868215,1.9591856008900819,-0.8291959021357265
3.7237983251836937,0.6206955005221468,-3.030711673529188,-1.6824867167694606,-0.3232587920783203,-3.718605857483654
10.860400682824634,0.09181261423390819,-6.330748156847413,3.4020772919531717,-14.246061003739307,11.144511791765751
-25.742442978565812,-0.7580353201718046,1.970864617693975,-0.2835188952834655,10.767803445361315,-4.547057753501198
7.084283755585121,1.2865276013137823,-2.1390796251244213,-3.05894238086918,-3.9589977243623053,3.273222841748401
5.868421791054972,-6.1319183727424935,4.522298345954001,-0.5157749120297863,-0.9031515220583469,-0.3352094310683662
-7.5981885793373625,-7.5834424838024415,0.71412723433888,2.6334349439594686,-2.219107594492023,-0.23411626259837348
-4.103582970379714,0.33455297293386677,1.272548192519352,3.5045746551966257,-1.772933158121086,-1.705899052265884
-10.824125131648147,-12.486885406514126,5.479026951718342,-2.4743110725007593,1.3287527709725757,3.190557508020979
7.135241324340127,2.6228953438691827,-2.2752547902008904,3.530525938563155,-2.1369764965148104,-0.1575667328073438
-2.8666738705879813,0.4062626644877556,2.0759379002199854,-2.374915009846872,3.787622203677823,-3.8674015164977
-3.4670277218642647,-0.9447551139648545,2.5754539790609305,-0.4200518551842163,4.021610362919757,-1.253987791756511
4.467571241744739,-2.4749555548186875,3.1107389289409033,-0.6918014990494535,-0.9473738471903178,-2.6802930242648806
17.118287725729616,6.3686782845438135,-2.107700009541172,-2.122270908848841,0.4363974677612865,-5.63591104260036
-10.816338055844113,-7.250684792828219,1.610198250324433,-1.4744310897897168,0.4379773192350882,8.135615862917223
3.691638000037641,-3.2540856299093077,2.5354768654787003,-2.9491310818759455,1.3173808525995034,0.2638888407999389
-0.43488307199146625,-1.122423824057143,-2.199821699502325,-0.266334500228681,0.4004315017287041,-0.6256471927100757
-1.9926905665420902,1.2774452224805315,-5.404128705239716,1.247516244754226,-0.18503485197760616,1.9395342859637763
3.636830607288668,-1.452204206944446,1.8021746437702064,-1.8594046168430154,-2.38428708251696,0.3668118739959052
10.392334755201167,0.8672098641489265,-2.5683901634100343,6.757223155738101,-4.934588829893775,-4.171835522690749
-1.7931182430778911,-3.4150252468717373,1.1269882106319664,-2.9655894837608647,1.5284427432513261,1.3520468488489326
-0.0918495077525543,-0.012021071882823697,-0.9317181447269899,0.657202133459397,-1.6426850655907546,0.4484937669693689
-0.6471323820574908,-1.7517373311971023,4.07867053259174,-0.3146879646663072,-2.1422726065600135,-1.2423993384465883
-6.817523029780416,-2.9022923838166026,0.2183788005183671,-0.38730499873996127,0.38601299565493363,2.4406775366644338
-6.966968920794662,-5.209015614348054,5.4732557081207025,-1.4638833966716835,1.6689423059829684,-1.3089347241176215
11.38328953149777,-3.3608796946619712,0.5448126854369388,0.5977928205647078,-5.30080728736972,-1.3657345971622321
-0.026125060601939865,-2.0695520757418655,-0.5770499017442835,0.7556023818157341,-0.7034980939205031,-0.938068658084497
-5.6732042003994545,-1.6069895973925745,-0.33299578091891024,0.28341505520775034,-1.1103104278654463,1.9808360034788342
4.4827056806291425,0.12128342719212748,2.900214887364274,-0.6798681359690457,-1.2338403287109185,-0.3525476331704517
2.3439306792548815,-1.5422362301766186,-0.8252860529164606,-0.8310649389644424,2.3509209029745755,1.1457572125185642
-1.3503087816041746,-0.07949495026046083,3.2330716995203814,-3.4339091247504423,2.441322826455335,1.518370597883057
4.516096131495636,-2.2570410214989187,-1.7247297290707568,2.4000654035530102,-0.5847324050617861,-1.4234253593559643
2.292291207587322,0.6201383826315467,-0.44315599137549944,-0.6357166535321117,-0.2529792594754694,-0.27895002341503516
0.12423070149634441,-1.267614427261923,-0.2802912435344862,-0.9890122345877379,-0.7296883821544884,2.5299757309799853
2.6189656971586457,0.9208417280961552,-0.7462988709813789,1.355765906309471,-2.009350006421829,-0.2760798608124292
-0.44070737014392036,-1.0100889402829745,-1.1951040843963177,-1.7447555792980836,-1.6339383756866468,1.940495278038898
3.099681205051671,-2.500559141625769,2.3774657971781146,-1.8184816194518663,1.9700412262128513,-1.3794649247399566
-0.5098706807703113,-0.47998015616432943,0.9853079820261893,-0.5979489124535431,-1.7662653842101685,0.2994751451307862
4.836510530549202,-0.8368141138318482,0.2832517166365258,0.5367447959464557,-2.4072805797439027,-1.0491033566905463
4.5888669225875445,-3.0243688282795045,-2.143611744880386,1.2984445518045167,-1.588654138629421,-1.169618073061831
0.2660946982210848,0.7052432905818042,-0.0407651281705487,1.8599884501231971,-2.430098355469216,-0.5362109165266113
-3.1051164890196823,-3.1907521613532595,0.07422917626880199,0.671362974258102,-0.7319773723664418,1.8127887266343694
2.1793422112458876,-1.3050773247712113,3.894272769322514,-1.3793269710586853,-0.7074771609537387,-0.8632662179699438
-3.377530019795838,-1.9733399459841794,1.8443115821383131,-1.2698812843153067,1.7798385660499538,0.8632093842643465
3.8902837602042544,-1.5719284040190147,1.659263603110168,-0.9243633071486286,-1.2438079447710755,-0.6443385675707269
5.43822711796349,-2.6633101227318967,1.1691868961390788,-0.48311841435185815,-0.9672131965374939,-0.3006540857957356
5.546203637684546,0.4090038993052394,1.7486593315463625,-0.5668150968319208,-2.6950933799835965,-1.6577012294307403
-4.401188492811097,0.04576875459195584,-0.8003448885538947,0.8684348864284219,-0.5855430978445488,1.4928296828749499
4.717675596732242,-1.6309320332111383,0.3326799720860698,0.2683527830821142,-0.14372641630175698,-0.7263615326240033
1.2481495746775657,-1.9867531540684875,0.08213083711826685,-1.4689399248597603,1.072003686206969,0.7158789514195507
-1.4658935913837225,-0.9600858672562049,0.2272760955645492,-1.296791236219284,0.9419694209014822,1.0429530177534678
4.3956021703857795,-1.6663335618630573,-0.13224277390221278,1.6332333759273454,-1.818772048911707,-0.8169057989208273
5.376820823855536,-1.4472852505183957,0.03827412266321012,0.3957972394064906,-2.3976436930887037,-1.373040117526462
-2.713483132611188,-2.7811896172644794,-1.169949629273954,-0.13516981672483386,1.3554184826401219,-0.14462251791672165
1.6768609195963462,-0.13409253211297623,0.6734115554390822,-0.14350342427577195,-2.3479560943049322,-0.6560115214185653
2.5856878846936016,-0.7939921328067319,-0.2831327734473897,-0.7554874334779631,-0.7219390458331539,-1.1308425924449188
1.1071411242154698,-1.8870260027266368,0.8661163396381074,-0.11080483473254277,0.449401192118831,0.46110578026637805
0.31994691961009614,-3.0930262673230695,0.5012422073628048,1.5226677697360467,1.1387676367180966,-0.17326378541793486
4.320301218916501,0.7845432308920872,0.7202230190855317,0.12185076140754772,-3.1430470021425996,-2.150125988562155
-0.3689571399885694,-2.8251682266258795,0.2781690112849631,-0.6260791237415018,-0.13143607691031378,1.2059942633286878
-0.7128396334295348,-1.4040899706991732,0.1037722348084579,0.37214976271822786,-1.195807088214255,0.4529383412615615
-0.16092749866945022,0.38901132325708976,0.7808520247444617,-0.4544792967249498,-1.7500981328344485,-0.45343222957149376
2.2523574098850663,-3.153556170380893,1.3410860648393772,0.2083613634672996,1.4578388066323962,0.713440372713473
0.7904957721646102,-2.1921560882655466,-0.7493527379193992,0.6845660984059164,-0.5048560207986319,0.05047386067233045
2.5870169551902595,-0.6986097016441357,0.9077291095309358,-1.281842800912934,-2.493001017018119,-0.5265291847431601
3.259078958144422,-1.598900863513865,0.0822123765684315,0.6262123275106158,0.4864614712427257,-0.6169846692284564
-0.8776371592119829,-2.7341371064415076,0.07041508027053617,0.03895858936576191,-0.45368730882616326,-0.08466040918460382
-1.8474169683636916,-0.2693285577825747,0.1769707882442659,-0.9780745147218374,-0.37920200059980547,-0.8176730864174886
