Gx,Gy,Gz,Ax,Ay,Az
7.599432000000001,10.055628000000002,4.216206,44.508,409.196,66.706
13.673805744885065,13.48378320585665,11.04556808828463,3.637705319598134,1.9491571617277113,7.777792594499962
11.741999573929784,24.871616438616034,6.436273014013181,3.7205382765141657,1.511429586415535,3.290222873165465
9.542745176545665,27.669568077120225,19.94850253911875,4.276551873244093,2.919239020086915,1.890118151632305
8.252576810098772,155.4597104554568,86.9599672212714,9.418355535050578,4.175134157795035,1.8007779111143871
35.01192142824061,80.88200759888235,48.78475941878908,8.578280072947393,10.648429510161316,3.67954930781011
18.52363421572981,28.408068144625545,23.548748553898072,6.1984459816381365,11.099674246276601,3.899440249686963
3.042019801284874,70.58551447194485,16.596528384513597,13.825555334258443,12.486688785530381,5.778854305746851
5.896468938745642,33.693965565710336,34.1573231672882,4.68355716161739,34.895199016812285,15.18641175383275
32.0741639825039,34.95049861714358,18.53256995604471,18.109237207037253,79.11178857036438,48.17668757079214
15.704898523919779,25.4940515346013,5.5693401660632516,5.01537509399575,17.825461247654562,11.041985320176096
13.535019805480218,23.287629333735374,18.95436874660346,1.538786309071857,14.48991699837741,2.612194523693865
6.544520909325061,13.253701303145707,9.547922877849473,7.79090743682856,8.09179418847818,3.9907356098755824
21.914337540170337,116.25773887331421,106.04045886011531,41.44684205353833,14.719403657606307,2.460820708339729
7.066205280520633,67.06472635260862,14.478792502190247,22.363901088859883,4.857808587093827,1.8250102163791562
6.140742241338102,25.915161652909873,31.672501233359522,6.711466339539382,5.8498226149763415,4.523686762166325
4.61331355305318,10.713574546515101,16.424762065889414,7.067468472245901,1.5894596072970542,5.122836512583839
16.96526340627868,25.305831371067136,12.720806617643456,7.983551082364115,11.703333043365449,15.380661112050662
15.394603954310494,8.166698348621818,13.452479290007922,6.301988711406692,23.765140733106712,19.962646399953424
4.829050563384874,33.50685041612116,5.270843575420203,11.77847793115038,8.467793287791356,12.174614788327013
11.597339934608451,33.3787514075676,15.801515549444451,11.395650180503083,3.279061262947335,1.5984970200897104
12.231284227524851,21.4309302148984,3.118903882518217,14.520758554020013,10.950764165751037,7.555417966351772
21.58275079932593,85.08927844323607,25.319055298636055,60.70433466119116,13.339174328866589,3.970359563679711
6.408667749504842,12.843056261418555,18.881959998066897,4.204344591225722,8.318321821987652,5.936661464561555
14.01250734029642,11.920322890322955,13.057839464625241,12.502417461972877,19.656423319136977,5.916911527830742
6.883837164570887,10.109702310961092,8.657185462337576,3.208216694595017,6.912031297259655,2.9518502700798552
12.792981273681718,3.6079046135825124,17.446589209258494,14.832305622842183,24.369140027284143,11.520870583020834
14.979144094867598,20.01050890258132,13.962709910948275,15.119962757186133,15.134436086241422,8.418217908020534
5.64390588128684,18.133008586181813,12.360344215113487,4.45871241182537,11.19044906806118,5.9277618583418334
1.179625720530246,2.5697947324907244,13.80122493165559,12.66204128993354,2.763733485945266,5.135900114322908
9.896872312544534,15.120551409685216,6.811182134532235,10.473818248455414,8.597438166445128,3.712916043820748
9.14262686162009,14.68391982528175,13.115951678720625,23.66797517551578,13.9723106200633,4.176590003270273
15.294908023674925,8.401068864428133,6.713040075432638,9.411162904520268,16.015788192202205,7.09174382688952
6.669189408342733,4.091584278364904,11.134273171552664,2.593804216186253,12.440806692918965,4.936328844697809
10.359480652549108,11.25238529929065,5.591554807724589,8.136697767770585,12.534233237078187,5.699818499854384
13.364271700775415,5.4676633201326235,12.612649996460199,11.566088663928912,14.442713004703084,12.925038660371614
10.160854557857965,6.498646232461505,4.939586281501195,13.37912000751352,5.8838046278365,7.928658704501836
4.262922058136068,6.757244284047849,14.56444343510479,1.607810643838819,9.406922446365686,5.53640900377336
1.8414087712118101,7.976061343216253,7.759278827643777,6.909845474468363,8.372353880620143,1.224213010008663
7.527000367395697,7.698587915568122,7.4846911075454265,4.7216542600818645,1.6298578256760756,5.766960494824157
3.2898240463868813,0.2223495460415513,7.066754427075847,16.71080093459752,4.374325950135013,5.83100986642372
6.794461163244354,3.8013092049451673,3.7827632951935204,8.47214875360496,11.409035241172742,5.093346963298701
6.734371032986442,4.275108825687411,8.760317885112205,1.814136327369175,9.834334041642572,6.513405135971928
6.926987858135015,5.278527708789881,1.9878628573976214,2.8923755288092257,1.1263349920247707,6.726058356882097
11.442919215451838,6.205050521660734,2.416586151432355,6.994213959363321,6.728238663416422,9.871404788065295
6.115713649225098,4.363943380523824,6.642670025738464,6.408620547534606,1.970563929262383,4.548584270658532
4.647534391072803,7.780182199449537,6.916703085410491,6.676621281564248,1.7501991228877316,1.4993418503773708
4.968776630363488,3.1979744084807757,2.7510395648132793,4.371664555057009,3.625347444158171,2.058075738685222
3.482337910305924,5.765123841594064,6.960131028842388,4.907728566750092,3.0760291679617704,4.089448155437732
4.050099264002524,4.030116938975457,4.155441689388669,8.975033475187594,2.8072279134213,4.583431590548592
1.5842125614534044,3.282239469475881,3.613638017844082,5.080964237839258,3.8561621858667654,2.2785650122852164
2.609433621230213,3.9864796947750984,6.436864832803693,2.843923592566903,6.360320448280142,5.324138177674142
3.200473708022561,0.8628261037117559,2.939443912594631,1.884913852536124,4.208890540951875,3.864095782174319
6.202544424590328,2.909778295585248,5.35485757969303,1.7040510868254408,3.8284006328159057,8.207837489482403
2.427353131681694,1.914255840382815,5.2913376222558535,4.326715339346795,2.978643031441739,2.02458919661077
5.652743217368732,3.094583531728862,2.8822622601976833,5.818467721868334,5.398346841553305,2.2806714152620526
3.709769118315749,3.747922968878757,4.948351879412748,1.077343709565712,3.0411313570238945,3.236801668894029
2.2233371265617654,2.3371917550713857,5.342839304530046,4.12739042826986,3.2364826190293123,2.6883382695278835
6.087606411201371,4.6790348688248145,1.7051537529381486,2.839525010163199,3.3795324584879975,5.601100376802605
1.9645552445305328,3.065407275666499,2.852058864851884,4.01303667105489,0.35427144270815936,0.7089665243526593
1.8968064478196034,3.837604597683393,1.2237898405730492,1.7959916820264779,2.372494737417588,3.2448318508385747
1.4651091667739042,4.670794463231668,2.0648866783782847,2.0996599159472873,1.1095074025940181,1.7864000550894807
4.298449821595022,3.9903170881076595,4.289243919666383,1.8356238671835994,0.9370403819225803,6.437471286459723
1.7319889494054619,1.949899304986683,1.7171840530145037,2.031235293826628,2.8725301332917246,0.4234925557840272
3.211779783858922,2.741557143178838,2.591849000374525,4.625267424535395,2.169630783722007,2.8043788075478076
2.297423902798583,2.224290398425786,3.7765076393284684,1.1562999560023566,1.0570677950704015,2.7592493718212516
3.243820836110865,2.906596079833419,2.2166653178802154,1.4781014850137992,1.6419951278855849,2.708681598121123
6.180066367951237,3.1306817125444364,2.9756838454171,1.1208423599265638,0.4119330946487755,5.4742776699653
2.9344325234784727,6.2939793246801425,2.4531948984980683,1.9371280020622317,2.250188709928378,3.1210669690607484
3.815485934234576,2.1670898918643933,3.6583464683306897,2.1512382813262194,0.9145477860926259,2.50682710543786
2.7722694198176594,3.8433144088284883,1.9424691061787627,1.1979929906027935,0.43206933203265757,1.9538148787647733
2.851017562136987,0.5811070783737067,2.4042112573668954,2.3652164098236077,2.821999356819021,3.8007389557981037
1.1665504103700406,1.30407015580561,2.568729633747301,0.7350498710512431,1.8527988055519464,2.8603603384790453
0.6611988502441449,3.9095558782689253,1.0382944519599946,1.9453082037524527,2.5903811866230706,2.3811058050097422
2.227697057954878,2.3096786330843813,0.5612750350798269,0.6516945804836867,1.4780171682967458,1.2070206484486552
3.6904369615198345,5.411950491633988,0.6140437707109743,1.6656814947434089,0.9426626871264681,1.8827532678317243
3.8211185790787723,2.000175729114381,0.1278314375269373,0.6022170524700563,1.291524675564022,3.9698296063723495
3.2464955253636463,1.90285103421549,1.7410387164784171,2.486767376951141,2.5280163121912174,4.093299343394915
3.635468592864435,1.9166033716246795,1.575622843888202,2.2831751935294062,1.1954891456858847,2.0877079657282684
3.257486069511846,2.11492463197041,0.3285898328103411,0.8322100023181349,1.3983132357013555,2.2179925718488653
1.9930346836599864,3.2338881111782047,1.2313335023370322,1.6667192076899267,1.3661866832101883,1.1002900635993977
3.8564337818590544,4.937877861671313,2.569841534935027,2.288631816435529,1.6605291252015977,3.6679280163999155
1.3290143616065924,2.8333524459916304,1.657677338964411,1.6020575810192361,1.1867779457722105,1.6626346868602708
3.056643432479068,3.4417968792180806,0.8857939544136306,1.3949927263537751,0.9195979787801185,1.0379705874407366
3.543461674329806,2.5250570439092686,1.406478524165633,0.5179068822468459,0.849763487799677,1.9746798241199002
1.35862047535717,3.4421452363739458,1.0194950966123337,1.3746326921446697,1.327504517803661,2.2039894861616736
4.776860388017859,2.1630263184419625,0.8370527531149268,1.7474610978578278,2.6449628209562084,3.804034412429287
3.593699981181296,0.41661504987632636,0.7840242815741716,0.7473285482253744,2.187038511464587,2.1648458865049824
2.0056818667937226,1.1379769609295873,0.44573507893589476,0.3576190050682065,1.356211612298972,1.8170699173493006
2.9261247900553284,4.200438343536456,0.8939742012523401,1.1549726502370552,1.3695275747098397,1.9713635910729488
3.3426790924747416,4.156463571285601,1.646158087959532,0.7363150384571291,1.605307044419925,3.155219132818455
2.6936165654487025,1.7251363384732297,0.5989128749813006,1.394299645277547,0.0834173817381549,1.288839707747962
2.3448341440623617,2.295879447855651,0.3745609327551931,0.3136479611321862,1.0164731319480929,0.5887371851363103
1.9981510977962293,1.0351877476062912,0.8143449059743029,0.7045079568442111,0.6065262131849641,2.5064287380644887
0.6273459894096028,1.1909031551472697,0.6531281350033727,1.5396611187457807,0.3846842130458286,0.7934026155303212
4.55640431249296,2.6311012195291696,1.207223030597513,1.4277859834160758,2.3052887320900237,3.0646448850145473
2.6363885492467083,2.575355246692065,0.37394716504535946,1.1270493992228383,0.8824326508411674,2.3828275579024862
2.091379290951065,2.3876624182781416,1.068720512370738,1.2386230947751395,0.7285064649015363,0.5086212374775032
3.359168962767047,1.0706399255294248,0.8762965512990998,0.4247007949376984,0.4523576205023732,3.375787808518373
0.0,0.0,0.0,0.0,0.0,0.0
0.0,0.0,0.0,0.0,0.0,0.0
0.0,0.0,0.0,0.0,0.0,0.0
0.0,0.0,0.0,0.0,0.0,0.0
0.0,0.0,0.0,0.0,0.0,0.0
0.0,0.0,0.0,0.0,0.0,0.0
0.0,0.0,0.0,0.0,0.0,0.0
0.0,0.0,0.0,0.0,0.0,0.0
0.0,0.0,0.0,0.0,0.0,0.0
0.0,0.0,0.0,0.0,0.0,0.0
0.0,0.0,0.0,0.0,0.0,0.0
0.0,0.0,0.0,0.0,0.0,0.0
0.0,0.0,0.0,0.0,0.0,0.0
0.0,0.0,0.0,0.0,0.0,0.0
0.0,0.0,0.0,0.0,0.0,0.0
0.0,0.0,0.0,0.0,0.0,0.0
0.0,0.0,0.0,0.0,0.0,0.0
0.0,0.0,0.0,0.0,0.0,0.0
0.0,0.0,0.0,0.0,0.0,0.0
0.0,0.0,0.0,0.0,0.0,0.0
0.0,0.0,0.0,0.0,0.0,0.0
