Gx,Gy,Gz,Ax,Ay,Az
-4.767651000000001,14.760375,-3.2996400000000015,70.762,-575.394,197.30399999999997
-4.661639965125017,16.571042345533996,-8.175853026637897,3.9905293204704053,0.5935492179143302,-1.4625726007334727
-3.920556726257259,8.81925272924773,-3.123903435222989,2.487741511169167,0.7161704827911413,-2.183496170488196
-1.57091772218324,-3.265615561597213,0.3775202241804554,2.930683690302583,0.6092913504745441,-3.070434076727915
-0.8002724500021974,16.75258908930913,-10.780101516870435,4.197696297779434,1.386799400987972,-0.9242294644200371
0.1328487405353418,125.29439183510053,-94.26568045744307,7.158385154083513,1.2024693613560238,-0.7035495779406761
2.9563822417395973,-17.143522456481524,15.510313937940625,-2.7320521399682525,2.396076452712867,-0.26036475563476386
1.0075218291459902,-8.338638994432609,3.267481067581601,-0.4621847204181744,2.528383774486569,-0.782355021279294
3.901192201770799,10.100370536559264,-5.888955143769235,0.11786782958711922,2.920682583069527,-2.927429148811506
13.575332937896652,-3.2142766615845346,0.9309498400229361,0.017335280231465355,11.852189541321902,-7.5862519928279095
38.08601387200901,-6.818422943602676,12.170551835494765,-3.8758289203891927,57.1630045066952,-16.68983062694714
-16.23323378201144,-3.2679008595466708,-5.71559148679333,1.1662338356673425,-24.618567455902078,3.6917448110862368
-1.8396262263266583,0.03620473940924307,-3.8400630533019204,-0.3889403185294459,-1.9546457592194708,1.6411808725516361
3.7370282030113566,-1.8110772124873589,2.2567991682224324,-2.1781630958550022,-3.1234894812396465,1.2942405387632991
0.18682055877127812,6.778439654926156,0.43684716644939436,0.5961085213386725,-1.6905121598874775,1.7059076909514612
17.734962065327363,-11.027261244195035,-17.592809685769645,3.1471199146829223,-2.9429676240288796,2.3999553732801857
-19.40460504769139,0.7329601663671219,37.873768697503685,-10.464619979392207,-4.410709336704041,-0.3498630592442939
2.1152518037659087,-18.86681994541032,1.5492356020184586,-4.111089080930254,-1.3436232888053965,0.1432673884037434
2.424523398530307,-4.741771966299293,1.7054384816930508,-5.182525083087345,4.7385100774033475,2.2868456882919626
1.8860499568266624,6.3919800879387285,1.9041007340490759,-5.306375772595212,-0.3384879145518265,3.2959068713776234
3.3010375817024613,10.037216641985593,-0.678147986537389,-1.8078137289405212,-7.334512595656557,2.3797880483937606
4.051656843972907,-29.556758344689804,13.210717107884104,-2.3785663560622305,1.7342943985626813,2.9157626711746456
1.2180543024088264,-2.7703658209773363,-1.866553973571222,1.1171071718050394,-4.162515878078201,-0.6394416692233573
-0.11446682257665419,-11.04596891214899,1.9466432822444326,0.2362360097884481,-1.8882387328755905,1.3396370868231628
2.180330974963544,-3.723922473638817,-0.016851791974173747,-5.02301435813449,-0.9805611837901196,-0.0661332138178381
1.2911959912530073,-0.8164536493287182,1.1265733737805728,-4.083076929270687,-0.8458648734611274,0.6454309949375563
14.43129250216063,-7.473453673939106,-2.9273702273553193,8.950851238934602,2.0801560784293893,0.06700896913851795
-1.3536205544418927,6.771217485072041,-2.2088987413318972,3.8417688490070887,-2.093000730987444,0.08941407456025041
7.682448304397614,4.11584923702538,-2.688103196806669,1.518250115834291,-3.8965595234776247,0.5643974037773736
11.732922776464694,-2.3938210744141224,3.2897393856854142,-2.795315202550012,-1.7919387160871443,-0.09892135726856871
-0.30844283631121394,3.969056996064887,-1.1028553027462475,-1.9773035667263803,5.7572446775627935,0.6313459427814903
-25.409664072979073,10.569265609755474,-3.8735431840364902,10.976295458561161,-4.744366806238972,-5.5748158263538
-0.40267163081475904,-3.77567126317693,4.442174090617205,-6.529874235004575,7.898789845223555,1.8726044723351944
-5.5383093162443915,1.3227407569019012,5.829334273665642,-0.7652512097885773,-1.1349926007991842,-2.708969849517368
-0.39924918615852745,-3.9522572401564586,5.073211440514433,1.7608705609594493,-3.769080751023877,-0.04018820912411036
-5.493185554025858,3.931480594214503,-2.659340215940637,3.389101433710441,1.8755058448636284,0.016167708035421224
3.157916341018351,-4.809850330484449,-8.736392495575172,-1.753622943532522,4.657172937857681,5.179417549845928
-10.902223069644927,10.120363580245062,-2.1890118428295677,4.537235418432527,3.9715170945785934,0.9956637008767123
-1.9561279953841595,3.5515386807753786,-2.040747129963713,3.5877582468820197,0.4064511213890055,2.056005246838253
-4.245403034003007,-0.39294898712491966,2.003440468495679,0.8729307524422121,0.16922903056531613,1.0411162567889771
9.875732398694156,0.12862385787085984,-0.47952136187492655,-4.516278315447069,-0.5943399692520748,-1.2975665040615172
25.633167386290197,3.5927242844963843,4.214273935569246,-5.766871648361557,8.730516373781306,0.8488826629982966
-21.634313569163155,4.1394790516772115,-8.463506558120589,3.826972219912817,-8.184897407818267,-2.903162897088447
2.5357248022084953,2.1281179939315122,-0.6751096717446126,-1.2013592261728903,2.830774705926833,2.611062590910477
-3.7801026801371624,1.973139547280911,0.5361783031841434,-0.7590677995007598,3.4673518640776537,-1.7767537123489359
6.3076821451047245,-4.780149033078061,-0.8240608880081455,0.6551349681258714,-3.164771270739635,0.34295824814935116
3.2579850569074593,-3.143721344619231,1.6390034294385085,3.0520843963539006,-2.664627403990708,-2.9111783030149434
-4.655827671066572,-3.5467895140037333,3.547648134386857,-6.2555534565019,-0.4821644348377019,-1.2765377159744649
-3.2030202785034696,-0.03130586376283473,-1.1935512710349219,-0.052619941284831606,-0.7505379781494099,-1.262247738397947
-1.5162874064277716,-1.782392239413865,-1.8213257170205686,-0.5078421470045731,-3.3755846714745465,-0.24899006383875133
-0.9544785185967379,-2.5391501305451616,-3.1836341585891534,2.1393161958428384,-8.917338813892002,0.7122325724837698
2.9197077684806945,-5.5353201745627265,-1.896288275569398,-1.1500822576959666,-7.900265309806597,1.5763170039472696
-2.5839950177634803,3.701735603506676,2.6186787350973053,0.1818748610787322,7.336421574380699,-1.0468824019913041
2.1988890553572418,-1.2195406629474252,-0.8915865901815359,-3.6897889866892912,-0.5398507696034645,0.14534221823441706
1.453094528438098,1.193943910594365,-2.63266291728299,-1.5352895407382496,-1.6622726993300891,0.9834636534178736
-4.445181032117561,5.2508223955481,-4.159312432387131,2.9162767897834967,1.683248365531251,-0.030708682734466974
-1.3723520089649708,1.3475564910768119,-0.5042493537084609,1.126600445857042,1.3073339598490623,0.859835712271837
-3.049134093739605,-2.1005489409722915,-1.0435116701778582,-1.1135426245676343,3.0989403128426973,0.5409349449410938
-1.0281651327164005,1.760261223114882,2.8826928801710032,2.566002708893745,0.15385354572258692,1.3969598435803992
-0.6444027686114673,0.9545706575045845,-0.8900703057677639,1.259955697914303,0.8163121644209963,0.9064845287354051
-0.6890074492171819,-0.18083683786022142,-1.085244253156942,-1.2995932463498998,5.2851129360352695,-1.0466908193999012
-1.6331817002723552,-0.14368549585728774,-1.220683928558318,1.1490929697907237,1.2730834152526953,-0.8832890289387827
5.339809931859003,1.5670747121740272,1.0513417774826503,0.7488320069722433,-6.6414001948173755,3.7636506386177
-6.094037576027247,-3.828352767667229,-0.9741736321909485,2.2283627337536864,1.6814025139573046,-2.890485195499105
-0.20034916135837744,-2.4994923457061313,2.3321035453213863,-0.6335552783851579,0.7272874555734294,0.6431375053447648
4.306797799944834,-0.9567593543722327,2.858219215815164,-2.1415564573074475,0.5542257615265197,0.06199043573436386
0.5712766670637498,-0.958193811618586,-1.7562540307561432,-0.3301119162236268,-3.078592650299572,-0.7126383210340999
2.03787809027125,-0.2713045490175361,0.016140032555247208,1.1554740072800014,-3.2734005667395945,-0.044443812571027363
-1.591234465015218,0.4761681846637369,-1.3033326393719156,-2.819830395704901,3.119153883223798,-2.1500848608700487
-0.26969396899033327,-0.4343663734286274,0.6673244297609022,-0.21356226944111212,2.3649782692044226,-0.8909899851577994
-0.8739116159157685,-0.8859519640014444,1.358830195196619,0.40090863442926505,-1.1090304231459225,0.3051456836977364
1.3860173442090784,-1.7572145520041755,1.0028864847996302,0.04715021953136311,-3.324982771305513,-0.17575902935725085
2.1890843274681093,-1.3196558700288574,-0.061258773821163404,-0.8446336635024307,1.7862462285546896,-2.282665232241598
-8.266834992542403,-0.44252186606902555,-1.4176686701461803,-1.4842808739735904,-3.1016649479462615,3.8146747061650443
-1.6792179942037038,-0.46029965806271156,-1.2041263324781042,-0.1922898792167249,2.2916674005955247,-1.1201371195742302
-1.465741324215342,-0.3808832084255558,-1.3756439676265657,1.7893554552076627,-0.4702952913731915,0.3895014655248892
2.7053330201501025,-1.2459777893871742,1.5996236890282458,0.6950070058188593,0.9393026137506515,0.07606360589352668
-2.049027324331214,-2.4423776245871505,1.662025228921968,-0.3801844099626204,-0.4371857598323414,-0.061240339798916854
-1.3588797926178109,2.1267002373019728,-2.5920849871132647,2.675289626372358,-0.1944464481198136,3.6195903134553262
-3.887136336769893,-0.939497440916272,-1.9348869651123062,-0.8393201232304995,-1.3993542624620137,0.6582559280918574
2.0552281654391464,-1.0094410632325599,-0.6237001013965182,-0.4088038606943645,0.8489034128423754,-0.5216363118098641
1.6995407950279917,-1.3766310827904449,0.5672774508090597,-0.09885764908477916,1.350142833230465,-0.4748003589366565
-0.5035460164294703,-1.029595806655628,0.736006029003073,0.07797649069377527,-0.8267651658727948,0.6731655880825693
12.409417570607545,-0.7093394122346997,1.4023012551650282,1.4963306298607382,0.6358866183748569,-2.4960412342618223
-2.6282857898638405,-1.454814798076879,-1.0318213873894306,-0.8096438310156737,-2.4226510655812095,1.6794321338476936
0.056605200234924824,-1.1466307211870728,1.1973279744936391,-2.6232412235315614,1.2355797259954002,-0.23064703607457498
-1.6849344415436323,0.9156558225886791,-0.07053522760416264,-0.9221722406856272,1.3532853822085644,0.44799402663594434
1.7173347458040673,-2.5262302755687998,-1.126723085413205,-0.8238402051944849,0.2695040101321091,-0.43170859536308726
3.1160919671897807,-3.156630689742927,3.213967035954152,-1.8263683090898055,0.3423568996891715,-2.2592851742975433
1.7059519676254342,0.8698098352135935,-0.29851623306599695,2.589825463889882,0.43266567898893216,-0.29729220847477045
-2.2229268233571964,0.4157792694405673,0.06003486155748733,0.002055917645796157,0.5517893123952291,0.6705822527320855
-3.4195843445289205,0.9914436057735772,-1.213819234584884,-0.017211382801337827,0.5157070106326802,0.2986031918054819
-0.43313120902685687,-0.5387862987858156,-0.727961631842867,0.4958740244337203,0.6980857945537278,-0.5212136542161736
-2.503978547975424,0.8013064521349572,-0.9609066106803391,-0.08705979272572179,1.4043140042064197,0.20777735006358436
3.7490678544885445,-1.3828753500941293,0.06369679443167953,-1.4664394782467904,-1.4214754330882378,-0.7613885460484555
-2.9791858991922577,0.43108167512477946,-0.5515264246005774,1.0606646337058891,-0.105871632028401,0.40699763036655306
0.6108490545792891,-0.16918714948156788,0.3696734141205187,-0.06433349897056106,-0.6874154108276931,-0.3460433094600903
-1.5841060215377647,-0.9855517370319142,0.5813653593835975,-0.9598428039737025,-0.19990084564946076,-0.2132723442116744
-3.393408605033915,-0.5505964992258446,-2.053661548837522,-0.33017500683144996,-0.31291656314657434,1.3082247794422255
-0.5083533967608771,-1.2527228749234567,0.06113308160009501,-1.66334393213674,0.6604841508352934,1.2412925118709783
1.5492308878304384,0.31645541630465746,-0.9624336401087221,0.9474812853522421,-0.7449717257117621,0.4895077797114076
1.641119968493896,-1.8177597406507988,0.17757346273354147,-0.21433403756465896,-1.4173670621767553,-0.40317712742272727
-1.8385649745451138,-1.2578003216252418,-1.1897100845457964,-0.35629605370910933,-0.5592022909749684,0.8349090663180809
-1.2535061646988679,0.335611322229302,0.020863367968409152,0.12269839548005806,-0.45078447008652867,0.8907364662177517
-0.3434385795014525,-0.49530332713920666,1.222962436537236,1.2212400247915614,1.4777609389290094,-1.894598536305395
1.5632487371513821,-1.430894960736702,0.49284753039182594,-0.9456177693675349,-0.7699129634705957,-0.5421114081437295
-1.0281568037018722,-0.38350208129437724,-0.2417431991963715,0.3607842650640323,0.8073757710545131,0.5169585599470987
1.7871011875907374,1.5304066434496286,0.2368432583384007,0.4670053060669863,0.3083854278782052,0.34966817539294137
3.177515693436601,-0.8378662520973048,-0.03186640018476364,0.031965458642504385,-0.20808517100055934,-1.3368076868243344
0.16093728205153957,-0.8278862808679537,-0.9380377760085259,-0.8260804289192973,-0.41637507313370103,-1.7699860936023553
-3.4833646198560153,-1.7061184474211424,1.1080579371968484,-1.0383222516117976,0.8694188395415761,0.35436390114736493
0.19449140928276853,-0.11199123193922916,-0.6395118555725705,-0.19081295565507356,1.1016795536435382,1.0894533873054733
1.2715128274321112,-1.4729692622779411,0.019443649425356146,0.03629060123931316,1.5195314341468902,8.09765162750331e-05
-0.10707239657272605,-0.5149152101423694,-2.2668680045184546,-0.206489936378633,0.46170621204738915,0.5725604534808647
0.11508547916113271,0.7871890110541502,-1.0702373036099688,-0.9352543667194695,-1.5395621398884185,2.61966998951707
-2.6387650128551874,-0.4397510057346151,-0.8544690836894933,0.7754704604862713,0.906982100162329,-0.9579244445079358
0.3044678486850346,-0.8946181314424126,-0.16161032422678767,0.14184482111695174,0.12382394305100736,-0.4777079981973663
-2.493676239557512,-2.2045605377961914,-0.4988907154618313,0.11161492836873421,0.7390676974662116,-0.7037890570162042
-1.9729584479911098,1.116834106392143,-0.770820426235564,0.15408741831828487,-0.1319339376871005,1.175412391890936
2.7824185837729623,-1.1972201706111887,0.6989166246098488,0.7512617211134258,-1.6775018898883753,0.7684136359329404
2.0529632783868528,1.0105326705320266,-0.92845180949014,0.398426957059978,-0.6290790427891766,-1.079619918963813
-1.5362168280114512,-1.3521614048969368,-0.3894137401136287,0.16274002419823375,0.3224958139702485,-1.0068710948431696
-1.1110762551319575,-1.3267603658143001,-0.014302879199841856,-0.32083546384407313,-0.5616937924032386,-0.13653278899397947
2.782836579162444,-0.7106375724946364,0.9243744315863294,0.4146181262648302,-0.1359181611298208,-0.47024574381954454
2.2382676648174913,-2.31616586850624,0.26326959958769924,-0.8666709234164656,0.99248792564762,-0.8431910540953073
0.9121554321174639,-0.44886818893330327,0.5897091269586596,-0.7668570108154436,-2.1701574944873583,1.467474478718316
-3.106139791356539,-0.28414067441016316,-0.6114961433278028,0.3899223718295616,0.6080607221459777,0.17120736722832697
2.1219049256825597,-0.6268296600089324,0.3133063815382151,-0.35384484188939824,-0.20072745380404766,0.944678529258804
1.6220472977933111,-0.4610195111908344,0.562006467357659,-0.42115020671136877,0.8908612600439181,-0.8478023062542706
-1.8036195072274137,-1.3167880528716074,-0.9143238975462595,-0.39949447638713753,0.56149423244675,0.27019516526904497
-0.8813514246825147,-0.701727037705151,-0.28864658372424223,-0.1482006153226707,0.21853203619367267,0.9929460205473751
0.5865761571786812,-0.6217116082232401,-0.5831673794893808,-0.08063270532247702,-0.2795327025166545,0.30524416960007555
-1.069564540125132,-1.2798666710781035,0.5690406513267774,-0.23189407537058992,0.7715209790922282,-0.3572750287117711
-5.530267792077361,0.7399820164501789,-0.5601892888654099,0.19315580988118652,1.4661940538803167,-0.4176467121670827
-1.0851418933996475,-0.20505169238345666,-0.6445745736929336,0.2884129074752786,-1.1894191110453498,-0.07819927868762844
2.8182004950759314,-0.5620373414384552,0.6570040564142328,0.007276512423029402,1.9174244333761337,-1.276740754541576
1.5306871268205726,-0.6935780728731672,-0.13681004443033667,-0.04074905555912356,-2.2155112390490315,0.2653160418354542
-4.243909145735877,-1.0433043894273255,-0.9360544286739774,0.4990799419098967,0.5470181276710588,-0.5854760475016765
-1.0212926349109963,1.4189154834280244,-0.716106801337864,0.516121607461608,0.24637972874207936,0.6674500800971662
2.3669657625832956,-0.5220099569084168,0.9659890825655673,-0.3698359668540284,-0.15263338758760114,-0.41578775362947284
0.6908109809453788,-0.984788843182753,-0.18006876391849586,0.3249805881990403,-0.40113305540479327,-0.43350150650375857
0.6506538630665508,-0.13933266995102866,0.3198557099138639,0.024620221904711997,-0.21285351138176128,0.24133805696461458
0.6203982731196658,-0.4866497894484636,-1.1822075168480741,0.03618234151245106,-0.49271112326723315,0.6016667696141891
2.1107075411240954,-1.415957021722342,0.028275661095569837,-0.2211770872680761,-0.3766292665531179,0.4529456425582262
-2.2624895122795485,-0.4618648768662771,0.493957921430742,-0.7776993734872963,0.7413398541314302,0.49603065458736384
-2.740324048458057,-0.5288891639179766,-0.8703566798891564,-0.13947337026286577,-0.8454432717556013,0.8341590031301593
